Time(s),AccX,AccY,AccZ,GyrX,GyrY,GyrZ
0.0,-0.907958984375,0.075439453125,-0.154052734375,-0.24427480916030533,0.916030534351145,-1.251908396946565
0.01,-0.91552734375,0.06396484375,-0.1337890625,-0.2900763358778626,1.015267175572519,-1.3740458015267176
0.02,-0.913818359375,0.09033203125,-0.14013671875,-0.3511450381679389,0.5801526717557252,-1.3587786259541985
0.03,-0.91064453125,0.0849609375,-0.138916015625,-0.5190839694656488,-0.6946564885496184,-1.5419847328244274
0.04,-0.917236328125,0.0859375,-0.138427734375,-0.5114503816793893,-1.1068702290076335,-1.534351145038168
0.05,-0.910400390625,0.08056640625,-0.139404296875,-0.3969465648854962,-0.5648854961832062,-1.3206106870229009
0.06,-0.9072265625,0.071533203125,-0.13671875,-0.48854961832061067,0.29770992366412213,-1.3358778625954197
0.07,-0.911865234375,0.07275390625,-0.140869140625,-0.5190839694656488,0.8244274809160306,-1.381679389312977
0.08,-0.913330078125,0.093505859375,-0.12646484375,-0.42748091603053434,0.04580152671755725,-1.4122137404580153
0.09,-0.91748046875,0.07763671875,-0.13232421875,-0.3893129770992366,-0.04580152671755725,-1.4580152671755726
0.1,-0.91455078125,0.083740234375,-0.139404296875,-0.42748091603053434,0.10687022900763359,-1.3282442748091603
0.11,-0.908203125,0.081787109375,-0.1376953125,-0.4580152671755725,0.7938931297709924,-1.3435114503816794
0.12,-0.918701171875,0.080322265625,-0.140625,-0.5038167938931297,0.12213740458015267,-1.6870229007633588
0.13,-0.912109375,0.078125,-0.150634765625,-0.5572519083969466,-0.3511450381679389,-1.5877862595419847
0.14,-0.91455078125,0.067138671875,-0.130126953125,-0.2824427480916031,-0.44274809160305345,-1.6106870229007633
0.15,-0.912109375,0.071044921875,-0.149169921875,-0.6030534351145038,-0.12213740458015267,-1.6259541984732824
0.16,-0.915283203125,0.076416015625,-0.132080078125,-0.3816793893129771,0.4580152671755725,-1.3206106870229009
0.17,-0.912353515625,0.079345703125,-0.14208984375,-0.4580152671755725,1.0763358778625953,-1.3435114503816794
0.18,-0.907958984375,0.082763671875,-0.138427734375,-0.4122137404580153,0.6717557251908397,-1.6793893129770991
0.19,-0.910888671875,0.08251953125,-0.13818359375,-0.42748091603053434,0.16793893129770993,-1.4122137404580153
0.2,-0.906494140625,0.079345703125,-0.142578125,-0.4198473282442748,-0.42748091603053434,-1.3435114503816794
0.21,-0.91259765625,0.089599609375,-0.14013671875,-0.29770992366412213,-0.3435114503816794,-1.465648854961832
0.22,-0.916015625,0.076171875,-0.140380859375,-0.6183206106870229,-0.030534351145038167,-1.4732824427480915
0.23,-0.915283203125,0.07470703125,-0.132080078125,-0.40458015267175573,0.4580152671755725,-1.297709923664122
0.24,-0.911865234375,0.088623046875,-0.142578125,-0.26717557251908397,0.9236641221374046,-1.3053435114503817
0.25,-0.915283203125,0.08642578125,-0.14208984375,-0.2900763358778626,0.648854961832061,-1.3587786259541985
0.26,-0.90869140625,0.08349609375,-0.140380859375,-0.2595419847328244,0.08396946564885496,-1.4198473282442747
0.27,-0.910888671875,0.082275390625,-0.136962890625,-0.7633587786259542,-0.6335877862595419,-1.4427480916030535
0.28,-0.91015625,0.090087890625,-0.13671875,-0.3282442748091603,-0.8702290076335878,-1.4274809160305344
0.29,-0.8935546875,0.074951171875,-0.131103515625,-0.4122137404580153,-0.05343511450381679,-1.366412213740458
0.3,-0.908447265625,0.077392578125,-0.135009765625,-0.2900763358778626,0.48854961832061067,-1.2595419847328244
0.31,-0.910888671875,0.08544921875,-0.12548828125,-0.2595419847328244,1.2442748091603053,-1.297709923664122
0.32,-0.90625,0.08251953125,-0.147216796875,-0.3053435114503817,0.8702290076335878,-1.3053435114503817
0.33,-0.9052734375,0.085693359375,-0.1455078125,-0.48091603053435117,0.1450381679389313,-1.4809160305343512
0.34,-0.908935546875,0.0771484375,-0.1435546875,-0.40458015267175573,-0.8244274809160306,-1.465648854961832
0.35,-0.913818359375,0.0771484375,-0.15283203125,-0.4732824427480916,-1.0534351145038168,-1.4274809160305344
0.36,-0.906982421875,0.07177734375,-0.137451171875,-0.4198473282442748,-0.4732824427480916,-1.4885496183206106
0.37,-0.90966796875,0.07470703125,-0.13037109375,-0.48091603053435117,0.44274809160305345,-1.381679389312977
0.38,-0.915283203125,0.078125,-0.138671875,-0.4198473282442748,0.24427480916030533,-1.083969465648855
0.39,-0.900146484375,0.089599609375,-0.140869140625,-0.04580152671755725,-0.45038167938931295,-1.3969465648854962
0.4,-0.90625,0.086181640625,-0.14306640625,-0.2824427480916031,0.648854961832061,-1.534351145038168
0.41,-0.8935546875,0.075439453125,-0.14404296875,-0.5343511450381679,1.4045801526717556,-1.1221374045801527
0.42,-0.91064453125,0.072021484375,-0.147705078125,-0.45038167938931295,0.25190839694656486,-1.5190839694656488
0.43,-0.9111328125,0.066650390625,-0.14990234375,-0.22137404580152673,-1.2671755725190839,-1.7251908396946565
0.44,-0.91259765625,0.073486328125,-0.13671875,-0.33587786259541985,-1.2290076335877862,-1.1908396946564885
0.45,-0.904296875,0.096923828125,-0.130615234375,-0.29770992366412213,0.9312977099236641,-1.213740458015267
0.46,-0.900634765625,0.072998046875,-0.126708984375,-0.8320610687022901,1.381679389312977,-1.7404580152671756
0.47,-0.911865234375,0.078857421875,-0.133056640625,-0.4732824427480916,-0.7709923664122137,-1.366412213740458
0.48,-0.90966796875,0.08203125,-0.13525390625,-0.2900763358778626,-1.4427480916030535,-1.8244274809160306
0.49,-0.918701171875,0.073974609375,-0.138671875,-0.21374045801526717,-1.9389312977099236,-1.0534351145038168
0.5,-0.9091796875,0.063232421875,-0.150146484375,-0.3893129770992366,2.3435114503816794,-1.2061068702290076
0.51,-0.9072265625,0.08251953125,-0.1513671875,-0.549618320610687,1.6259541984732824,-1.3587786259541985
0.52,-0.910888671875,0.076904296875,-0.14453125,-0.33587786259541985,-1.4122137404580153,-1.6793893129770991
0.53,-0.909912109375,0.0830078125,-0.139404296875,-0.33587786259541985,-3.213740458015267,-1.5114503816793894
0.54,-0.90771484375,0.078125,-0.126708984375,-0.3969465648854962,-1.5190839694656488,-1.6488549618320612
0.55,-0.91357421875,0.06298828125,-0.133056640625,-0.2595419847328244,1.3129770992366412,-1.1755725190839694
0.56,-0.90966796875,0.064453125,-0.141357421875,-0.16793893129770993,2.763358778625954,-1.1984732824427482
0.57,-0.920166015625,0.07373046875,-0.15380859375,-0.3816793893129771,1.1297709923664123,-1.3358778625954197
0.58,-0.908203125,0.077392578125,-0.143310546875,-0.5190839694656488,-1.5114503816793894,-1.5572519083969465
0.59,-0.91064453125,0.079833984375,-0.143798828125,-0.5190839694656488,-2.030534351145038,-1.4045801526717556
0.6,-0.907958984375,0.08251953125,-0.136474609375,-0.2824427480916031,-0.5419847328244275,-1.2748091603053435
0.61,-0.912841796875,0.07763671875,-0.13916015625,-0.4580152671755725,1.16793893129771,-1.3435114503816794
0.62,-0.9130859375,0.084716796875,-0.142822265625,-0.3282442748091603,0.9694656488549618,-1.4809160305343512
0.63,-0.900390625,0.06640625,-0.130615234375,-0.33587786259541985,-0.2900763358778626,-1.6946564885496183
0.64,-0.916259765625,0.07568359375,-0.1376953125,-0.46564885496183206,-1.1068702290076335,-1.5419847328244274
0.65,-0.911376953125,0.07470703125,-0.135498046875,-0.5343511450381679,-0.2595419847328244,-1.5038167938931297
0.66,-0.906494140625,0.078125,-0.148193359375,-0.5572519083969466,1.1297709923664123,-1.251908396946565
0.67,-0.913818359375,0.078369140625,-0.13720703125,-0.3969465648854962,0.7022900763358778,-1.381679389312977
0.68,-0.91259765625,0.079833984375,-0.145751953125,-0.5267175572519084,-0.6030534351145038,-1.6412213740458015
0.69,-0.914306640625,0.07470703125,-0.13427734375,-0.48854961832061067,-1.549618320610687,-1.5572519083969465
0.7,-0.921142578125,0.08203125,-0.12841796875,-0.17557251908396945,-0.8320610687022901,-1.3129770992366412
0.71,-0.921142578125,0.0693359375,-0.133056640625,-0.6106870229007634,0.8320610687022901,-1.297709923664122
0.72,-0.90966796875,0.083251953125,-0.14013671875,-0.3435114503816794,1.366412213740458,-1.2671755725190839
0.73,-0.9091796875,0.07861328125,-0.1474609375,-0.6259541984732825,0.648854961832061,-1.6106870229007633
0.74,-0.915771484375,0.07763671875,-0.14501953125,-0.5572519083969466,-0.7099236641221374,-1.282442748091603
0.75,-0.908447265625,0.07568359375,-0.1484375,-0.2595419847328244,-1.1526717557251909,-1.534351145038168
0.76,-0.912841796875,0.07666015625,-0.134033203125,-0.35877862595419846,-0.2900763358778626,-1.5114503816793894
0.77,-0.91455078125,0.07568359375,-0.13671875,-0.4580152671755725,0.46564885496183206,-1.4351145038167938
0.78,-0.913330078125,0.065673828125,-0.155029296875,-0.183206106870229,0.4961832061068702,-1.3893129770992367
0.79,-0.916015625,0.078857421875,-0.1416015625,-0.3511450381679389,-0.06870229007633588,-1.3969465648854962
0.8,-0.910400390625,0.0791015625,-0.142333984375,-0.4351145038167939,-0.2595419847328244,-1.2671755725190839
0.81,-0.90869140625,0.08203125,-0.14208984375,-0.6335877862595419,0.1450381679389313,-1.3435114503816794
0.82,-0.912353515625,0.075439453125,-0.140869140625,-0.31297709923664124,0.732824427480916,-1.251908396946565
0.83,-0.915283203125,0.083251953125,-0.1416015625,-0.5114503816793893,1.8854961832061068,-1.4885496183206106
0.84,-0.91015625,0.091064453125,-0.140625,-0.37404580152671757,-0.7786259541984732,-1.549618320610687
0.85,-0.89453125,0.09326171875,-0.137939453125,-0.5648854961832062,-1.0305343511450382,-1.5572519083969465
0.86,-0.912109375,0.07568359375,-0.13916015625,-0.3969465648854962,-0.19083969465648856,-1.4045801526717556
0.87,-0.911376953125,0.076171875,-0.14111328125,-0.2900763358778626,0.5954198473282443,-1.282442748091603
0.88,-0.908203125,0.08544921875,-0.14013671875,-0.31297709923664124,1.1908396946564885,-1.450381679389313
0.89,-0.90673828125,0.076416015625,-0.14990234375,-0.4122137404580153,0.2824427480916031,-1.4961832061068703
0.9,-0.911376953125,0.07861328125,-0.1484375,-0.45038167938931295,-0.8244274809160306,-1.4732824427480915
0.91,-0.909423828125,0.07373046875,-0.13671875,-0.549618320610687,-0.9312977099236641,-1.4809160305343512
0.92,-0.909423828125,0.080078125,-0.1279296875,-0.5648854961832062,-0.648854961832061,-1.3435114503816794
0.93,-0.911865234375,0.078125,-0.1357421875,-0.5648854961832062,0.7938931297709924,-1.251908396946565
0.94,-0.9130859375,0.075439453125,-0.132568359375,-0.3969465648854962,0.9923664122137404,-1.5419847328244274
0.95,-0.90966796875,0.076416015625,-0.153564453125,-0.3435114503816794,0.46564885496183206,-1.3740458015267176
0.96,-0.910400390625,0.0810546875,-0.146484375,-0.183206106870229,-0.31297709923664124,-1.4885496183206106
0.97,-0.9140625,0.087158203125,-0.142822265625,-0.5419847328244275,-0.8396946564885496,-1.5267175572519085
0.98,-0.9111328125,0.0927734375,-0.126953125,-0.5648854961832062,-0.8091603053435115,-1.3893129770992367
0.99,-0.908935546875,0.063720703125,-0.150146484375,-0.31297709923664124,-0.1297709923664122,-1.2748091603053435
1.0,-0.914306640625,0.076904296875,-0.12548828125,-0.3435114503816794,0.16793893129770993,-1.4122137404580153
1.01,-0.913330078125,0.079833984375,-0.14501953125,-0.549618320610687,0.4580152671755725,-1.4045801526717556
1.02,-0.9150390625,0.073486328125,-0.143798828125,-0.2900763358778626,0.061068702290076333,-1.4961832061068703
1.03,-0.913330078125,0.0771484375,-0.13427734375,-0.5648854961832062,0.12213740458015267,-1.4351145038167938
1.04,-0.910400390625,0.06591796875,-0.14794921875,-0.5038167938931297,-0.37404580152671757,-1.5190839694656488
1.05,-0.90966796875,0.09130859375,-0.138427734375,-0.46564885496183206,-0.3282442748091603,-1.5038167938931297
1.06,-0.91064453125,0.0830078125,-0.152099609375,-0.45038167938931295,-0.6106870229007634,-1.4351145038167938
1.07,-0.908935546875,0.085693359375,-0.1357421875,-0.44274809160305345,-0.061068702290076333,-1.3511450381679388
1.08,-0.910400390625,0.079833984375,-0.149169921875,-0.33587786259541985,0.26717557251908397,-1.2671755725190839
1.09,-0.908447265625,0.078857421875,-0.14599609375,-0.366412213740458,0.24427480916030533,-1.465648854961832
1.1,-0.90673828125,0.078857421875,-0.143798828125,-0.3511450381679389,0.183206106870229,-1.3511450381679388
1.11,-0.91552734375,0.077392578125,-0.142333984375,-0.4351145038167939,-0.09923664122137404,-1.618320610687023
1.12,-0.9130859375,0.064453125,-0.136474609375,-0.35877862595419846,-0.3816793893129771,-1.4732824427480915
1.13,-0.912841796875,0.063232421875,-0.139892578125,-0.5725190839694656,-0.45038167938931295,-1.3893129770992367
1.14,-0.914794921875,0.075439453125,-0.137939453125,-0.4351145038167939,0.06870229007633588,-1.3129770992366412
1.15,-0.90869140625,0.080810546875,-0.13037109375,-0.3893129770992366,0.21374045801526717,-1.5419847328244274
1.16,-0.914306640625,0.07568359375,-0.140625,-0.37404580152671757,0.08396946564885496,-1.5572519083969465
1.17,-0.913818359375,0.072509765625,-0.145263671875,-0.3282442748091603,-0.16030534351145037,-1.4961832061068703
1.18,-0.916748046875,0.068603515625,-0.1416015625,-0.6030534351145038,-0.22137404580152673,-1.2213740458015268
1.19,-0.914306640625,0.0791015625,-0.139892578125,-0.5038167938931297,-0.40458015267175573,-1.4809160305343512
1.2,-0.91259765625,0.074951171875,-0.12841796875,-0.2748091603053435,-0.10687022900763359,-1.3893129770992367
1.21,-0.910400390625,0.078857421875,-0.140869140625,-0.4580152671755725,-0.007633587786259542,-1.366412213740458
1.22,-0.911865234375,0.077880859375,-0.149658203125,-0.37404580152671757,-0.03816793893129771,-1.465648854961832
1.23,-0.919677734375,0.07470703125,-0.142822265625,-0.3435114503816794,0.0,-1.450381679389313
1.24,-0.907958984375,0.07421875,-0.14501953125,-0.4198473282442748,0.13740458015267176,-1.3893129770992367
1.25,-0.90771484375,0.077880859375,-0.14697265625,-0.6183206106870229,-0.03816793893129771,-1.3129770992366412
1.26,-0.915283203125,0.0625,-0.140869140625,-0.26717557251908397,-0.10687022900763359,-1.5038167938931297
1.27,-0.9111328125,0.093017578125,-0.154296875,-0.37404580152671757,-0.3816793893129771,-1.3206106870229009
1.28,-0.913818359375,0.078369140625,-0.1533203125,-0.5038167938931297,-0.08396946564885496,-1.4427480916030535
1.29,-0.911865234375,0.077392578125,-0.1474609375,-0.4351145038167939,-0.06870229007633588,-1.3969465648854962
1.3,-0.913330078125,0.075439453125,-0.139404296875,-0.4122137404580153,0.0916030534351145,-1.3282442748091603
1.31,-0.912353515625,0.08056640625,-0.142822265625,-0.3282442748091603,0.19083969465648856,-1.4045801526717556
1.32,-0.91455078125,0.075439453125,-0.138427734375,-0.5114503816793893,-0.22900763358778625,-1.366412213740458
1.33,-0.91357421875,0.0625,-0.135986328125,-0.4580152671755725,-0.19083969465648856,-1.3435114503816794
1.34,-0.915283203125,0.0751953125,-0.13330078125,-0.3816793893129771,-0.2900763358778626,-1.534351145038168
1.35,-0.9111328125,0.08349609375,-0.13916015625,-0.3969465648854962,-0.061068702290076333,-1.2900763358778626
1.36,-0.907470703125,0.0791015625,-0.13818359375,-0.19083969465648856,0.06870229007633588,-1.4580152671755726
1.37,-0.9072265625,0.076416015625,-0.140625,-0.3053435114503817,0.061068702290076333,-1.282442748091603
1.38,-0.91357421875,0.09130859375,-0.142578125,-0.366412213740458,1.9083969465648856,-1.3893129770992367
1.39,-0.910888671875,0.06591796875,-0.13037109375,-0.3511450381679389,0.05343511450381679,-1.4809160305343512
1.4,-0.910888671875,0.06396484375,-0.137939453125,-0.37404580152671757,-0.11450381679389313,-1.549618320610687
1.41,-0.914794921875,0.079833984375,-0.138671875,-0.46564885496183206,-0.16030534351145037,-1.2671755725190839
1.42,-0.909912109375,0.0732421875,-0.145263671875,-0.5267175572519084,-0.183206106870229,-1.534351145038168
1.43,-0.908203125,0.075439453125,-0.1416015625,-0.25190839694656486,-0.13740458015267176,-1.3129770992366412
1.44,-0.9169921875,0.0771484375,-0.140625,-0.5954198473282443,0.06870229007633588,-1.2442748091603053
1.45,-0.91552734375,0.089111328125,-0.146240234375,-0.40458015267175573,0.20610687022900764,-1.4198473282442747
1.46,-0.91650390625,0.07763671875,-0.1357421875,-0.4351145038167939,0.022900763358778626,-1.4885496183206106
1.47,-0.91259765625,0.075927734375,-0.129150390625,-0.366412213740458,0.0,-1.4961832061068703
1.48,-0.90869140625,0.074951171875,-0.132080078125,-0.46564885496183206,-0.22137404580152673,-1.5114503816793894
1.49,-0.9130859375,0.07470703125,-0.14013671875,-0.5801526717557252,0.05343511450381679,-1.5648854961832062
1.5,-0.909423828125,0.078125,-0.140625,-0.31297709923664124,0.26717557251908397,-1.3435114503816794
1.51,-0.91650390625,0.084716796875,-0.1474609375,-0.4122137404580153,-0.0916030534351145,-1.3587786259541985
1.52,-0.912353515625,0.078369140625,-0.147216796875,-0.3893129770992366,-0.19083969465648856,-1.549618320610687
1.53,-0.91162109375,0.0625,-0.128662109375,-0.3893129770992366,-0.44274809160305345,-1.5725190839694656
1.54,-0.913818359375,0.082763671875,-0.139404296875,-0.3969465648854962,-0.2595419847328244,-1.366412213740458
1.55,-0.910888671875,0.074951171875,-0.140625,-0.44274809160305345,1.8931297709923665,-1.3969465648854962
1.56,-0.909423828125,0.075927734375,-0.135986328125,-0.4580152671755725,-0.03816793893129771,-1.2900763358778626
1.57,-0.913818359375,0.07861328125,-0.138671875,-0.5038167938931297,0.0916030534351145,-1.4809160305343512
1.58,-0.92138671875,0.080810546875,-0.141357421875,-0.29770992366412213,-0.11450381679389313,-1.3587786259541985
1.59,-0.9140625,0.079833984375,-0.14697265625,-0.5419847328244275,-0.2900763358778626,-1.465648854961832
1.6,-0.9091796875,0.0771484375,-0.128662109375,-0.4198473282442748,-0.4122137404580153,-1.4427480916030535
1.61,-0.912353515625,0.0927734375,-0.129638671875,-0.29770992366412213,-0.2824427480916031,-1.5114503816793894
1.62,-0.913330078125,0.075439453125,-0.141357421875,-0.3053435114503817,-0.007633587786259542,-1.4274809160305344
1.63,-0.907958984375,0.077880859375,-0.139892578125,-0.40458015267175573,-0.13740458015267176,-1.3282442748091603
1.64,-0.90966796875,0.07958984375,-0.140625,-0.366412213740458,1.916030534351145,-1.3587786259541985
1.65,-0.915771484375,0.084716796875,-0.13623046875,-0.4198473282442748,-0.07633587786259542,-1.4198473282442747
1.66,-0.914794921875,0.0927734375,-0.137939453125,-0.5114503816793893,-0.05343511450381679,-1.3587786259541985
1.67,-0.90673828125,0.08251953125,-0.126953125,-0.40458015267175573,-0.07633587786259542,-1.4961832061068703
1.68,-0.910400390625,0.0810546875,-0.154541015625,-0.5114503816793893,-0.2366412213740458,-1.4351145038167938
1.69,-0.910400390625,0.07373046875,-0.13818359375,-0.5648854961832062,1.8625954198473282,-1.2442748091603053
1.7,-0.911865234375,0.077880859375,-0.145751953125,-0.48854961832061067,-0.11450381679389313,-1.4961832061068703
1.71,-0.91845703125,0.078125,-0.13671875,-0.549618320610687,-0.07633587786259542,-1.3435114503816794
1.72,-0.9140625,0.084716796875,-0.1328125,-0.26717557251908397,0.16793893129770993,-1.4274809160305344
1.73,-0.90771484375,0.071533203125,-0.1455078125,-0.22900763358778625,-0.04580152671755725,-1.465648854961832
1.74,-0.912109375,0.064697265625,-0.1474609375,-0.4732824427480916,-1.8091603053435115,-1.534351145038168
1.75,-0.90625,0.092529296875,-0.135009765625,-0.2366412213740458,-0.2366412213740458,-1.282442748091603
1.76,-0.90869140625,0.08447265625,-0.137939453125,-0.35877862595419846,-0.3282442748091603,-1.3969465648854962
1.77,-0.913818359375,0.085693359375,-0.139892578125,-0.40458015267175573,0.09923664122137404,-1.3435114503816794
1.78,-0.9091796875,0.075439453125,-0.1357421875,-0.549618320610687,-0.31297709923664124,-1.3740458015267176
1.79,-0.913330078125,0.074951171875,-0.142822265625,-0.48091603053435117,-0.0916030534351145,-1.5954198473282444
1.8,-0.9169921875,0.08056640625,-0.13134765625,-0.3893129770992366,-0.3053435114503817,-1.2748091603053435
1.81,-0.915283203125,0.085205078125,-0.133544921875,-0.4122137404580153,0.022900763358778626,-1.3206106870229009
1.82,-0.903564453125,0.0751953125,-0.146484375,-0.5038167938931297,1.9312977099236641,-1.4809160305343512
1.83,-0.917724609375,0.080078125,-0.146484375,-0.3435114503816794,-0.0916030534351145,-1.4274809160305344
1.84,-0.913818359375,0.080322265625,-0.137939453125,-0.3435114503816794,-0.03816793893129771,-1.4351145038167938
1.85,-0.91455078125,0.078857421875,-0.14111328125,-0.48091603053435117,-0.24427480916030533,-1.3969465648854962
1.86,-0.917236328125,0.080322265625,-0.144287109375,-0.31297709923664124,0.04580152671755725,-1.2366412213740459
1.87,-0.906494140625,0.08984375,-0.134521484375,-0.7633587786259542,-0.007633587786259542,-1.4885496183206106
1.88,-0.9130859375,0.080810546875,-0.141357421875,-0.2595419847328244,-0.04580152671755725,-1.3969465648854962
1.89,-0.913818359375,0.075439453125,-0.155029296875,-0.37404580152671757,0.030534351145038167,-1.3587786259541985
1.9,-0.914306640625,0.083740234375,-0.14208984375,-0.42748091603053434,-0.3435114503816794,-1.4580152671755726
1.91,-0.913818359375,0.073974609375,-0.15087890625,-0.4961832061068702,-0.2824427480916031,-1.381679389312977
1.92,-0.907470703125,0.074462890625,-0.13232421875,-0.3893129770992366,-0.09923664122137404,-1.4427480916030535
1.93,-0.909423828125,0.08203125,-0.141357421875,-0.48091603053435117,0.03816793893129771,-1.3053435114503817
1.94,-0.915771484375,0.077880859375,-0.146484375,-0.6030534351145038,0.25190839694656486,-1.251908396946565
1.95,-0.9072265625,0.083740234375,-0.14453125,-0.5725190839694656,-0.11450381679389313,-1.3893129770992367
1.96,-0.916015625,0.08154296875,-0.15185546875,-0.6183206106870229,-0.26717557251908397,-1.4351145038167938
1.97,-0.91455078125,0.08447265625,-0.1357421875,-0.42748091603053434,-0.22900763358778625,-1.3740458015267176
1.98,-0.912109375,0.0732421875,-0.144775390625,-0.48854961832061067,1.9465648854961832,-1.3282442748091603
1.99,-0.91162109375,0.08154296875,-0.1416015625,-0.25190839694656486,0.04580152671755725,-1.4122137404580153
2.0,-0.919921875,0.079345703125,-0.138671875,-0.42748091603053434,0.21374045801526717,-1.4274809160305344
2.01,-0.911865234375,0.073974609375,-0.14306640625,-0.48091603053435117,-0.10687022900763359,-1.381679389312977
2.02,-0.907958984375,0.079833984375,-0.144287109375,-0.35877862595419846,-0.15267175572519084,-1.4274809160305344
2.03,-0.916259765625,0.076904296875,-0.134765625,-0.44274809160305345,-0.20610687022900764,-1.2900763358778626
2.04,-0.90771484375,0.080078125,-0.140380859375,-0.7480916030534351,-0.22900763358778625,-1.4580152671755726
2.05,-0.918212890625,0.075439453125,-0.1435546875,-0.31297709923664124,-0.19083969465648856,-1.2595419847328244
2.06,-0.90966796875,0.070068359375,-0.14306640625,-0.3969465648854962,0.05343511450381679,-1.3206106870229009
2.07,-0.9169921875,0.070068359375,-0.142333984375,-0.4351145038167939,-0.030534351145038167,-1.3740458015267176
2.08,-0.907470703125,0.065673828125,-0.144287109375,-0.37404580152671757,0.015267175572519083,-1.3129770992366412
2.09,-0.92041015625,0.06494140625,-0.13037109375,-0.5801526717557252,0.06870229007633588,-1.366412213740458
2.1,-0.9150390625,0.076171875,-0.142333984375,-0.4961832061068702,-0.25190839694656486,-1.4885496183206106
2.11,-0.907958984375,0.08203125,-0.13525390625,-0.45038167938931295,-0.13740458015267176,-1.4885496183206106
2.12,-0.908935546875,0.07861328125,-0.13134765625,-0.366412213740458,0.0,-1.4427480916030535
2.13,-0.918701171875,0.07666015625,-0.1396484375,-0.5419847328244275,-0.10687022900763359,-1.5725190839694656
2.14,-0.916748046875,0.080810546875,-0.150634765625,-0.12213740458015267,-0.21374045801526717,-1.3358778625954197
2.15,-0.911865234375,0.0810546875,-0.154541015625,-0.4961832061068702,0.07633587786259542,-1.4427480916030535
2.16,-0.9091796875,0.066162109375,-0.140625,-0.32061068702290074,0.1450381679389313,-1.3435114503816794
2.17,-0.91259765625,0.078125,-0.138671875,-0.3511450381679389,-0.2748091603053435,-1.3893129770992367
2.18,-0.91552734375,0.07763671875,-0.134765625,-0.366412213740458,-0.22137404580152673,-1.1908396946564885
2.19,-0.91015625,0.078369140625,-0.14453125,-0.4732824427480916,-0.16793893129770993,-1.465648854961832
2.2,-0.913818359375,0.0771484375,-0.13427734375,-0.3053435114503817,-0.3053435114503817,-1.4274809160305344
2.21,-0.894287109375,0.09033203125,-0.1298828125,-0.5954198473282443,-0.21374045801526717,-1.5114503816793894
2.22,-0.913818359375,0.0791015625,-0.140869140625,-0.4198473282442748,-0.12213740458015267,-1.465648854961832
2.23,-0.91455078125,0.0751953125,-0.135986328125,-0.6183206106870229,0.11450381679389313,-1.366412213740458
2.24,-0.9140625,0.078369140625,-0.140869140625,-0.48091603053435117,0.21374045801526717,-1.6030534351145038
2.25,-0.9091796875,0.07958984375,-0.14453125,-0.2900763358778626,0.05343511450381679,-1.5114503816793894
2.26,-0.910888671875,0.080322265625,-0.15087890625,-0.25190839694656486,0.0916030534351145,-1.3282442748091603
2.27,-0.890869140625,0.0732421875,-0.14111328125,-0.3435114503816794,-0.2366412213740458,-1.381679389312977
2.28,-0.90966796875,0.0927734375,-0.14111328125,-0.46564885496183206,-0.19083969465648856,-1.5190839694656488
2.29,-0.915771484375,0.069580078125,-0.1435546875,-0.3816793893129771,-0.0916030534351145,-1.3129770992366412
2.3,-0.916259765625,0.075439453125,-0.128173828125,-0.5419847328244275,1.9236641221374047,-1.297709923664122
2.31,-0.91455078125,0.078125,-0.126220703125,-0.3816793893129771,0.10687022900763359,-1.366412213740458
2.32,-0.91455078125,0.07958984375,-0.143798828125,-0.6564885496183206,0.2900763358778626,-1.4351145038167938
2.33,-0.91455078125,0.07958984375,-0.140625,-0.3282442748091603,0.07633587786259542,-1.549618320610687
2.34,-0.912353515625,0.08203125,-0.145263671875,-0.29770992366412213,-0.2748091603053435,-1.4045801526717556
2.35,-0.9111328125,0.080078125,-0.13818359375,-0.6183206106870229,-0.007633587786259542,-1.3206106870229009
2.36,-0.907958984375,0.091552734375,-0.1376953125,-0.4198473282442748,-0.24427480916030533,-1.4961832061068703
2.37,-0.9130859375,0.078857421875,-0.138671875,-0.2824427480916031,0.030534351145038167,-1.3282442748091603
2.38,-0.91162109375,0.07763671875,-0.15380859375,-0.3969465648854962,-0.061068702290076333,-1.3969465648854962
2.39,-0.912109375,0.071533203125,-0.13671875,-0.3511450381679389,0.061068702290076333,-1.381679389312977
2.4,-0.90966796875,0.07666015625,-0.1474609375,-0.3511450381679389,-0.10687022900763359,-1.3893129770992367
2.41,-0.896484375,0.080322265625,-0.140869140625,-0.549618320610687,-0.17557251908396945,-1.381679389312977
2.42,-0.90673828125,0.084716796875,-0.131591796875,-0.4351145038167939,-0.17557251908396945,-1.4351145038167938
2.43,-0.9169921875,0.0625,-0.13671875,-0.40458015267175573,-0.04580152671755725,-1.3893129770992367
2.44,-0.917724609375,0.09228515625,-0.136474609375,-0.3969465648854962,0.015267175572519083,-1.2061068702290076
2.45,-0.911376953125,0.080322265625,-0.127197265625,-0.3969465648854962,0.20610687022900764,-1.2748091603053435
2.46,-0.91796875,0.076904296875,-0.142822265625,-0.3969465648854962,0.20610687022900764,-1.3435114503816794
2.47,-0.9130859375,0.079345703125,-0.143310546875,-0.2595419847328244,-1.9312977099236641,-1.4198473282442747
2.48,-0.911376953125,0.07958984375,-0.145751953125,-0.35877862595419846,-0.32061068702290074,-1.450381679389313
2.49,-0.913818359375,0.076904296875,-0.139892578125,-0.40458015267175573,-0.3969465648854962,-1.381679389312977
2.5,-0.912353515625,0.077880859375,-0.151611328125,-0.5267175572519084,-0.3282442748091603,-1.4045801526717556
2.51,-0.9072265625,0.09033203125,-0.126220703125,-0.46564885496183206,-0.061068702290076333,-1.4274809160305344
2.52,-0.91259765625,0.07666015625,-0.149658203125,-0.21374045801526717,0.22137404580152673,-1.1984732824427482
2.53,-0.911865234375,0.080322265625,-0.147705078125,-0.5114503816793893,0.29770992366412213,-1.282442748091603
2.54,-0.909912109375,0.073974609375,-0.146728515625,-0.40458015267175573,0.007633587786259542,-1.4580152671755726
2.55,-0.90869140625,0.078369140625,-0.145263671875,-0.5267175572519084,-0.16030534351145037,-1.5801526717557253
2.56,-0.908447265625,0.077880859375,-0.1396484375,-0.26717557251908397,-0.48854961832061067,-1.534351145038168
2.57,-0.915283203125,0.076416015625,-0.14111328125,-0.48854961832061067,-0.5267175572519084,-1.3358778625954197
2.58,-0.90966796875,0.08154296875,-0.137939453125,-0.3893129770992366,-0.11450381679389313,-1.4961832061068703
2.59,-0.914306640625,0.079833984375,-0.1494140625,-0.3435114503816794,0.11450381679389313,-1.4274809160305344
2.6,-0.90869140625,0.080322265625,-0.13916015625,-0.32061068702290074,0.40458015267175573,-1.4122137404580153
2.61,-0.91015625,0.077392578125,-0.139892578125,-0.3282442748091603,0.3053435114503817,-1.450381679389313
2.62,-0.916015625,0.07470703125,-0.144775390625,-0.3816793893129771,0.061068702290076333,-1.4580152671755726
2.63,-0.909423828125,0.076416015625,-0.15087890625,-0.5343511450381679,-0.4961832061068702,-1.4427480916030535
2.64,-0.910400390625,0.0654296875,-0.145751953125,-0.4961832061068702,-0.4732824427480916,-1.6259541984732824
2.65,-0.908935546875,0.09228515625,-0.14453125,-0.6030534351145038,-0.37404580152671757,-1.2595419847328244
2.66,-0.91455078125,0.080810546875,-0.1357421875,-0.5267175572519084,-0.0916030534351145,-1.5114503816793894
2.67,-0.915283203125,0.082763671875,-0.143310546875,-0.26717557251908397,0.2366412213740458,-1.4885496183206106
2.68,-0.913330078125,0.07958984375,-0.14013671875,-0.5038167938931297,0.22900763358778625,-1.3282442748091603
2.69,-0.9150390625,0.0771484375,-0.139892578125,-0.4580152671755725,1.916030534351145,-1.3511450381679388
2.7,-0.912841796875,0.080810546875,-0.137939453125,-0.1984732824427481,-0.17557251908396945,-1.4809160305343512
2.71,-0.911376953125,0.082275390625,-0.12890625,-0.3816793893129771,-0.07633587786259542,-1.3511450381679388
2.72,-0.909912109375,0.075439453125,-0.139404296875,-0.3969465648854962,-0.1450381679389313,-1.3206106870229009
2.73,-0.909423828125,0.07373046875,-0.138916015625,-0.5038167938931297,-0.04580152671755725,-1.3587786259541985
2.74,-0.9169921875,0.077392578125,-0.139404296875,-0.2900763358778626,0.16793893129770993,-1.3206106870229009
2.75,-0.916259765625,0.072265625,-0.145263671875,-0.2366412213740458,0.030534351145038167,-1.4045801526717556
2.76,-0.90673828125,0.07861328125,-0.141845703125,-0.48091603053435117,-0.05343511450381679,-1.618320610687023
2.77,-0.911865234375,0.063720703125,-0.125732421875,-0.4580152671755725,-0.08396946564885496,-1.4274809160305344
2.78,-0.910888671875,0.06640625,-0.154541015625,-0.25190839694656486,-0.11450381679389313,-1.4198473282442747
2.79,-0.9111328125,0.077392578125,-0.137451171875,-0.37404580152671757,-0.648854961832061,-1.5038167938931297
2.8,-0.91162109375,0.082275390625,-0.14501953125,-0.5343511450381679,-0.2366412213740458,-1.4961832061068703
2.81,-0.918212890625,0.083984375,-0.130615234375,-0.35877862595419846,0.1450381679389313,-1.2900763358778626
2.82,-0.916748046875,0.0771484375,-0.140625,-0.20610687022900764,0.12213740458015267,-1.465648854961832
2.83,-0.906005859375,0.081298828125,-0.140625,-0.48091603053435117,0.03816793893129771,-1.3893129770992367
2.84,-0.917724609375,0.074951171875,-0.128173828125,-0.3511450381679389,0.12213740458015267,-1.2366412213740459
2.85,-0.90771484375,0.064208984375,-0.117919921875,-0.35877862595419846,-0.11450381679389313,-1.5648854961832062
2.86,-0.905517578125,0.081787109375,-0.125244140625,-0.183206106870229,1.8778625954198473,-1.5877862595419847
2.87,-0.911865234375,0.079833984375,-0.1435546875,-0.2366412213740458,-0.06870229007633588,-1.4885496183206106
2.88,-0.9072265625,0.077880859375,-0.139892578125,-0.3282442748091603,-0.09923664122137404,-1.3740458015267176
2.89,-0.914306640625,0.0751953125,-0.13427734375,-0.366412213740458,-0.16793893129770993,-1.3435114503816794
2.9,-0.915771484375,0.080322265625,-0.142578125,-0.48091603053435117,-0.04580152671755725,-1.3969465648854962
2.91,-0.91455078125,0.07861328125,-0.12548828125,-0.549618320610687,-0.0916030534351145,-1.381679389312977
2.92,-0.90771484375,0.076416015625,-0.145263671875,-0.6259541984732825,-0.061068702290076333,-1.4885496183206106
2.93,-0.915283203125,0.078857421875,-0.140380859375,-0.3435114503816794,-0.09923664122137404,-1.2900763358778626
2.94,-0.910888671875,0.08203125,-0.139404296875,-0.3893129770992366,-0.2366412213740458,-1.2900763358778626
2.95,-0.909912109375,0.076904296875,-0.14404296875,-0.4961832061068702,-0.11450381679389313,-1.4961832061068703
2.96,-0.911865234375,0.079833984375,-0.14013671875,-0.40458015267175573,0.007633587786259542,-1.4122137404580153
2.97,-0.9130859375,0.06494140625,-0.142822265625,-0.5954198473282443,0.31297709923664124,-1.3587786259541985
2.98,-0.913330078125,0.078369140625,-0.135009765625,-0.648854961832061,0.1450381679389313,-1.2671755725190839
2.99,-0.905029296875,0.06396484375,-0.147216796875,-0.48854961832061067,-0.10687022900763359,-1.2213740458015268
3.0,-0.91162109375,0.079345703125,-0.13037109375,-0.5343511450381679,-0.24427480916030533,-1.3358778625954197
3.01,-0.912841796875,0.075927734375,-0.13525390625,-0.40458015267175573,1.9312977099236641,-1.3969465648854962
3.02,-0.90478515625,0.080810546875,-0.140380859375,-0.5267175572519084,-0.09923664122137404,-1.3740458015267176
3.03,-0.910400390625,0.074951171875,-0.136962890625,-0.4351145038167939,0.07633587786259542,-1.4885496183206106
3.04,-0.913818359375,0.063720703125,-0.135498046875,-0.32061068702290074,-0.04580152671755725,-1.5190839694656488
3.05,-0.910400390625,0.08154296875,-0.12841796875,-0.22137404580152673,-0.183206106870229,-1.3587786259541985
3.06,-0.91162109375,0.065185546875,-0.1279296875,-0.3969465648854962,-0.2824427480916031,-1.6412213740458015
3.07,-0.9140625,0.07568359375,-0.15185546875,-0.5114503816793893,1.9389312977099236,-1.3740458015267176
3.08,-0.913330078125,0.077880859375,-0.1484375,-0.2366412213740458,-0.12213740458015267,-1.3053435114503817
3.09,-0.907470703125,0.085205078125,-0.13818359375,-0.46564885496183206,-0.04580152671755725,-1.5267175572519085
3.1,-0.89892578125,0.07373046875,-0.143310546875,-0.3511450381679389,0.015267175572519083,-1.381679389312977
3.11,-0.915771484375,0.08349609375,-0.142822265625,-0.5954198473282443,-0.03816793893129771,-1.251908396946565
3.12,-0.89599609375,0.07275390625,-0.135498046875,-0.5648854961832062,0.11450381679389313,-1.5267175572519085
3.13,-0.911865234375,0.092041015625,-0.140625,-0.33587786259541985,-0.19083969465648856,-1.4427480916030535
3.14,-0.913330078125,0.08203125,-0.150146484375,-0.4198473282442748,-0.12213740458015267,-1.1908396946564885
3.15,-0.910888671875,0.0771484375,-0.14208984375,-0.3511450381679389,0.07633587786259542,-1.4427480916030535
3.16,-0.9130859375,0.07861328125,-0.130126953125,-0.6183206106870229,1.9389312977099236,-1.4732824427480915
3.17,-0.91455078125,0.080810546875,-0.137939453125,-0.2900763358778626,0.07633587786259542,-1.5877862595419847
3.18,-0.9130859375,0.0859375,-0.145751953125,-0.3511450381679389,-0.183206106870229,-1.633587786259542
3.19,-0.912109375,0.07763671875,-0.154541015625,-0.3435114503816794,-0.10687022900763359,-1.4198473282442747
3.2,-0.9150390625,0.092041015625,-0.13623046875,-0.5725190839694656,-0.24427480916030533,-1.381679389312977
3.21,-0.90625,0.083740234375,-0.127197265625,-0.5190839694656488,-0.06870229007633588,-1.4351145038167938
3.22,-0.9091796875,0.08251953125,-0.149658203125,-0.32061068702290074,-0.0916030534351145,-1.4045801526717556
3.23,-0.913330078125,0.07763671875,-0.13720703125,-0.31297709923664124,-0.015267175572519083,-1.2366412213740459
3.24,-0.918701171875,0.084716796875,-0.13720703125,-0.33587786259541985,-0.183206106870229,-1.4427480916030535
3.25,-0.91259765625,0.09326171875,-0.138671875,-0.2824427480916031,-0.13740458015267176,-1.4961832061068703
3.26,-0.90673828125,0.082275390625,-0.146484375,-0.11450381679389313,-0.08396946564885496,-1.213740458015267
3.27,-0.90283203125,0.0634765625,-0.146728515625,-0.3816793893129771,-0.13740458015267176,-1.4732824427480915
3.28,-0.9150390625,0.07763671875,-0.13671875,-0.35877862595419846,-0.08396946564885496,-1.381679389312977
3.29,-0.913818359375,0.07763671875,-0.13818359375,-0.33587786259541985,0.05343511450381679,-1.5190839694656488
3.3,-0.909912109375,0.082763671875,-0.145751953125,-0.29770992366412213,-0.19083969465648856,-1.2061068702290076
3.31,-0.8955078125,0.078857421875,-0.141845703125,-0.5877862595419847,-0.16030534351145037,-1.5725190839694656
3.32,-0.912109375,0.093017578125,-0.138916015625,-0.42748091603053434,-0.16030534351145037,-1.4045801526717556
3.33,-0.919189453125,0.08544921875,-0.1337890625,-0.5267175572519084,-0.030534351145038167,-1.3969465648854962
3.34,-0.913330078125,0.08154296875,-0.1455078125,-0.29770992366412213,0.2366412213740458,-1.3587786259541985
3.35,-0.914794921875,0.077880859375,-0.129150390625,-0.5267175572519084,0.03816793893129771,-1.4274809160305344
3.36,-0.910400390625,0.082275390625,-0.14013671875,-0.4198473282442748,-1.8854961832061068,-1.534351145038168
3.37,-0.90771484375,0.084716796875,-0.13134765625,-0.32061068702290074,-1.8931297709923665,-1.5419847328244274
3.38,-0.908447265625,0.07958984375,-0.134521484375,-0.42748091603053434,-0.35877862595419846,-1.3587786259541985
3.39,-0.8916015625,0.075439453125,-0.15234375,-0.5648854961832062,-0.16793893129770993,-1.5877862595419847
3.4,-0.91552734375,0.0908203125,-0.154052734375,-0.5648854961832062,-0.17557251908396945,-1.465648854961832
3.41,-0.916748046875,0.07763671875,-0.14208984375,-0.3969465648854962,-0.1297709923664122,-1.2748091603053435
3.42,-0.90966796875,0.07373046875,-0.142333984375,-0.3511450381679389,-0.15267175572519084,-1.3740458015267176
3.43,-0.90673828125,0.08154296875,-0.140380859375,-0.20610687022900764,-0.13740458015267176,-1.3740458015267176
3.44,-0.91455078125,0.077880859375,-0.14111328125,-0.2366412213740458,-0.25190839694656486,-1.366412213740458
3.45,-0.916259765625,0.08251953125,-0.136962890625,-0.5419847328244275,-1.9541984732824427,-1.4427480916030535
3.46,-0.913330078125,0.077880859375,-0.146484375,-0.732824427480916,0.08396946564885496,-1.4961832061068703
3.47,-0.91015625,0.077880859375,-0.142578125,-0.45038167938931295,0.08396946564885496,-1.3969465648854962
3.48,-0.907470703125,0.08056640625,-0.125244140625,-0.44274809160305345,0.183206106870229,-1.4045801526717556
3.49,-0.916259765625,0.079833984375,-0.146240234375,-0.3282442748091603,-0.15267175572519084,-1.3740458015267176
3.5,-0.91015625,0.078857421875,-0.133544921875,-0.6106870229007634,-0.16793893129770993,-1.4045801526717556
3.51,-0.892822265625,0.079833984375,-0.131591796875,-0.31297709923664124,-0.35877862595419846,-1.6564885496183206
3.52,-0.912109375,0.073486328125,-0.13671875,-0.3893129770992366,-0.022900763358778626,-1.3435114503816794
3.53,-0.895263671875,0.080810546875,-0.138671875,-0.3893129770992366,0.3969465648854962,-1.3511450381679388
3.54,-0.915771484375,0.081298828125,-0.142333984375,-0.2900763358778626,0.24427480916030533,-1.5038167938931297
3.55,-0.912353515625,0.08154296875,-0.138671875,-0.5801526717557252,-0.2824427480916031,-1.5267175572519085
3.56,-0.913818359375,0.08251953125,-0.14013671875,-0.6335877862595419,-0.6793893129770993,-1.4427480916030535
3.57,-0.91357421875,0.076171875,-0.147705078125,-0.45038167938931295,-0.3053435114503817,-1.4274809160305344
3.58,-0.915771484375,0.086669921875,-0.135009765625,-0.3282442748091603,-1.916030534351145,-1.4351145038167938
3.59,-0.908447265625,0.08203125,-0.138427734375,-0.2748091603053435,0.12213740458015267,-1.5419847328244274
3.6,-0.916259765625,0.080810546875,-0.13330078125,-0.3053435114503817,0.04580152671755725,-1.366412213740458
3.61,-0.9111328125,0.080322265625,-0.126220703125,-0.40458015267175573,0.06870229007633588,-1.3435114503816794
3.62,-0.914306640625,0.087646484375,-0.129150390625,-0.4961832061068702,-0.3053435114503817,-1.5801526717557253
3.63,-0.892822265625,0.099609375,-0.134521484375,-0.030534351145038167,-0.12213740458015267,-1.2213740458015268
3.64,-0.90576171875,0.084716796875,-0.14404296875,-0.2824427480916031,-0.2824427480916031,-1.4809160305343512
3.65,-0.907470703125,0.080322265625,-0.143310546875,-0.5343511450381679,-0.3282442748091603,-1.5419847328244274
3.66,-0.912109375,0.07763671875,-0.131103515625,-0.5267175572519084,-0.183206106870229,-1.3893129770992367
3.67,-0.911865234375,0.073974609375,-0.133056640625,-0.3511450381679389,0.07633587786259542,-1.3511450381679388
3.68,-0.90576171875,0.080322265625,-0.12548828125,-0.35877862595419846,0.549618320610687,-1.381679389312977
3.69,-0.90966796875,0.077392578125,-0.144775390625,-0.46564885496183206,0.5190839694656488,-1.4580152671755726
3.7,-0.914306640625,0.077392578125,-0.15185546875,-0.7175572519083969,-0.26717557251908397,-1.4351145038167938
3.71,-0.90771484375,0.08154296875,-0.144287109375,-0.5572519083969466,-1.1526717557251909,-1.3435114503816794
3.72,-0.910400390625,0.092529296875,-0.1376953125,-0.29770992366412213,-0.816793893129771,-1.4274809160305344
3.73,-0.9091796875,0.07470703125,-0.1474609375,-0.2366412213740458,0.32061068702290074,-1.2442748091603053
3.74,-0.906005859375,0.063720703125,-0.152587890625,-0.26717557251908397,1.251908396946565,-1.3358778625954197
3.75,-0.904541015625,0.078369140625,-0.128173828125,-0.48091603053435117,0.7175572519083969,-1.2290076335877862
3.76,-0.91455078125,0.0810546875,-0.156494140625,-0.5038167938931297,-0.33587786259541985,-1.3206106870229009
3.77,-0.91015625,0.07568359375,-0.13720703125,-0.3435114503816794,-1.1221374045801527,-1.4961832061068703
3.78,-0.909423828125,0.07470703125,-0.136474609375,-0.4580152671755725,-0.7709923664122137,-1.3358778625954197
3.79,-0.910400390625,0.06298828125,-0.130859375,-0.3053435114503817,0.3282442748091603,-1.4961832061068703
3.8,-0.9130859375,0.076171875,-0.1484375,-0.3435114503816794,0.5648854961832062,-1.5648854961832062
3.81,-0.914794921875,0.0810546875,-0.13671875,-0.5038167938931297,0.44274809160305345,-1.3969465648854962
3.82,-0.912353515625,0.075439453125,-0.125244140625,-0.3511450381679389,0.007633587786259542,-1.3129770992366412
3.83,-0.9091796875,0.08544921875,-0.146484375,-0.37404580152671757,-0.061068702290076333,-1.465648854961832
3.84,-0.91064453125,0.08642578125,-0.142333984375,-0.366412213740458,-0.16793893129770993,-1.3358778625954197
3.85,-0.90966796875,0.0751953125,-0.138916015625,-0.45038167938931295,-0.366412213740458,-1.3893129770992367
3.86,-0.907958984375,0.07763671875,-0.13525390625,-0.7022900763358778,-0.42748091603053434,-1.5572519083969465
3.87,-0.9111328125,0.063720703125,-0.13623046875,-0.3816793893129771,-0.16793893129770993,-1.465648854961832
3.88,-0.910888671875,0.063232421875,-0.131591796875,-0.13740458015267176,0.2900763358778626,-1.4809160305343512
3.89,-0.90478515625,0.08203125,-0.13916015625,-0.40458015267175573,0.40458015267175573,-1.5877862595419847
3.9,-0.906982421875,0.07861328125,-0.14453125,-0.5190839694656488,0.1984732824427481,-1.450381679389313
3.91,-0.91162109375,0.073486328125,-0.145263671875,-0.5572519083969466,-0.2595419847328244,-1.5877862595419847
3.92,-0.9189453125,0.08056640625,-0.138916015625,-0.4351145038167939,-0.5648854961832062,-1.5648854961832062
3.93,-0.912841796875,0.079345703125,-0.1435546875,-0.5267175572519084,-0.8015267175572519,-1.3206106870229009
3.94,-0.912109375,0.0810546875,-0.13916015625,-0.2824427480916031,-0.11450381679389313,-1.381679389312977
3.95,-0.913330078125,0.0927734375,-0.12890625,-0.24427480916030533,0.42748091603053434,-1.3129770992366412
3.96,-0.91015625,0.081787109375,-0.14501953125,-0.5343511450381679,0.4961832061068702,-1.3740458015267176
3.97,-0.91455078125,0.0732421875,-0.14697265625,-0.37404580152671757,0.022900763358778626,-1.381679389312977
3.98,-0.91015625,0.080322265625,-0.14404296875,-0.3969465648854962,-0.40458015267175573,-1.3282442748091603
3.99,-0.916015625,0.077880859375,-0.146484375,-0.32061068702290074,-0.4732824427480916,-1.183206106870229
4.0,-0.91455078125,0.079833984375,-0.13720703125,-0.15267175572519084,-0.42748091603053434,-1.4274809160305344
4.01,-0.92724609375,0.08447265625,-0.133544921875,-0.4732824427480916,-1.9541984732824427,-1.5114503816793894
4.02,-0.912841796875,0.08056640625,-0.142578125,-0.3053435114503817,0.22900763358778625,-1.4045801526717556
4.03,-0.916259765625,0.08349609375,-0.13427734375,-0.3511450381679389,0.2748091603053435,-1.4427480916030535
4.04,-0.909912109375,0.08349609375,-0.135986328125,-0.37404580152671757,0.21374045801526717,-1.4809160305343512
4.05,-0.9140625,0.076416015625,-0.14501953125,-0.37404580152671757,0.08396946564885496,-1.3511450381679388
4.06,-0.916259765625,0.077880859375,-0.145263671875,-0.2900763358778626,-0.07633587786259542,-1.4122137404580153
4.07,-0.90771484375,0.080810546875,-0.144287109375,-0.3893129770992366,-0.37404580152671757,-1.618320610687023
4.08,-0.915771484375,0.076171875,-0.156005859375,-0.3969465648854962,-0.48091603053435117,-1.4427480916030535
4.09,-0.9150390625,0.091064453125,-0.14013671875,-0.26717557251908397,-0.2824427480916031,-1.4580152671755726
4.1,-0.91796875,0.07373046875,-0.138671875,-0.19083969465648856,-1.9236641221374047,-1.4427480916030535
4.11,-0.909912109375,0.080322265625,-0.145263671875,-0.3969465648854962,0.366412213740458,-1.5038167938931297
4.12,-0.9111328125,0.07861328125,-0.138671875,-0.4580152671755725,0.26717557251908397,-1.3129770992366412
4.13,-0.913818359375,0.0791015625,-0.142333984375,-0.3893129770992366,0.1297709923664122,-1.534351145038168
4.14,-0.91455078125,0.07763671875,-0.138427734375,-0.22900763358778625,-0.32061068702290074,-1.3282442748091603
4.15,-0.91455078125,0.07958984375,-0.15087890625,-0.4351145038167939,-0.5877862595419847,-1.3587786259541985
4.16,-0.915283203125,0.082275390625,-0.135009765625,-0.46564885496183206,-0.2595419847328244,-1.465648854961832
4.17,-0.912109375,0.0830078125,-0.143798828125,-0.21374045801526717,0.12213740458015267,-1.2442748091603053
4.18,-0.9150390625,0.078369140625,-0.1376953125,-0.24427480916030533,0.3816793893129771,-1.4122137404580153
4.19,-0.91015625,0.08349609375,-0.133056640625,-0.5190839694656488,0.3969465648854962,-1.5801526717557253
4.2,-0.9111328125,0.076904296875,-0.147216796875,-0.31297709923664124,0.06870229007633588,-1.2748091603053435
4.21,-0.907470703125,0.068115234375,-0.1416015625,-0.4351145038167939,-0.31297709923664124,-1.4809160305343512
4.22,-0.91259765625,0.078369140625,-0.147216796875,-0.2748091603053435,-0.5038167938931297,-1.3740458015267176
4.23,-0.908203125,0.093505859375,-0.13525390625,-0.5954198473282443,-0.4122137404580153,-1.3969465648854962
4.24,-0.912353515625,0.0810546875,-0.146240234375,-0.4961832061068702,-0.09923664122137404,-1.4351145038167938
4.25,-0.90869140625,0.078369140625,-0.13427734375,-0.3969465648854962,0.2595419847328244,-1.4122137404580153
4.26,-0.909423828125,0.0830078125,-0.138671875,-0.32061068702290074,0.42748091603053434,-1.3358778625954197
4.27,-0.9091796875,0.07373046875,-0.14501953125,-0.44274809160305345,0.4198473282442748,-1.4198473282442747
4.28,-0.916015625,0.08154296875,-0.125244140625,-0.48091603053435117,0.061068702290076333,-1.4274809160305344
4.29,-0.908203125,0.081298828125,-0.147705078125,-0.4198473282442748,-0.1984732824427481,-1.4809160305343512
4.3,-0.912109375,0.08349609375,-0.14306640625,-0.1450381679389313,-0.2900763358778626,-1.2442748091603053
4.31,-0.910400390625,0.0791015625,-0.141357421875,-0.3282442748091603,-0.1297709923664122,-1.3969465648854962
4.32,-0.914794921875,0.081787109375,-0.141357421875,-0.16793893129770993,0.2824427480916031,-1.251908396946565
4.33,-0.9140625,0.07861328125,-0.142822265625,-0.42748091603053434,0.15267175572519084,-1.3740458015267176
4.34,-0.91455078125,0.0791015625,-0.143798828125,-0.37404580152671757,1.9312977099236641,-1.3435114503816794
4.35,-0.911376953125,0.07763671875,-0.15380859375,-0.2366412213740458,1.9389312977099236,-1.3206106870229009
4.36,-0.9091796875,0.085205078125,-0.1533203125,-0.2595419847328244,-0.3282442748091603,-1.4351145038167938
4.37,-0.90771484375,0.07763671875,-0.1376953125,-0.366412213740458,-0.12213740458015267,-1.4885496183206106
4.38,-0.91064453125,0.0830078125,-0.135009765625,-0.3969465648854962,0.16793893129770993,-1.5877862595419847
4.39,-0.912353515625,0.074951171875,-0.1416015625,-0.5267175572519084,0.15267175572519084,-1.4198473282442747
4.4,-0.9111328125,0.077880859375,-0.14453125,-0.48854961832061067,-0.16030534351145037,-1.5572519083969465
4.41,-0.916015625,0.063720703125,-0.13427734375,-0.40458015267175573,-0.6412213740458015,-1.5954198473282444
4.42,-0.910888671875,0.0927734375,-0.126953125,-0.48091603053435117,-0.4961832061068702,-1.5725190839694656
4.43,-0.91015625,0.07861328125,-0.137939453125,-0.42748091603053434,1.9465648854961832,-1.3435114503816794
4.44,-0.91015625,0.075439453125,-0.134033203125,-0.22900763358778625,0.3816793893129771,-1.3358778625954197
4.45,-0.910400390625,0.076416015625,-0.14208984375,-0.31297709923664124,0.5572519083969466,-1.2061068702290076
4.46,-0.91552734375,0.078369140625,-0.14697265625,-0.4732824427480916,0.0,-1.3969465648854962
4.47,-0.915283203125,0.078857421875,-0.153076171875,-0.46564885496183206,-0.48091603053435117,-1.4732824427480915
4.48,-0.91162109375,0.080810546875,-0.140380859375,-0.3053435114503817,-0.5877862595419847,-1.5114503816793894
4.49,-0.913818359375,0.07421875,-0.13232421875,-0.3969465648854962,-0.21374045801526717,-1.4427480916030535
4.5,-0.9111328125,0.0625,-0.152587890625,-0.4351145038167939,0.12213740458015267,-1.3282442748091603
4.51,-0.913330078125,0.080322265625,-0.152099609375,-0.3969465648854962,0.19083969465648856,-1.2442748091603053
4.52,-0.918212890625,0.072021484375,-0.137939453125,-0.3969465648854962,0.015267175572519083,-1.251908396946565
4.53,-0.9150390625,0.076904296875,-0.14013671875,-0.25190839694656486,1.9236641221374047,-1.4122137404580153
4.54,-0.908447265625,0.085693359375,-0.134765625,-0.5114503816793893,0.16030534351145037,-1.5648854961832062
4.55,-0.91015625,0.077880859375,-0.138671875,-0.42748091603053434,-1.9389312977099236,-1.4122137404580153
4.56,-0.91015625,0.092041015625,-0.156005859375,-0.17557251908396945,1.8473282442748091,-1.5267175572519085
4.57,-0.908447265625,0.091064453125,-0.130615234375,-0.40458015267175573,-0.1297709923664122,-1.4198473282442747
4.58,-0.913818359375,0.076171875,-0.137939453125,-0.5038167938931297,-0.061068702290076333,-1.5190839694656488
4.59,-0.91455078125,0.074951171875,-0.13671875,-0.4732824427480916,0.2366412213740458,-1.3587786259541985
4.6,-0.90576171875,0.0703125,-0.137451171875,-0.4122137404580153,0.15267175572519084,-1.4198473282442747
4.61,-0.909912109375,0.08203125,-0.14501953125,-0.5419847328244275,-0.20610687022900764,-1.4122137404580153
4.62,-0.90966796875,0.09326171875,-0.142578125,-0.4580152671755725,-0.7557251908396947,-1.4580152671755726
4.63,-0.916015625,0.07958984375,-0.147216796875,-0.3435114503816794,-0.4351145038167939,-1.465648854961832
4.64,-0.916259765625,0.08984375,-0.1357421875,-0.29770992366412213,-0.183206106870229,-1.2595419847328244
4.65,-0.917724609375,0.081787109375,-0.147216796875,-0.5038167938931297,0.5190839694656488,-1.2671755725190839
4.66,-0.912841796875,0.072509765625,-0.14111328125,-0.5419847328244275,0.45038167938931295,-1.3129770992366412
4.67,-0.907958984375,0.071533203125,-0.141357421875,-0.4351145038167939,-1.9312977099236641,-1.3435114503816794
4.68,-0.909912109375,0.081787109375,-0.14013671875,-0.09923664122137404,-0.7633587786259542,-1.5038167938931297
4.69,-0.912841796875,0.07861328125,-0.13916015625,-0.4580152671755725,-0.6870229007633588,-1.5877862595419847
4.7,-0.91162109375,0.07958984375,-0.12841796875,-0.29770992366412213,-0.19083969465648856,-1.2900763358778626
4.71,-0.910400390625,0.06298828125,-0.15576171875,-0.37404580152671757,0.183206106870229,-1.213740458015267
4.72,-0.909423828125,0.080810546875,-0.139404296875,-0.4732824427480916,0.5114503816793893,-1.5572519083969465
4.73,-0.914306640625,0.081298828125,-0.14794921875,-0.3893129770992366,-0.16030534351145037,-1.3358778625954197
4.74,-0.915283203125,0.0751953125,-0.143798828125,-0.45038167938931295,-0.7557251908396947,-1.4961832061068703
4.75,-0.912841796875,0.077880859375,-0.139404296875,-0.19083969465648856,-0.8244274809160306,-1.4580152671755726
4.76,-0.91015625,0.070556640625,-0.13671875,-0.3282442748091603,-0.40458015267175573,-1.2671755725190839
4.77,-0.89306640625,0.093017578125,-0.14990234375,-0.5343511450381679,-0.015267175572519083,-1.3282442748091603
4.78,-0.9130859375,0.082275390625,-0.14501953125,-0.46564885496183206,0.3282442748091603,-1.2213740458015268
4.79,-0.91357421875,0.079345703125,-0.1455078125,-0.3969465648854962,-0.15267175572519084,-1.5801526717557253
4.8,-0.91748046875,0.076171875,-0.140625,-0.4351145038167939,-0.4122137404580153,-1.5038167938931297
4.81,-0.9111328125,0.07470703125,-0.149169921875,-0.5267175572519084,-0.48854961832061067,-1.6412213740458015
4.82,-0.912353515625,0.080322265625,-0.14306640625,-0.46564885496183206,-0.549618320610687,-1.5038167938931297
4.83,-0.912353515625,0.0849609375,-0.141357421875,-0.4580152671755725,-0.03816793893129771,-1.3129770992366412
4.84,-0.91259765625,0.078369140625,-0.14404296875,-0.4732824427480916,0.37404580152671757,-1.3282442748091603
4.85,-0.91357421875,0.078125,-0.14404296875,-0.3816793893129771,0.09923664122137404,-1.251908396946565
4.86,-0.912841796875,0.078369140625,-0.1435546875,-0.48854961832061067,0.0,-1.2748091603053435
4.87,-0.91259765625,0.080322265625,-0.142333984375,-0.5419847328244275,-0.5190839694656488,-1.4198473282442747
4.88,-0.912109375,0.08154296875,-0.142333984375,-0.5343511450381679,-0.35877862595419846,-1.297709923664122
4.89,-0.909423828125,0.076904296875,-0.134765625,-0.33587786259541985,-0.2595419847328244,-1.3358778625954197
4.9,-0.910888671875,0.080078125,-0.142333984375,-0.21374045801526717,-1.9389312977099236,-1.5114503816793894
4.91,-0.9091796875,0.080322265625,-0.149658203125,-0.22137404580152673,-0.022900763358778626,-1.5190839694656488
4.92,-0.911865234375,0.063720703125,-0.128173828125,-0.4732824427480916,-0.0916030534351145,-1.3282442748091603
4.93,-0.912841796875,0.072998046875,-0.15380859375,-0.5343511450381679,-0.022900763358778626,-1.16793893129771
4.94,-0.91015625,0.085205078125,-0.138427734375,-0.4122137404580153,-0.015267175572519083,-1.5725190839694656
4.95,-0.9150390625,0.0751953125,-0.145263671875,-0.5190839694656488,-0.25190839694656486,-1.3435114503816794
4.96,-0.91162109375,0.079345703125,-0.132568359375,-0.31297709923664124,1.8854961832061068,-1.465648854961832
4.97,-0.920166015625,0.081298828125,-0.146240234375,-0.29770992366412213,-0.19083969465648856,-1.282442748091603
4.98,-0.92041015625,0.08349609375,-0.147705078125,-0.25190839694656486,-0.20610687022900764,-1.4274809160305344
4.99,-0.914794921875,0.068603515625,-0.13134765625,-0.2595419847328244,-0.3511450381679389,-1.297709923664122
5.0,-0.92431640625,0.0927734375,-0.148193359375,-0.3282442748091603,-0.183206106870229,-1.549618320610687
5.01,-0.91064453125,0.078369140625,-0.134765625,-0.3435114503816794,-0.15267175572519084,-1.4427480916030535
5.02,-0.917724609375,0.07861328125,-0.140869140625,-0.25190839694656486,-0.0916030534351145,-1.3893129770992367
5.03,-0.908447265625,0.076904296875,-0.137939453125,-0.42748091603053434,0.4198473282442748,-1.3206106870229009
5.04,-0.897705078125,0.065673828125,-0.14697265625,-0.44274809160305345,1.7709923664122138,-1.4274809160305344
5.05,-0.90576171875,0.06298828125,-0.1513671875,-0.6106870229007634,2.595419847328244,-1.4045801526717556
5.06,-0.91796875,0.063720703125,-0.15576171875,-0.5419847328244275,-1.5801526717557253,-1.465648854961832
5.07,-0.91357421875,0.083984375,-0.1328125,-0.4198473282442748,-4.885496183206107,-1.8015267175572518
5.08,-0.91748046875,0.079833984375,-0.131103515625,-0.0916030534351145,-3.6030534351145036,-1.5114503816793894
5.09,-0.904541015625,0.0830078125,-0.120361328125,-0.22900763358778625,0.3435114503816794,-1.2748091603053435
5.1,-0.9091796875,0.07666015625,-0.1416015625,-0.33587786259541985,5.9541984732824424,-1.083969465648855
5.11,-0.916748046875,0.07275390625,-0.156005859375,-0.4198473282442748,5.67175572519084,-1.4427480916030535
5.12,-0.9345703125,0.070556640625,-0.16552734375,-0.5267175572519084,-0.20610687022900764,-1.6793893129770991
5.13,-0.9140625,0.08447265625,-0.137939453125,-0.22137404580152673,-5.717557251908397,-1.5038167938931297
5.14,-0.9111328125,0.088134765625,-0.125,-0.6106870229007634,-2.931297709923664,-1.6259541984732824
5.15,-0.91162109375,0.08203125,-0.12841796875,-0.5877862595419847,1.3893129770992367,-1.3435114503816794
5.16,-0.911376953125,0.080810546875,-0.13720703125,-0.5572519083969466,3.7404580152671754,-1.183206106870229
5.17,-0.921875,0.068359375,-0.152099609375,-0.3435114503816794,1.7938931297709924,-1.2900763358778626
5.18,-0.912841796875,0.076171875,-0.14013671875,-0.32061068702290074,-1.1374045801526718,-1.5267175572519085
5.19,-0.91748046875,0.09033203125,-0.148193359375,-0.3969465648854962,-2.66412213740458,-1.6412213740458015
5.2,-0.90771484375,0.093505859375,-0.137451171875,-0.5190839694656488,-1.2442748091603053,-1.4809160305343512
5.21,-0.912109375,0.079345703125,-0.135498046875,-0.5343511450381679,0.44274809160305345,-1.4580152671755726
5.22,-0.9111328125,0.081298828125,-0.14599609375,-0.37404580152671757,0.7480916030534351,-1.4198473282442747
5.23,-0.914306640625,0.08056640625,-0.13818359375,-0.16793893129770993,0.1984732824427481,-1.2748091603053435
5.24,-0.913330078125,0.082763671875,-0.144287109375,-0.11450381679389313,0.13740458015267176,-1.4351145038167938
5.25,-0.9111328125,0.081298828125,-0.144287109375,-0.366412213740458,0.35877862595419846,-1.4122137404580153
5.26,-0.91162109375,0.075927734375,-0.128173828125,-0.46564885496183206,-0.10687022900763359,-1.3053435114503817
5.27,-0.91455078125,0.06982421875,-0.12744140625,-0.366412213740458,-1.0763358778625953,-1.5801526717557253
5.28,-0.9169921875,0.0732421875,-0.13134765625,-0.5801526717557252,-1.6488549618320612,-1.450381679389313
5.29,-0.90966796875,0.075439453125,-0.1357421875,-0.40458015267175573,-0.9083969465648855,-1.4427480916030535
5.3,-0.91162109375,0.078369140625,-0.13818359375,-0.3282442748091603,1.183206106870229,-1.366412213740458
5.31,-0.908935546875,0.09326171875,-0.138916015625,-0.44274809160305345,2.312977099236641,-1.2213740458015268
5.32,-0.909912109375,0.08154296875,-0.146240234375,-0.31297709923664124,1.0,-1.4274809160305344
5.33,-0.908203125,0.078369140625,-0.149169921875,-0.5343511450381679,-1.1450381679389312,-1.5190839694656488
5.34,-0.917724609375,0.08056640625,-0.154541015625,-0.5648854961832062,-2.6946564885496183,-1.3969465648854962
5.35,-0.918701171875,0.076904296875,-0.127685546875,-0.4732824427480916,-1.8702290076335877,-1.3358778625954197
5.36,-0.91845703125,0.076171875,-0.131103515625,-0.37404580152671757,0.5190839694656488,-1.2671755725190839
5.37,-0.915283203125,0.07763671875,-0.1298828125,-0.40458015267175573,1.9618320610687023,-1.2290076335877862
5.38,-0.911865234375,0.079345703125,-0.14501953125,-0.46564885496183206,1.3358778625954197,-1.381679389312977
5.39,-0.912109375,0.067138671875,-0.146240234375,-0.3893129770992366,-0.4961832061068702,-1.3206106870229009
5.4,-0.913330078125,0.077392578125,-0.136962890625,-0.48854961832061067,-1.5877862595419847,-1.5954198473282444
5.41,-0.91455078125,0.07666015625,-0.139892578125,-0.5038167938931297,-1.0,-1.5038167938931297
5.42,-0.911376953125,0.072265625,-0.134521484375,-0.5954198473282443,0.3282442748091603,-1.3358778625954197
5.43,-0.91162109375,0.0751953125,-0.1396484375,-0.3893129770992366,1.0,-1.3893129770992367
5.44,-0.909912109375,0.07861328125,-0.13720703125,-0.3816793893129771,0.5725190839694656,-1.381679389312977
5.45,-0.912353515625,0.078857421875,-0.146240234375,-0.5725190839694656,-0.5648854961832062,-1.3435114503816794
5.46,-0.9130859375,0.079833984375,-0.15478515625,-0.3511450381679389,-1.3282442748091603,-1.5801526717557253
5.47,-0.912841796875,0.073974609375,-0.140869140625,-0.3053435114503817,-0.7404580152671756,-1.5267175572519085
5.48,-0.91650390625,0.072265625,-0.140380859375,-0.26717557251908397,0.15267175572519084,-1.450381679389313
5.49,-0.9130859375,0.07763671875,-0.139404296875,-0.26717557251908397,0.5954198473282443,-1.2900763358778626
5.5,-0.905517578125,0.075439453125,-0.143798828125,-0.5038167938931297,0.183206106870229,-1.465648854961832
5.51,-0.91357421875,0.08251953125,-0.13623046875,-0.5801526717557252,-0.5648854961832062,-1.4122137404580153
5.52,-0.893798828125,0.07958984375,-0.134033203125,-0.5572519083969466,-0.8473282442748091,-1.5190839694656488
5.53,-0.911865234375,0.06396484375,-0.13037109375,-0.6335877862595419,-0.5419847328244275,-1.2900763358778626
5.54,-0.91259765625,0.08935546875,-0.136474609375,-0.3969465648854962,0.2366412213740458,-1.4961832061068703
5.55,-0.908935546875,0.078369140625,-0.12744140625,-0.24427480916030533,0.35877862595419846,-1.3053435114503817
5.56,-0.912841796875,0.080810546875,-0.14501953125,-0.5572519083969466,0.05343511450381679,-1.5038167938931297
5.57,-0.912841796875,0.0771484375,-0.140625,-0.1297709923664122,-0.5725190839694656,-1.549618320610687
5.58,-0.915283203125,0.079833984375,-0.133544921875,-0.549618320610687,-0.8244274809160306,-1.5954198473282444
5.59,-0.9091796875,0.093017578125,-0.1416015625,-0.44274809160305345,0.007633587786259542,-1.4122137404580153
5.6,-0.916748046875,0.08154296875,-0.129638671875,-0.5038167938931297,0.2366412213740458,-1.297709923664122
5.61,-0.910888671875,0.09326171875,-0.129150390625,-0.31297709923664124,0.5419847328244275,-1.3511450381679388
5.62,-0.910400390625,0.079345703125,-0.12890625,-0.16793893129770993,-0.31297709923664124,-1.4809160305343512
5.63,-0.91552734375,0.076416015625,-0.134765625,-0.48091603053435117,-0.7557251908396947,-1.5648854961832062
5.64,-0.91552734375,0.080078125,-0.14453125,-0.6564885496183206,-0.7557251908396947,-1.4580152671755726
5.65,-0.9111328125,0.081298828125,-0.139892578125,-0.32061068702290074,-0.48854961832061067,-1.3435114503816794
5.66,-0.91357421875,0.092041015625,-0.135986328125,-0.31297709923664124,-0.1297709923664122,-1.5954198473282444
5.67,-0.91259765625,0.076416015625,-0.125244140625,-0.33587786259541985,0.1984732824427481,-1.3053435114503817
5.68,-0.911865234375,0.091796875,-0.14306640625,-0.48091603053435117,0.20610687022900764,-1.3587786259541985
5.69,-0.913818359375,0.081787109375,-0.1357421875,-0.48854961832061067,-0.061068702290076333,-1.3740458015267176
5.7,-0.91357421875,0.077392578125,-0.14501953125,-0.40458015267175573,-0.08396946564885496,-1.3587786259541985
5.71,-0.9150390625,0.072998046875,-0.1435546875,-0.3969465648854962,-0.22900763358778625,-1.5114503816793894
5.72,-0.908935546875,0.06494140625,-0.133056640625,-0.3511450381679389,-0.183206106870229,-1.4122137404580153
5.73,-0.914306640625,0.068115234375,-0.125244140625,-0.4732824427480916,-0.04580152671755725,-1.4274809160305344
5.74,-0.90771484375,0.0771484375,-0.155029296875,-0.42748091603053434,-0.40458015267175573,-1.366412213740458
5.75,-0.9111328125,0.077880859375,-0.136962890625,-0.21374045801526717,-0.09923664122137404,-1.6030534351145038
5.76,-0.906005859375,0.08056640625,-0.135009765625,-0.3282442748091603,0.061068702290076333,-1.381679389312977
5.77,-0.911865234375,0.080810546875,-0.13671875,-0.46564885496183206,0.16793893129770993,-1.5877862595419847
5.78,-0.91259765625,0.0751953125,-0.13427734375,-0.3816793893129771,0.13740458015267176,-1.4122137404580153
5.79,-0.920654296875,0.078125,-0.14208984375,-0.5419847328244275,-0.15267175572519084,-1.534351145038168
5.8,-0.913818359375,0.075927734375,-0.132568359375,-0.37404580152671757,-0.1450381679389313,-1.366412213740458
5.81,-0.915771484375,0.08251953125,-0.130126953125,-0.5725190839694656,0.10687022900763359,-1.4961832061068703
5.82,-0.915771484375,0.0849609375,-0.14013671875,-0.24427480916030533,0.10687022900763359,-1.251908396946565
5.83,-0.910888671875,0.080322265625,-0.140869140625,-0.20610687022900764,-0.16030534351145037,-1.465648854961832
5.84,-0.9169921875,0.08447265625,-0.13525390625,-0.32061068702290074,-0.3435114503816794,-1.4122137404580153
5.85,-0.91162109375,0.076171875,-0.13818359375,-0.2748091603053435,-0.25190839694656486,-1.4885496183206106
5.86,-0.91015625,0.0712890625,-0.14111328125,-0.40458015267175573,-0.022900763358778626,-1.4580152671755726
5.87,-0.911865234375,0.08984375,-0.14404296875,-0.25190839694656486,0.4198473282442748,-1.381679389312977
5.88,-0.907958984375,0.080322265625,-0.1318359375,-0.37404580152671757,0.6717557251908397,-1.5038167938931297
5.89,-0.913330078125,0.085693359375,-0.130859375,-0.6183206106870229,-0.16793893129770993,-1.4961832061068703
5.9,-0.911865234375,0.07861328125,-0.1416015625,-0.4351145038167939,-0.3893129770992366,-1.450381679389313
5.91,-0.913818359375,0.0771484375,-0.134521484375,-0.3893129770992366,-0.4961832061068702,-1.4427480916030535
5.92,-0.919677734375,0.075439453125,-0.138427734375,-0.2824427480916031,-0.10687022900763359,-1.4351145038167938
5.93,-0.91455078125,0.065673828125,-0.141357421875,-0.4961832061068702,0.3053435114503817,-1.4351145038167938
5.94,-0.9140625,0.06787109375,-0.126953125,-0.33587786259541985,0.24427480916030533,-1.297709923664122
5.95,-0.911865234375,0.08056640625,-0.154052734375,-0.3816793893129771,0.183206106870229,-1.4351145038167938
5.96,-0.907470703125,0.07568359375,-0.1259765625,-0.3893129770992366,-0.1297709923664122,-1.4427480916030535
5.97,-0.916259765625,0.0830078125,-0.149169921875,-0.4961832061068702,-0.16030534351145037,-1.4885496183206106
5.98,-0.906982421875,0.075927734375,-0.14697265625,-0.6412213740458015,-0.0916030534351145,-1.297709923664122
5.99,-0.919189453125,0.072509765625,-0.1416015625,-0.26717557251908397,-0.015267175572519083,-1.4809160305343512
6.0,-0.9189453125,0.07861328125,-0.125244140625,-0.4580152671755725,-0.11450381679389313,-1.5267175572519085
6.01,-0.90966796875,0.076904296875,-0.141357421875,-0.48854961832061067,0.0916030534351145,-1.5267175572519085
6.02,-0.9111328125,0.06298828125,-0.140625,-0.3969465648854962,0.07633587786259542,-1.4732824427480915
6.03,-0.91357421875,0.077880859375,-0.152587890625,-0.4732824427480916,0.06870229007633588,-1.4351145038167938
6.04,-0.91064453125,0.078125,-0.146484375,-0.40458015267175573,0.32061068702290074,-1.3435114503816794
6.05,-0.911376953125,0.07763671875,-0.147216796875,-0.3893129770992366,0.03816793893129771,-1.2748091603053435
6.06,-0.909423828125,0.0810546875,-0.13623046875,-0.48091603053435117,-0.2900763358778626,-1.4122137404580153
6.07,-0.910888671875,0.078369140625,-0.135009765625,-0.31297709923664124,-0.24427480916030533,-1.6106870229007633
6.08,-0.91845703125,0.092041015625,-0.128173828125,-0.4122137404580153,-0.44274809160305345,-1.2671755725190839
6.09,-0.908935546875,0.0654296875,-0.127685546875,-0.40458015267175573,-0.21374045801526717,-1.549618320610687
6.1,-0.90625,0.083984375,-0.1318359375,-0.5877862595419847,0.08396946564885496,-1.297709923664122
6.11,-0.91796875,0.07958984375,-0.1435546875,-0.3282442748091603,0.3511450381679389,-1.5954198473282444
6.12,-0.915283203125,0.07470703125,-0.13525390625,-0.31297709923664124,-1.9465648854961832,-1.5190839694656488
6.13,-0.91552734375,0.076171875,-0.137451171875,-0.35877862595419846,-0.25190839694656486,-1.5725190839694656
6.14,-0.907958984375,0.0830078125,-0.15234375,-0.40458015267175573,-0.04580152671755725,-1.4732824427480915
6.15,-0.920166015625,0.07958984375,-0.14453125,-0.25190839694656486,-0.19083969465648856,-1.3893129770992367
6.16,-0.909423828125,0.0791015625,-0.154052734375,-0.37404580152671757,-0.1297709923664122,-1.4732824427480915
6.17,-0.913330078125,0.080810546875,-0.1552734375,-0.46564885496183206,-1.900763358778626,-1.4198473282442747
6.18,-0.917236328125,0.080078125,-0.144287109375,-0.29770992366412213,-0.2900763358778626,-1.381679389312977
6.19,-0.90673828125,0.0751953125,-0.135009765625,-0.5267175572519084,-0.24427480916030533,-1.465648854961832
6.2,-0.9130859375,0.07666015625,-0.14794921875,-0.37404580152671757,-0.06870229007633588,-1.4274809160305344
6.21,-0.914794921875,0.08056640625,-0.141357421875,-0.3969465648854962,-0.0916030534351145,-1.3282442748091603
6.22,-0.91357421875,0.093505859375,-0.1396484375,-0.3893129770992366,-0.061068702290076333,-1.3969465648854962
6.23,-0.906005859375,0.086181640625,-0.130615234375,-0.35877862595419846,0.015267175572519083,-1.4045801526717556
6.24,-0.910400390625,0.074951171875,-0.147705078125,-0.31297709923664124,-0.21374045801526717,-1.748091603053435
6.25,-0.915771484375,0.076416015625,-0.132568359375,-0.2595419847328244,-0.29770992366412213,-1.4732824427480915
6.26,-0.909423828125,0.0732421875,-0.1337890625,-0.3893129770992366,-0.21374045801526717,-1.3893129770992367
6.27,-0.916015625,0.075439453125,-0.141357421875,-0.1984732824427481,0.022900763358778626,-1.5190839694656488
6.28,-0.908203125,0.07861328125,-0.127685546875,-0.4580152671755725,-0.11450381679389313,-1.1908396946564885
6.29,-0.911376953125,0.074951171875,-0.12548828125,-0.5190839694656488,-0.0916030534351145,-1.4427480916030535
6.3,-0.906982421875,0.084228515625,-0.126953125,-0.648854961832061,0.09923664122137404,-1.5114503816793894
6.31,-0.913818359375,0.085693359375,-0.139404296875,-0.3053435114503817,0.3282442748091603,-1.3587786259541985
6.32,-0.911865234375,0.070556640625,-0.138427734375,-0.46564885496183206,1.9312977099236641,-1.4122137404580153
6.33,-0.917724609375,0.077392578125,-0.14453125,-0.3893129770992366,-0.22900763358778625,-1.5190839694656488
6.34,-0.912353515625,0.07568359375,-0.1455078125,-0.4961832061068702,-0.42748091603053434,-1.3893129770992367
6.35,-0.91796875,0.08154296875,-0.154296875,-0.35877862595419846,-0.33587786259541985,-1.5038167938931297
6.36,-0.911865234375,0.093505859375,-0.1357421875,-0.5648854961832062,-0.2900763358778626,-1.2595419847328244
6.37,-0.916015625,0.080078125,-0.139892578125,-0.42748091603053434,0.015267175572519083,-1.4274809160305344
6.38,-0.907470703125,0.0791015625,-0.138916015625,-0.11450381679389313,0.2900763358778626,-1.282442748091603
6.39,-0.914306640625,0.08447265625,-0.142822265625,-0.3893129770992366,0.19083969465648856,-1.4351145038167938
6.4,-0.912109375,0.082763671875,-0.143798828125,-0.2366412213740458,-0.2748091603053435,-1.3969465648854962
6.41,-0.90869140625,0.085693359375,-0.135009765625,-0.5038167938931297,-0.37404580152671757,-1.450381679389313
6.42,-0.913818359375,0.076171875,-0.152587890625,-0.48091603053435117,-0.48091603053435117,-1.4961832061068703
6.43,-0.91455078125,0.080078125,-0.13916015625,-0.3282442748091603,-0.3511450381679389,-1.3511450381679388
6.44,-0.911865234375,0.079833984375,-0.135009765625,-0.2900763358778626,0.007633587786259542,-1.251908396946565
6.45,-0.9130859375,0.08056640625,-0.139404296875,-0.35877862595419846,0.35877862595419846,-1.3358778625954197
6.46,-0.9140625,0.07666015625,-0.1328125,-0.24427480916030533,0.183206106870229,-1.5038167938931297
6.47,-0.91455078125,0.07861328125,-0.14453125,-0.6030534351145038,-0.25190839694656486,-1.450381679389313
6.48,-0.92138671875,0.075927734375,-0.1318359375,-0.3969465648854962,-0.31297709923664124,-1.5267175572519085
6.49,-0.915771484375,0.090087890625,-0.13427734375,-0.5114503816793893,-0.2366412213740458,-1.3129770992366412
6.5,-0.911376953125,0.081298828125,-0.1318359375,-0.4351145038167939,-0.1450381679389313,-1.3435114503816794
6.51,-0.911376953125,0.077880859375,-0.13427734375,-0.4198473282442748,-0.015267175572519083,-1.381679389312977
6.52,-0.91552734375,0.08056640625,-0.14306640625,-0.3511450381679389,0.2824427480916031,-1.450381679389313
6.53,-0.9111328125,0.076904296875,-0.13818359375,-0.3511450381679389,0.20610687022900764,-1.3206106870229009
6.54,-0.908935546875,0.076416015625,-0.138671875,-0.42748091603053434,-0.2595419847328244,-1.4580152671755726
6.55,-0.91552734375,0.0869140625,-0.14697265625,-0.3816793893129771,-0.6564885496183206,-1.4351145038167938
6.56,-0.91455078125,0.065185546875,-0.12890625,-0.29770992366412213,-0.29770992366412213,-1.381679389312977
6.57,-0.914306640625,0.0927734375,-0.1376953125,-0.16030534351145037,0.21374045801526717,-1.4351145038167938
6.58,-0.91162109375,0.0791015625,-0.135009765625,-0.6870229007633588,0.183206106870229,-1.3740458015267176
6.59,-0.91162109375,0.080322265625,-0.146728515625,-0.5343511450381679,0.16793893129770993,-1.4274809160305344
6.6,-0.91015625,0.077392578125,-0.145751953125,-0.6030534351145038,-0.33587786259541985,-1.5267175572519085
6.61,-0.9091796875,0.08837890625,-0.13818359375,-0.3435114503816794,-0.5038167938931297,-1.5190839694656488
6.62,-0.9130859375,0.0869140625,-0.132568359375,-0.44274809160305345,-0.183206106870229,-1.251908396946565
6.63,-0.91259765625,0.076416015625,-0.1484375,-0.42748091603053434,-1.900763358778626,-1.5267175572519085
6.64,-0.906982421875,0.079345703125,-0.127197265625,-0.46564885496183206,0.31297709923664124,-1.251908396946565
6.65,-0.9130859375,0.078125,-0.14892578125,-0.6106870229007634,0.22137404580152673,-1.2290076335877862
6.66,-0.910888671875,0.07666015625,-0.1396484375,-0.42748091603053434,-0.25190839694656486,-1.5725190839694656
6.67,-0.91259765625,0.080322265625,-0.13623046875,-0.5801526717557252,-0.3511450381679389,-1.3587786259541985
6.68,-0.9140625,0.0732421875,-0.13916015625,-0.40458015267175573,-0.2366412213740458,-1.2442748091603053
6.69,-0.914794921875,0.0927734375,-0.133056640625,-0.44274809160305345,-0.015267175572519083,-1.2671755725190839
6.7,-0.91259765625,0.092041015625,-0.135009765625,-0.48091603053435117,-1.9541984732824427,-1.297709923664122
6.71,-0.912841796875,0.0791015625,-0.12841796875,-0.3893129770992366,-1.9389312977099236,-1.5038167938931297
6.72,-0.91259765625,0.08056640625,-0.135986328125,-0.32061068702290074,0.03816793893129771,-1.366412213740458
6.73,-0.911376953125,0.07958984375,-0.135498046875,-0.4122137404580153,0.015267175572519083,-1.6641221374045803
6.74,-0.910888671875,0.0703125,-0.142822265625,-0.366412213740458,-0.35877862595419846,-1.3969465648854962
6.75,-0.910888671875,0.09228515625,-0.14111328125,-0.6259541984732825,-0.35877862595419846,-1.465648854961832
6.76,-0.91552734375,0.078857421875,-0.1376953125,-0.5343511450381679,-0.3282442748091603,-1.2442748091603053
6.77,-0.907470703125,0.078369140625,-0.13427734375,-0.2824427480916031,-0.11450381679389313,-1.3740458015267176
6.78,-0.91015625,0.071533203125,-0.125732421875,-0.29770992366412213,0.3053435114503817,-1.2748091603053435
6.79,-0.91162109375,0.077880859375,-0.13623046875,-0.4351145038167939,0.24427480916030533,-1.3511450381679388
6.8,-0.91064453125,0.080078125,-0.136474609375,-0.2824427480916031,-0.04580152671755725,-1.4885496183206106
6.81,-0.909912109375,0.08447265625,-0.137939453125,-0.40458015267175573,-0.2900763358778626,-1.4732824427480915
6.82,-0.91455078125,0.077392578125,-0.1396484375,-0.3511450381679389,-0.3435114503816794,-1.3282442748091603
6.83,-0.920654296875,0.072265625,-0.140869140625,-0.32061068702290074,-0.15267175572519084,-1.450381679389313
6.84,-0.9111328125,0.08544921875,-0.139892578125,-0.3511450381679389,-0.08396946564885496,-1.3435114503816794
6.85,-0.9111328125,0.072509765625,-0.142578125,-0.5954198473282443,0.10687022900763359,-1.251908396946565
6.86,-0.912841796875,0.08251953125,-0.14306640625,-0.45038167938931295,0.015267175572519083,-1.450381679389313
6.87,-0.916015625,0.08154296875,-0.141845703125,-0.5725190839694656,-0.35877862595419846,-1.3893129770992367
6.88,-0.91650390625,0.07763671875,-0.135986328125,-0.25190839694656486,-0.42748091603053434,-1.3282442748091603
6.89,-0.913818359375,0.063720703125,-0.14208984375,-0.44274809160305345,-1.9465648854961832,-1.5801526717557253
6.9,-0.91650390625,0.0712890625,-0.13916015625,-0.46564885496183206,0.061068702290076333,-1.381679389312977
6.91,-0.91015625,0.0791015625,-0.138427734375,-0.32061068702290074,-0.22900763358778625,-1.3893129770992367
6.92,-0.915283203125,0.0732421875,-0.141845703125,-0.46564885496183206,-0.29770992366412213,-1.4961832061068703
6.93,-0.911865234375,0.083740234375,-0.13623046875,-0.5572519083969466,-0.40458015267175573,-1.4351145038167938
6.94,-0.90478515625,0.08203125,-0.136962890625,-0.6412213740458015,-0.42748091603053434,-1.3511450381679388
6.95,-0.918701171875,0.07763671875,-0.136962890625,-0.4961832061068702,0.2824427480916031,-1.1984732824427482
6.96,-0.911376953125,0.091064453125,-0.13720703125,-0.5190839694656488,0.11450381679389313,-1.16793893129771
6.97,-0.90771484375,0.075439453125,-0.1279296875,-0.366412213740458,-0.061068702290076333,-1.3435114503816794
6.98,-0.9169921875,0.0810546875,-0.12548828125,-0.5572519083969466,-0.1297709923664122,-1.5419847328244274
6.99,-0.9130859375,0.07763671875,-0.143798828125,-0.3435114503816794,-0.1297709923664122,-1.3358778625954197
7.0,-0.91015625,0.0771484375,-0.134033203125,-0.46564885496183206,0.030534351145038167,-1.3893129770992367
7.01,-0.9111328125,0.081787109375,-0.137939453125,-0.5725190839694656,-0.16030534351145037,-1.3053435114503817
7.02,-0.913818359375,0.081298828125,-0.146240234375,-0.4732824427480916,-0.07633587786259542,-1.3206106870229009
7.03,-0.9150390625,0.0625,-0.133056640625,-0.4122137404580153,-0.07633587786259542,-1.4961832061068703
7.04,-0.913330078125,0.093017578125,-0.12744140625,-0.5572519083969466,-0.2900763358778626,-1.3969465648854962
7.05,-0.91162109375,0.064208984375,-0.15234375,-0.7175572519083969,0.0,-1.4351145038167938
7.06,-0.913818359375,0.077880859375,-0.146484375,-0.3969465648854962,-0.04580152671755725,-1.2748091603053435
7.07,-0.914306640625,0.075927734375,-0.13916015625,-0.4351145038167939,0.32061068702290074,-1.465648854961832
7.08,-0.910400390625,0.08056640625,-0.1376953125,-0.366412213740458,-1.8931297709923665,-1.3053435114503817
7.09,-0.91357421875,0.074462890625,-0.136474609375,-0.3511450381679389,-0.03816793893129771,-1.4351145038167938
7.1,-0.911865234375,0.08251953125,-0.126220703125,-0.29770992366412213,-0.2900763358778626,-1.4351145038167938
7.11,-0.91943359375,0.07666015625,-0.13916015625,-0.4122137404580153,0.07633587786259542,-1.4885496183206106
7.12,-0.91552734375,0.07763671875,-0.126220703125,-0.45038167938931295,-0.11450381679389313,-1.2366412213740459
7.13,-0.906494140625,0.083740234375,-0.142578125,-0.42748091603053434,0.1450381679389313,-1.3206106870229009
7.14,-0.9111328125,0.076904296875,-0.140380859375,-0.37404580152671757,-0.3435114503816794,-1.5954198473282444
7.15,-0.9072265625,0.084716796875,-0.142578125,-0.3511450381679389,-0.22900763358778625,-1.6259541984732824
7.16,-0.912109375,0.085693359375,-0.136474609375,-0.3435114503816794,-0.183206106870229,-1.3511450381679388
7.17,-0.916748046875,0.0634765625,-0.136474609375,-0.33587786259541985,-0.16793893129770993,-1.3358778625954197
7.18,-0.913330078125,0.08203125,-0.130615234375,-0.5343511450381679,0.13740458015267176,-1.4351145038167938
7.19,-0.91552734375,0.0810546875,-0.14208984375,-0.5114503816793893,0.22900763358778625,-1.3129770992366412
7.2,-0.91162109375,0.074462890625,-0.145751953125,-0.4732824427480916,-0.1297709923664122,-1.366412213740458
7.21,-0.910400390625,0.07763671875,-0.142822265625,-0.32061068702290074,-0.24427480916030533,-1.251908396946565
7.22,-0.9130859375,0.080810546875,-0.13916015625,-0.33587786259541985,-0.04580152671755725,-1.381679389312977
7.23,-0.89306640625,0.078125,-0.13427734375,-0.4580152671755725,-0.007633587786259542,-1.3587786259541985
7.24,-0.908935546875,0.09326171875,-0.154296875,-0.5267175572519084,-0.022900763358778626,-1.2290076335877862
7.25,-0.913330078125,0.0703125,-0.1337890625,-0.46564885496183206,0.1297709923664122,-1.4427480916030535
7.26,-0.914306640625,0.0751953125,-0.13916015625,-0.24427480916030533,-0.19083969465648856,-1.3969465648854962
7.27,-0.915283203125,0.08203125,-0.140869140625,-0.2824427480916031,-0.13740458015267176,-1.3969465648854962
7.28,-0.907958984375,0.078125,-0.143310546875,-0.366412213740458,-0.0916030534351145,-1.4274809160305344
7.29,-0.915771484375,0.071533203125,-0.140869140625,-0.5038167938931297,-0.06870229007633588,-1.3740458015267176
7.3,-0.914794921875,0.08251953125,-0.14111328125,-0.33587786259541985,0.0,-1.3969465648854962
7.31,-0.912109375,0.06298828125,-0.139892578125,-0.5648854961832062,-0.3053435114503817,-1.3206106870229009
7.32,-0.913818359375,0.064208984375,-0.140380859375,-0.42748091603053434,-0.08396946564885496,-1.5190839694656488
7.33,-0.9091796875,0.07861328125,-0.1318359375,-0.5648854961832062,-0.015267175572519083,-1.3511450381679388
7.34,-0.906982421875,0.078857421875,-0.14306640625,-0.3511450381679389,-0.11450381679389313,-1.4122137404580153
7.35,-0.9169921875,0.076171875,-0.1416015625,-0.25190839694656486,-0.1297709923664122,-1.3206106870229009
7.36,-0.912109375,0.07177734375,-0.1396484375,-0.46564885496183206,-0.25190839694656486,-1.3893129770992367
7.37,-0.910400390625,0.068603515625,-0.144287109375,-0.31297709923664124,0.19083969465648856,-1.3435114503816794
7.38,-0.916015625,0.092041015625,-0.15478515625,-0.09923664122137404,0.16030534351145037,-1.282442748091603
7.39,-0.91259765625,0.078369140625,-0.138916015625,-0.366412213740458,0.04580152671755725,-1.4961832061068703
7.4,-0.909423828125,0.07666015625,-0.142822265625,-0.48091603053435117,0.061068702290076333,-1.549618320610687
7.41,-0.9150390625,0.072998046875,-0.12890625,-0.35877862595419846,-0.16793893129770993,-1.4809160305343512
7.42,-0.91259765625,0.0791015625,-0.141357421875,-0.3816793893129771,-0.29770992366412213,-1.4427480916030535
7.43,-0.91357421875,0.076904296875,-0.140380859375,-0.4961832061068702,-0.2748091603053435,-1.4122137404580153
7.44,-0.91845703125,0.091552734375,-0.13623046875,-0.5419847328244275,1.8854961832061068,-1.2595419847328244
7.45,-0.91552734375,0.088623046875,-0.14404296875,-0.2900763358778626,1.9236641221374047,-1.4045801526717556
7.46,-0.91650390625,0.079345703125,-0.155517578125,-0.2748091603053435,0.022900763358778626,-1.5877862595419847
7.47,-0.86767578125,0.0732421875,-0.130859375,-1.9465648854961832,-0.33587786259541985,-1.5267175572519085
7.48,-0.923583984375,0.0703125,-0.144287109375,-0.5648854961832062,-0.4961832061068702,-1.2366412213740459
7.49,-0.91552734375,0.08203125,-0.13720703125,-0.5572519083969466,-0.1297709923664122,-1.6870229007633588
7.5,-0.921142578125,0.072509765625,-0.140625,-0.7251908396946565,-0.12213740458015267,-1.6564885496183206
7.51,-1.00244140625,0.134765625,-0.16357421875,-0.7022900763358778,0.6183206106870229,-1.83206106870229
7.52,-0.94091796875,0.04833984375,-0.11962890625,-0.44274809160305345,0.20610687022900764,-1.2671755725190839
7.53,-0.893310546875,0.071044921875,-0.132080078125,-0.3511450381679389,0.030534351145038167,-1.282442748091603
7.54,-0.91015625,0.081298828125,-0.130859375,-0.32061068702290074,-0.3282442748091603,-1.549618320610687
7.55,-0.907470703125,0.08203125,-0.144775390625,-0.48091603053435117,-0.4198473282442748,-1.4198473282442747
7.56,-0.918701171875,0.079833984375,-0.13916015625,-0.4198473282442748,-0.5648854961832062,-1.4580152671755726
7.57,-0.9111328125,0.07421875,-0.130615234375,-0.48854961832061067,-0.2366412213740458,-1.3740458015267176
7.58,-0.915283203125,0.07763671875,-0.1318359375,-0.1297709923664122,0.5725190839694656,-1.7328244274809161
7.59,-0.920654296875,0.087890625,-0.128173828125,-0.6564885496183206,0.40458015267175573,-1.4045801526717556
7.6,-0.91796875,0.08984375,-0.131591796875,-0.3511450381679389,0.15267175572519084,-1.366412213740458
7.61,-0.90576171875,0.072509765625,-0.142822265625,-0.4580152671755725,0.03816793893129771,-1.3435114503816794
7.62,-0.911865234375,0.089111328125,-0.142333984375,-0.4122137404580153,-0.3969465648854962,-1.3893129770992367
7.63,-0.912841796875,0.069580078125,-0.1416015625,-0.4351145038167939,-0.5648854961832062,-1.5190839694656488
7.64,-0.90625,0.079345703125,-0.138671875,-0.35877862595419846,-0.3969465648854962,-1.4274809160305344
7.65,-0.897216796875,0.063720703125,-0.13427734375,-0.183206106870229,-0.08396946564885496,-1.3969465648854962
7.66,-0.912353515625,0.064453125,-0.13623046875,-0.44274809160305345,0.29770992366412213,-1.2900763358778626
7.67,-0.913330078125,0.080322265625,-0.139892578125,-0.4122137404580153,0.5648854961832062,-1.3893129770992367
7.68,-0.908203125,0.07666015625,-0.145751953125,-0.366412213740458,0.22137404580152673,-1.4045801526717556
7.69,-0.91064453125,0.074951171875,-0.1416015625,-0.2366412213740458,-0.2824427480916031,-1.4427480916030535
7.7,-0.91796875,0.088134765625,-0.141357421875,-0.45038167938931295,-0.6106870229007634,-1.5038167938931297
7.71,-0.908447265625,0.076904296875,-0.13330078125,-0.48854961832061067,-0.5343511450381679,-1.4809160305343512
7.72,-0.917724609375,0.07763671875,-0.133056640625,-0.4732824427480916,-0.16030534351145037,-1.465648854961832
7.73,-0.91015625,0.079833984375,-0.141357421875,-0.33587786259541985,0.48854961832061067,-1.4580152671755726
7.74,-0.912109375,0.080322265625,-0.14208984375,-0.44274809160305345,0.2595419847328244,-1.465648854961832
7.75,-0.912353515625,0.07958984375,-0.136962890625,-0.26717557251908397,-0.12213740458015267,-1.3435114503816794
7.76,-0.9130859375,0.080322265625,-0.140380859375,-0.4580152671755725,-0.26717557251908397,-1.4351145038167938
7.77,-0.912353515625,0.08154296875,-0.1435546875,-0.366412213740458,-0.21374045801526717,-1.3206106870229009
7.78,-0.91357421875,0.075439453125,-0.14453125,-0.6564885496183206,-0.04580152671755725,-1.465648854961832
7.79,-0.91357421875,0.0908203125,-0.137451171875,-0.6335877862595419,-0.15267175572519084,-1.5114503816793894
7.8,-0.9140625,0.085205078125,-0.155029296875,-0.3511450381679389,0.061068702290076333,-1.450381679389313
7.81,-0.912109375,0.0810546875,-0.138671875,-0.42748091603053434,-0.061068702290076333,-1.5114503816793894
7.82,-0.913818359375,0.080078125,-0.14697265625,-0.3511450381679389,0.15267175572519084,-1.183206106870229
7.83,-0.915283203125,0.07470703125,-0.14013671875,-0.5114503816793893,-1.9312977099236641,-1.5190839694656488
7.84,-0.909912109375,0.078369140625,-0.13720703125,-0.40458015267175573,0.05343511450381679,-1.5954198473282444
7.85,-0.912109375,0.078125,-0.1435546875,-0.3053435114503817,-0.08396946564885496,-1.3511450381679388
7.86,-0.913330078125,0.09033203125,-0.135009765625,-0.3816793893129771,-0.22900763358778625,-1.5801526717557253
7.87,-0.915771484375,0.077880859375,-0.148681640625,-0.3893129770992366,-0.22137404580152673,-1.6259541984732824
7.88,-0.9130859375,0.073486328125,-0.149169921875,-0.5114503816793893,0.24427480916030533,-1.5877862595419847
7.89,-0.907470703125,0.0791015625,-0.13525390625,-0.3511450381679389,0.015267175572519083,-1.3282442748091603
7.9,-0.909423828125,0.079345703125,-0.13623046875,-0.31297709923664124,-0.12213740458015267,-1.5114503816793894
7.91,-0.916015625,0.075439453125,-0.1416015625,-0.3511450381679389,-0.16030534351145037,-1.549618320610687
7.92,-0.914306640625,0.078369140625,-0.1376953125,-0.31297709923664124,-1.916030534351145,-1.3358778625954197
7.93,-0.9111328125,0.080322265625,-0.12744140625,-0.5267175572519084,0.11450381679389313,-1.4045801526717556
7.94,-0.912109375,0.083984375,-0.15478515625,-0.5648854961832062,1.9389312977099236,-1.4274809160305344
7.95,-0.908447265625,0.077880859375,-0.14306640625,-0.6259541984732825,-0.08396946564885496,-1.5190839694656488
7.96,-0.91259765625,0.08154296875,-0.142333984375,-0.33587786259541985,-0.015267175572519083,-1.4045801526717556
7.97,-0.910400390625,0.08447265625,-0.135986328125,-0.3893129770992366,-1.9465648854961832,-1.3893129770992367
7.98,-0.912841796875,0.0732421875,-0.14501953125,-0.4580152671755725,-0.1297709923664122,-1.4809160305343512
7.99,-0.912109375,0.065673828125,-0.13671875,-0.5419847328244275,0.022900763358778626,-1.3053435114503817
8.0,-0.906982421875,0.0771484375,-0.143310546875,-0.6183206106870229,0.1450381679389313,-1.534351145038168
8.01,-0.912109375,0.0859375,-0.13916015625,-0.32061068702290074,1.9389312977099236,-1.3740458015267176
8.02,-0.910400390625,0.090576171875,-0.138671875,-0.5419847328244275,-0.22137404580152673,-1.4961832061068703
8.03,-0.907958984375,0.07763671875,-0.13623046875,-0.3893129770992366,-0.3511450381679389,-1.1755725190839694
8.04,-0.911865234375,0.078125,-0.13623046875,-0.5114503816793893,-0.20610687022900764,-1.3511450381679388
8.05,-0.908935546875,0.08154296875,-0.136474609375,-0.48091603053435117,-1.9541984732824427,-1.3969465648854962
8.06,-0.912109375,0.0791015625,-0.14599609375,-0.3816793893129771,0.030534351145038167,-1.3358778625954197
8.07,-0.91552734375,0.093505859375,-0.14111328125,-0.366412213740458,0.1297709923664122,-1.5038167938931297
8.08,-0.910888671875,0.0634765625,-0.137451171875,-0.19083969465648856,0.11450381679389313,-1.4274809160305344
8.09,-0.908203125,0.08056640625,-0.13525390625,-0.5343511450381679,-0.21374045801526717,-1.3282442748091603
8.1,-0.91796875,0.077392578125,-0.143798828125,-0.3969465648854962,-0.17557251908396945,-1.3969465648854962
8.11,-0.915283203125,0.07666015625,-0.13232421875,-0.6412213740458015,-0.04580152671755725,-1.2061068702290076
8.12,-0.908203125,0.074462890625,-0.1337890625,-0.3435114503816794,-0.1450381679389313,-1.4427480916030535
8.13,-0.912841796875,0.091552734375,-0.12646484375,-0.6183206106870229,0.16030534351145037,-1.4045801526717556
8.14,-0.913818359375,0.0634765625,-0.139404296875,-0.549618320610687,0.21374045801526717,-1.4045801526717556
8.15,-0.91259765625,0.076416015625,-0.134033203125,-0.48091603053435117,-0.04580152671755725,-1.5267175572519085
8.16,-0.919189453125,0.078369140625,-0.13720703125,-0.3511450381679389,0.05343511450381679,-1.3740458015267176
8.17,-0.913330078125,0.077880859375,-0.13623046875,-0.37404580152671757,-0.2595419847328244,-1.5114503816793894
8.18,-0.910400390625,0.08056640625,-0.136962890625,-0.46564885496183206,-0.3969465648854962,-1.3358778625954197
8.19,-0.911376953125,0.066162109375,-0.1328125,-0.4198473282442748,-0.05343511450381679,-1.4198473282442747
8.2,-0.915283203125,0.080810546875,-0.1337890625,-0.3053435114503817,-1.9389312977099236,-1.2900763358778626
8.21,-0.906494140625,0.080078125,-0.149169921875,-0.648854961832061,-0.1297709923664122,-1.366412213740458
8.22,-0.915771484375,0.077880859375,-0.1337890625,-0.45038167938931295,0.04580152671755725,-1.450381679389313
8.23,-0.914306640625,0.08203125,-0.15087890625,-0.6335877862595419,-0.04580152671755725,-1.366412213740458
8.24,-0.9140625,0.078125,-0.142333984375,-0.48091603053435117,-1.9236641221374047,-1.3206106870229009
8.25,-0.9169921875,0.076171875,-0.136474609375,-0.3816793893129771,-0.1984732824427481,-1.3969465648854962
8.26,-0.913330078125,0.0625,-0.14599609375,-0.5801526717557252,-0.32061068702290074,-1.1221374045801527
8.27,-0.915283203125,0.081787109375,-0.139892578125,-0.33587786259541985,-0.04580152671755725,-1.2442748091603053
8.28,-0.910400390625,0.0927734375,-0.138427734375,-0.5190839694656488,-0.04580152671755725,-1.2290076335877862
8.29,-0.91455078125,0.077880859375,-0.133544921875,-0.5877862595419847,-0.16030534351145037,-1.3282442748091603
8.3,-0.911865234375,0.0771484375,-0.133056640625,-0.4580152671755725,-0.20610687022900764,-1.4809160305343512
8.31,-0.913818359375,0.08251953125,-0.140380859375,-0.31297709923664124,-0.04580152671755725,-1.2671755725190839
8.32,-0.917236328125,0.082763671875,-0.142578125,-0.5038167938931297,1.9236641221374047,-1.2366412213740459
8.33,-0.91552734375,0.093505859375,-0.138427734375,-0.6259541984732825,0.07633587786259542,-1.3511450381679388
8.34,-0.91650390625,0.07470703125,-0.127685546875,-0.48091603053435117,-0.17557251908396945,-1.3053435114503817
8.35,-0.913818359375,0.0810546875,-0.154296875,-0.4198473282442748,-0.16030534351145037,-1.4732824427480915
8.36,-0.915283203125,0.077392578125,-0.154052734375,-0.33587786259541985,-0.1984732824427481,-1.3587786259541985
8.37,-0.90673828125,0.0771484375,-0.13720703125,-0.5725190839694656,-1.9465648854961832,-1.5114503816793894
8.38,-0.90869140625,0.07958984375,-0.13525390625,-0.3435114503816794,-0.09923664122137404,-1.465648854961832
8.39,-0.910888671875,0.08251953125,-0.14404296875,-0.3969465648854962,-0.11450381679389313,-1.5038167938931297
8.4,-0.913330078125,0.07861328125,-0.13623046875,-0.4580152671755725,-1.900763358778626,-1.3740458015267176
8.41,-0.908447265625,0.080078125,-0.138916015625,-0.42748091603053434,-1.916030534351145,-1.6259541984732824
8.42,-0.913330078125,0.082275390625,-0.132080078125,-0.4580152671755725,0.030534351145038167,-1.2366412213740459
8.43,-0.906982421875,0.082275390625,-0.14013671875,-0.7175572519083969,-0.06870229007633588,-1.3435114503816794
8.44,-0.912353515625,0.0849609375,-0.144287109375,-0.32061068702290074,-0.15267175572519084,-1.4274809160305344
8.45,-0.91455078125,0.07958984375,-0.142822265625,-0.3511450381679389,-1.9541984732824427,-1.4274809160305344
8.46,-0.915771484375,0.0771484375,-0.139892578125,-0.40458015267175573,-0.08396946564885496,-1.4198473282442747
8.47,-0.910888671875,0.076416015625,-0.13525390625,-0.3969465648854962,-0.1297709923664122,-1.4045801526717556
8.48,-0.9130859375,0.0908203125,-0.139892578125,-0.4961832061068702,-0.31297709923664124,-1.3511450381679388
8.49,-0.91357421875,0.083984375,-0.1396484375,-0.26717557251908397,-0.15267175572519084,-1.4198473282442747
8.5,-0.9150390625,0.08056640625,-0.126220703125,-0.35877862595419846,-1.9541984732824427,-1.3358778625954197
8.51,-0.915771484375,0.07861328125,-0.1455078125,-0.42748091603053434,-1.8778625954198473,-1.381679389312977
8.52,-0.911865234375,0.077392578125,-0.139404296875,-0.16030534351145037,-0.11450381679389313,-1.4198473282442747
8.53,-0.912841796875,0.079345703125,-0.144287109375,-0.2595419847328244,-0.061068702290076333,-1.366412213740458
8.54,-0.91552734375,0.093017578125,-0.146484375,-0.5648854961832062,-0.09923664122137404,-1.3969465648854962
8.55,-0.918701171875,0.08447265625,-0.12646484375,-0.3893129770992366,-0.21374045801526717,-1.4045801526717556
8.56,-0.912109375,0.09326171875,-0.1376953125,-0.40458015267175573,-0.0916030534351145,-1.5419847328244274
8.57,-0.91259765625,0.081787109375,-0.14599609375,-0.5419847328244275,-0.17557251908396945,-1.549618320610687
8.58,-0.914794921875,0.077880859375,-0.142333984375,-0.4122137404580153,0.16793893129770993,-1.297709923664122
8.59,-0.91015625,0.07470703125,-0.14599609375,-0.061068702290076333,-0.1450381679389313,-1.4045801526717556
8.6,-0.916748046875,0.07666015625,-0.142822265625,-0.35877862595419846,-0.26717557251908397,-1.6564885496183206
8.61,-0.921875,0.07666015625,-0.138671875,-0.40458015267175573,-0.07633587786259542,-1.3358778625954197
8.62,-0.91162109375,0.079345703125,-0.125244140625,-0.4580152671755725,-0.061068702290076333,-1.3511450381679388
8.63,-0.91015625,0.078369140625,-0.1435546875,-0.5038167938931297,-0.04580152671755725,-1.4885496183206106
8.64,-0.913818359375,0.07958984375,-0.144775390625,-0.40458015267175573,1.916030534351145,-1.4885496183206106
8.65,-0.907958984375,0.07421875,-0.141357421875,-0.4122137404580153,-0.13740458015267176,-1.3587786259541985
8.66,-0.91552734375,0.083251953125,-0.140625,-0.4580152671755725,0.05343511450381679,-1.5190839694656488
8.67,-0.918212890625,0.072509765625,-0.129150390625,-0.4122137404580153,0.10687022900763359,-1.450381679389313
8.68,-0.915283203125,0.0732421875,-0.145263671875,-0.6106870229007634,-1.9541984732824427,-1.4045801526717556
8.69,-0.909423828125,0.067626953125,-0.140869140625,-0.25190839694656486,-0.07633587786259542,-1.2213740458015268
8.7,-0.91357421875,0.080810546875,-0.1259765625,-0.4351145038167939,0.06870229007633588,-1.6412213740458015
8.71,-0.91259765625,0.0849609375,-0.135009765625,-0.3969465648854962,-0.2595419847328244,-1.4351145038167938
8.72,-0.90966796875,0.081298828125,-0.13916015625,-0.5190839694656488,-0.3435114503816794,-1.3740458015267176
8.73,-0.91455078125,0.081298828125,-0.141357421875,-0.37404580152671757,-0.3893129770992366,-1.4427480916030535
8.74,-0.91259765625,0.06591796875,-0.140869140625,-0.5190839694656488,-0.04580152671755725,-1.4961832061068703
8.75,-0.91259765625,0.079345703125,-0.13037109375,-0.3511450381679389,0.015267175572519083,-1.4809160305343512
8.76,-0.911865234375,0.080810546875,-0.139404296875,-0.4198473282442748,0.06870229007633588,-1.534351145038168
8.77,-0.915771484375,0.078125,-0.12646484375,-0.4580152671755725,0.20610687022900764,-1.2595419847328244
8.78,-0.90869140625,0.075927734375,-0.141845703125,-0.48091603053435117,-0.22137404580152673,-1.4045801526717556
8.79,-0.918701171875,0.08056640625,-0.144775390625,-0.48854961832061067,-0.03816793893129771,-1.2900763358778626
8.8,-0.913818359375,0.07861328125,-0.135009765625,-0.4580152671755725,-0.08396946564885496,-1.3435114503816794
8.81,-0.921630859375,0.06787109375,-0.143798828125,-0.2748091603053435,-0.32061068702290074,-1.4274809160305344
8.82,-0.911376953125,0.07861328125,-0.13916015625,-0.29770992366412213,-1.9541984732824427,-1.4122137404580153
8.83,-0.9169921875,0.080322265625,-0.154296875,-0.3282442748091603,0.06870229007633588,-1.5190839694656488
8.84,-0.91064453125,0.075927734375,-0.146728515625,-0.25190839694656486,0.10687022900763359,-1.5419847328244274
8.85,-0.9150390625,0.076416015625,-0.13671875,-0.3282442748091603,-0.12213740458015267,-1.381679389312977
8.86,-0.912841796875,0.07861328125,-0.1396484375,-0.5267175572519084,-0.24427480916030533,-1.5267175572519085
8.87,-0.91064453125,0.077392578125,-0.138671875,-0.6717557251908397,-0.061068702290076333,-1.3435114503816794
8.88,-0.916015625,0.090576171875,-0.14111328125,-0.25190839694656486,-0.19083969465648856,-1.4198473282442747
8.89,-0.91015625,0.0830078125,-0.136474609375,-0.3969465648854962,-0.09923664122137404,-1.381679389312977
8.9,-0.913330078125,0.089111328125,-0.13232421875,-0.48091603053435117,-0.11450381679389313,-1.3893129770992367
8.91,-0.91552734375,0.07763671875,-0.138671875,-0.26717557251908397,0.13740458015267176,-1.3511450381679388
8.92,-0.913330078125,0.078125,-0.14306640625,-0.4122137404580153,-0.3282442748091603,-1.2900763358778626
8.93,-0.91162109375,0.0751953125,-0.136474609375,-0.31297709923664124,-0.33587786259541985,-1.4580152671755726
8.94,-0.912109375,0.076904296875,-0.142578125,-0.3435114503816794,-0.10687022900763359,-1.4580152671755726
8.95,-0.9072265625,0.062744140625,-0.138916015625,-0.4198473282442748,-0.12213740458015267,-1.3587786259541985
8.96,-0.91552734375,0.092041015625,-0.130859375,-0.5190839694656488,-1.916030534351145,-1.381679389312977
8.97,-0.913330078125,0.092529296875,-0.136474609375,-0.42748091603053434,-0.007633587786259542,-1.4732824427480915
8.98,-0.912353515625,0.08056640625,-0.146728515625,-0.37404580152671757,-0.2595419847328244,-1.4198473282442747
8.99,-0.91748046875,0.075439453125,-0.134521484375,-0.6870229007633588,-1.9465648854961832,-1.5038167938931297
9.0,-0.912353515625,0.0771484375,-0.14306640625,-0.4198473282442748,-0.32061068702290074,-1.3206106870229009
9.01,-0.912353515625,0.079833984375,-0.14208984375,-0.5419847328244275,-0.08396946564885496,-1.3511450381679388
9.02,-0.913818359375,0.074951171875,-0.13916015625,-0.5267175572519084,-0.06870229007633588,-1.5801526717557253
9.03,-0.9111328125,0.078125,-0.146240234375,-0.3816793893129771,-0.1450381679389313,-1.2442748091603053
9.04,-0.90966796875,0.0791015625,-0.12646484375,-0.3282442748091603,0.16030534351145037,-1.282442748091603
9.05,-0.914306640625,0.081298828125,-0.149169921875,-0.46564885496183206,-1.9541984732824427,-1.3053435114503817
9.06,-0.912109375,0.079345703125,-0.140380859375,-0.5190839694656488,-0.17557251908396945,-1.3511450381679388
9.07,-0.91064453125,0.076416015625,-0.140380859375,-0.3893129770992366,-0.24427480916030533,-1.4045801526717556
9.08,-0.912109375,0.077392578125,-0.149169921875,-0.4351145038167939,-0.20610687022900764,-1.366412213740458
9.09,-0.907958984375,0.062744140625,-0.145263671875,-0.46564885496183206,-0.16793893129770993,-1.549618320610687
9.1,-0.916748046875,0.077392578125,-0.148193359375,-0.48091603053435117,-0.16793893129770993,-1.3893129770992367
9.11,-0.9111328125,0.079833984375,-0.13525390625,-0.7786259541984732,-0.0916030534351145,-1.6717557251908397
9.12,-0.91552734375,0.078369140625,-0.1357421875,-0.4351145038167939,1.916030534351145,-1.4351145038167938
9.13,-0.9130859375,0.079345703125,-0.140625,-0.3511450381679389,-0.16793893129770993,-1.534351145038168
9.14,-0.91162109375,0.08154296875,-0.13671875,-0.42748091603053434,-0.07633587786259542,-1.4274809160305344
9.15,-0.91357421875,0.08740234375,-0.146484375,-0.5038167938931297,-0.2748091603053435,-1.3969465648854962
9.16,-0.919921875,0.083251953125,-0.12744140625,-0.33587786259541985,-0.09923664122137404,-1.3511450381679388
9.17,-0.91015625,0.086669921875,-0.13720703125,-0.366412213740458,0.022900763358778626,-1.3969465648854962
9.18,-0.910400390625,0.083251953125,-0.150634765625,-0.40458015267175573,0.11450381679389313,-1.3129770992366412
9.19,-0.90869140625,0.08251953125,-0.134765625,-0.5419847328244275,-0.32061068702290074,-1.3511450381679388
9.2,-0.9150390625,0.076171875,-0.13916015625,-0.42748091603053434,-0.03816793893129771,-1.5725190839694656
9.21,-0.91455078125,0.07666015625,-0.13720703125,-0.4961832061068702,1.8625954198473282,-1.5419847328244274
9.22,-0.913818359375,0.088134765625,-0.143798828125,-0.2748091603053435,-0.2595419847328244,-1.4961832061068703
9.23,-0.91455078125,0.07763671875,-0.155517578125,-0.16793893129770993,-0.05343511450381679,-1.549618320610687
9.24,-0.91552734375,0.081298828125,-0.1376953125,-0.3053435114503817,-0.1450381679389313,-1.213740458015267
9.25,-0.910888671875,0.076416015625,-0.15576171875,-0.3282442748091603,0.007633587786259542,-1.465648854961832
9.26,-0.914306640625,0.078857421875,-0.1396484375,-0.3893129770992366,0.1984732824427481,-1.3969465648854962
9.27,-0.914794921875,0.079833984375,-0.136474609375,-0.6946564885496184,0.11450381679389313,-1.450381679389313
9.28,-0.906982421875,0.076904296875,-0.14208984375,-0.46564885496183206,0.03816793893129771,-1.4122137404580153
9.29,-0.921875,0.071533203125,-0.142578125,-0.45038167938931295,-0.2366412213740458,-1.1908396946564885
9.3,-0.911376953125,0.081298828125,-0.1533203125,-0.45038167938931295,-0.08396946564885496,-1.4351145038167938
9.31,-0.913330078125,0.09228515625,-0.1435546875,-0.40458015267175573,0.0916030534351145,-1.5648854961832062
9.32,-0.909912109375,0.07958984375,-0.125244140625,-0.4122137404580153,0.0,-1.4351145038167938
9.33,-0.91845703125,0.075927734375,-0.146728515625,-0.3816793893129771,-0.15267175572519084,-1.3893129770992367
9.34,-0.912353515625,0.07666015625,-0.139404296875,-0.4198473282442748,-0.08396946564885496,-1.4809160305343512
9.35,-0.91357421875,0.0791015625,-0.13916015625,-0.3969465648854962,-0.15267175572519084,-1.5038167938931297
9.36,-0.91845703125,0.081298828125,-0.13720703125,-0.6030534351145038,0.09923664122137404,-1.5267175572519085
9.37,-0.911376953125,0.06396484375,-0.129638671875,-0.1984732824427481,0.11450381679389313,-1.4274809160305344
9.38,-0.91455078125,0.080078125,-0.12890625,-0.4580152671755725,-0.21374045801526717,-1.3053435114503817
9.39,-0.916259765625,0.077392578125,-0.137451171875,-0.3435114503816794,-0.16793893129770993,-1.297709923664122
9.4,-0.91259765625,0.078857421875,-0.141357421875,-0.5038167938931297,-0.06870229007633588,-1.4580152671755726
9.41,-0.911376953125,0.0791015625,-0.139404296875,-0.4961832061068702,-1.9389312977099236,-1.4045801526717556
9.42,-0.90869140625,0.07958984375,-0.134521484375,-0.366412213740458,-1.9541984732824427,-1.4274809160305344
9.43,-0.91259765625,0.079345703125,-0.139404296875,-0.37404580152671757,0.022900763358778626,-1.3129770992366412
9.44,-0.911376953125,0.064208984375,-0.12744140625,-0.26717557251908397,-0.10687022900763359,-1.3129770992366412
9.45,-0.9130859375,0.09326171875,-0.1279296875,-0.46564885496183206,1.916030534351145,-1.4045801526717556
9.46,-0.91162109375,0.07568359375,-0.13427734375,-0.3816793893129771,0.030534351145038167,-1.297709923664122
9.47,-0.916259765625,0.080810546875,-0.1328125,-0.5267175572519084,-0.11450381679389313,-1.450381679389313
9.48,-0.91162109375,0.082763671875,-0.144775390625,-0.4198473282442748,0.26717557251908397,-1.4045801526717556
9.49,-0.91943359375,0.080322265625,-0.140869140625,-0.4351145038167939,0.07633587786259542,-1.2900763358778626
9.5,-0.91162109375,0.07421875,-0.14306640625,-0.25190839694656486,-0.16793893129770993,-1.4732824427480915
9.51,-0.908447265625,0.080810546875,-0.13916015625,-0.24427480916030533,0.05343511450381679,-1.4961832061068703
9.52,-0.91357421875,0.089599609375,-0.14404296875,-0.31297709923664124,-0.2748091603053435,-1.2748091603053435
9.53,-0.911865234375,0.0810546875,-0.138671875,-0.4732824427480916,-0.06870229007633588,-1.4274809160305344
9.54,-0.911376953125,0.077392578125,-0.14111328125,-0.31297709923664124,-0.03816793893129771,-1.4274809160305344
9.55,-0.9091796875,0.0830078125,-0.143798828125,-0.2824427480916031,-0.16793893129770993,-1.3969465648854962
9.56,-0.912353515625,0.079833984375,-0.14306640625,-0.5038167938931297,-0.06870229007633588,-1.4427480916030535
9.57,-0.906982421875,0.09130859375,-0.152587890625,-0.549618320610687,1.8778625954198473,-1.4045801526717556
9.58,-0.90869140625,0.080322265625,-0.15576171875,-0.31297709923664124,-0.007633587786259542,-1.6641221374045803
9.59,-0.909423828125,0.06982421875,-0.126953125,-0.26717557251908397,-0.11450381679389313,-1.465648854961832
9.6,-0.91455078125,0.074951171875,-0.15234375,-0.3969465648854962,-0.022900763358778626,-1.4274809160305344
9.61,-0.909423828125,0.07861328125,-0.1435546875,-0.3893129770992366,-0.3435114503816794,-1.3893129770992367
9.62,-0.90673828125,0.081787109375,-0.138916015625,-0.5343511450381679,-1.9312977099236641,-1.3969465648854962
9.63,-0.9130859375,0.0791015625,-0.13427734375,-0.32061068702290074,0.06870229007633588,-1.5038167938931297
9.64,-0.913330078125,0.066162109375,-0.12548828125,-0.4198473282442748,-0.10687022900763359,-1.450381679389313
9.65,-0.9130859375,0.07763671875,-0.14013671875,-0.40458015267175573,0.03816793893129771,-1.4732824427480915
9.66,-0.9140625,0.066650390625,-0.15576171875,-0.3969465648854962,-0.12213740458015267,-1.549618320610687
9.67,-0.91455078125,0.073486328125,-0.13427734375,-0.3511450381679389,-0.10687022900763359,-1.4274809160305344
9.68,-0.907470703125,0.0791015625,-0.14453125,-0.35877862595419846,-0.21374045801526717,-1.366412213740458
9.69,-0.91259765625,0.0771484375,-0.140625,-0.4198473282442748,-0.22900763358778625,-1.3587786259541985
9.7,-0.912353515625,0.079345703125,-0.1337890625,-0.21374045801526717,-0.22137404580152673,-1.4351145038167938
9.71,-0.912109375,0.08251953125,-0.153076171875,-0.4961832061068702,-0.015267175572519083,-1.5038167938931297
9.72,-0.910888671875,0.083740234375,-0.132080078125,-0.4961832061068702,-0.07633587786259542,-1.2900763358778626
9.73,-0.9140625,0.076171875,-0.14111328125,-0.2366412213740458,-0.17557251908396945,-1.213740458015267
9.74,-0.9150390625,0.081298828125,-0.14501953125,-0.32061068702290074,-1.9541984732824427,-1.381679389312977
9.75,-0.91552734375,0.07666015625,-0.139892578125,-0.4732824427480916,-0.022900763358778626,-1.465648854961832
9.76,-0.913330078125,0.08056640625,-0.1357421875,-0.5343511450381679,-0.1297709923664122,-1.4122137404580153
9.77,-0.910888671875,0.078369140625,-0.13134765625,-0.2824427480916031,0.08396946564885496,-1.4809160305343512
9.78,-0.9111328125,0.081787109375,-0.14794921875,-0.5954198473282443,-0.0916030534351145,-1.2900763358778626
9.79,-0.915771484375,0.079833984375,-0.136474609375,-0.4732824427480916,-0.3511450381679389,-1.3511450381679388
9.8,-0.91259765625,0.076416015625,-0.153564453125,-0.31297709923664124,-0.3893129770992366,-1.4809160305343512
9.81,-0.913818359375,0.080810546875,-0.138427734375,-0.48854961832061067,-0.20610687022900764,-1.3206106870229009
9.82,-0.915283203125,0.08056640625,-0.13720703125,-0.4351145038167939,-0.12213740458015267,-1.251908396946565
9.83,-0.91552734375,0.081298828125,-0.137451171875,-0.2366412213740458,-0.022900763358778626,-1.4122137404580153
9.84,-0.912841796875,0.091796875,-0.137939453125,-0.366412213740458,0.061068702290076333,-1.3282442748091603
9.85,-0.9140625,0.07763671875,-0.14599609375,-0.3893129770992366,1.8396946564885497,-1.4198473282442747
9.86,-0.912109375,0.093017578125,-0.139404296875,-0.40458015267175573,-0.07633587786259542,-1.2900763358778626
9.87,-0.912841796875,0.08203125,-0.13916015625,-0.4351145038167939,-0.2748091603053435,-1.2442748091603053
9.88,-0.915283203125,0.075439453125,-0.13720703125,-0.3435114503816794,-0.2595419847328244,-1.5419847328244274
9.89,-0.91552734375,0.08154296875,-0.14111328125,-0.5038167938931297,-0.15267175572519084,-1.4122137404580153
9.9,-0.917236328125,0.08056640625,-0.133544921875,-0.6641221374045801,-1.900763358778626,-1.4427480916030535
9.91,-0.9130859375,0.0625,-0.1494140625,-0.4351145038167939,0.29770992366412213,-1.549618320610687
9.92,-0.90771484375,0.079345703125,-0.138671875,-0.31297709923664124,0.015267175572519083,-1.4427480916030535
9.93,-0.91552734375,0.08154296875,-0.146240234375,-0.35877862595419846,1.916030534351145,-1.4427480916030535
9.94,-0.909423828125,0.078369140625,-0.140625,-0.4580152671755725,-0.22137404580152673,-1.2595419847328244
9.95,-0.911865234375,0.083251953125,-0.1376953125,-0.5877862595419847,-0.2595419847328244,-1.3053435114503817
9.96,-0.911376953125,0.0869140625,-0.139404296875,-0.3053435114503817,-0.11450381679389313,-1.5267175572519085
9.97,-0.9150390625,0.0732421875,-0.12841796875,-0.4122137404580153,-0.1450381679389313,-1.5877862595419847
9.98,-0.912353515625,0.079833984375,-0.13623046875,-0.22900763358778625,0.07633587786259542,-1.465648854961832
9.99,-0.919921875,0.093017578125,-0.138427734375,-0.22900763358778625,0.13740458015267176,-1.2900763358778626
10.0,-0.908203125,0.065185546875,-0.14794921875,-0.48854961832061067,1.916030534351145,-1.5419847328244274
10.01,-0.916259765625,0.077880859375,-0.148681640625,-0.37404580152671757,-0.11450381679389313,-1.3282442748091603
10.02,-0.9111328125,0.08154296875,-0.138916015625,-0.48854961832061067,-0.183206106870229,-1.5648854961832062
10.03,-0.9150390625,0.07958984375,-0.138427734375,-0.4351145038167939,-0.1450381679389313,-1.3206106870229009
10.04,-0.906982421875,0.078857421875,-0.133056640625,-0.48854961832061067,-0.2366412213740458,-1.450381679389313
10.05,-0.91259765625,0.0810546875,-0.134521484375,-0.2595419847328244,0.06870229007633588,-1.2442748091603053
10.06,-0.9169921875,0.06298828125,-0.135986328125,-0.31297709923664124,0.183206106870229,-1.6106870229007633
10.07,-0.907470703125,0.064697265625,-0.143798828125,-0.48091603053435117,-0.1450381679389313,-1.3587786259541985
10.08,-0.912353515625,0.077880859375,-0.13818359375,-0.3893129770992366,-0.16030534351145037,-1.5267175572519085
10.09,-0.908447265625,0.079345703125,-0.14453125,-0.5038167938931297,-0.21374045801526717,-1.5190839694656488
10.1,-0.916259765625,0.08251953125,-0.134033203125,-0.4580152671755725,-0.19083969465648856,-1.2442748091603053
10.11,-0.91455078125,0.07763671875,-0.134521484375,-0.40458015267175573,-0.12213740458015267,-1.4351145038167938
10.12,-0.916259765625,0.091552734375,-0.14306640625,-0.07633587786259542,-0.20610687022900764,-1.5190839694656488
10.13,-0.91455078125,0.076416015625,-0.1513671875,-0.45038167938931295,0.08396946564885496,-1.4732824427480915
10.14,-0.916748046875,0.063720703125,-0.154052734375,-0.35877862595419846,1.8931297709923665,-1.3053435114503817
10.15,-0.912109375,0.083740234375,-0.142822265625,-0.5572519083969466,1.900763358778626,-1.4122137404580153
10.16,-0.91064453125,0.077392578125,-0.129638671875,-0.2595419847328244,-0.46564885496183206,-1.3511450381679388
10.17,-0.908935546875,0.080810546875,-0.14111328125,-0.3435114503816794,-0.4122137404580153,-1.2366412213740459
10.18,-0.89404296875,0.078125,-0.138916015625,-0.2900763358778626,0.5190839694656488,-1.4732824427480915
10.19,-0.8994140625,0.065673828125,-0.143310546875,-0.45038167938931295,0.5648854961832062,-1.3206106870229009
10.2,-0.912109375,0.090087890625,-0.15283203125,-0.5419847328244275,0.04580152671755725,-1.4580152671755726
10.21,-0.905517578125,0.066162109375,-0.1484375,-0.5343511450381679,1.0305343511450382,-1.381679389312977
10.22,-0.923095703125,0.075927734375,-0.138427734375,-0.5419847328244275,-0.8091603053435115,-1.3511450381679388
10.23,-0.91064453125,0.084228515625,-0.129150390625,-0.6183206106870229,-2.6412213740458017,-1.6259541984732824
10.24,-0.9140625,0.0849609375,-0.1259765625,-0.15267175572519084,-2.030534351145038,-1.0916030534351144
10.25,-0.908447265625,0.09033203125,-0.123779296875,-0.29770992366412213,1.8625954198473282,-1.3969465648854962
10.26,-0.909423828125,0.090576171875,-0.146728515625,-0.4732824427480916,4.435114503816794,-1.2595419847328244
10.27,-0.915283203125,0.0703125,-0.162109375,-0.5419847328244275,2.015267175572519,-1.4580152671755726
10.28,-0.919189453125,0.068603515625,-0.151123046875,-0.7175572519083969,-2.5114503816793894,-1.5954198473282444
10.29,-0.915771484375,0.0693359375,-0.141357421875,-0.5648854961832062,-4.580152671755725,-1.5725190839694656
10.3,-0.912353515625,0.084228515625,-0.125732421875,-0.48854961832061067,-2.404580152671756,-1.4427480916030535
10.31,-0.915283203125,0.08544921875,-0.11181640625,-0.33587786259541985,0.13740458015267176,-1.183206106870229
10.32,-0.89697265625,0.084228515625,-0.138671875,-0.3053435114503817,3.8473282442748094,-1.1603053435114503
10.33,-0.91357421875,0.081298828125,-0.159912109375,-0.5648854961832062,1.6717557251908397,-1.465648854961832
10.34,-0.912353515625,0.072998046875,-0.149169921875,-0.549618320610687,-1.1526717557251909,-1.5801526717557253
10.35,-0.915283203125,0.070556640625,-0.130615234375,-0.26717557251908397,-2.66412213740458,-1.5725190839694656
10.36,-0.910888671875,0.077392578125,-0.1318359375,-0.5114503816793893,-1.5801526717557253,-1.3206106870229009
10.37,-0.91357421875,0.074951171875,-0.128173828125,-0.7175572519083969,0.37404580152671757,-1.4274809160305344
10.38,-0.90771484375,0.0830078125,-0.13427734375,-0.5267175572519084,1.1984732824427482,-1.3282442748091603
10.39,-0.9150390625,0.08642578125,-0.140380859375,-0.15267175572519084,0.7251908396946565,-1.3282442748091603
10.4,-0.91064453125,0.08447265625,-0.142333984375,-0.3816793893129771,0.0,-1.6488549618320612
10.41,-0.912109375,0.08203125,-0.1435546875,-0.37404580152671757,-0.17557251908396945,-1.4351145038167938
10.42,-0.91796875,0.081298828125,-0.12841796875,-0.37404580152671757,-0.5648854961832062,-1.4961832061068703
10.43,-0.91064453125,0.069580078125,-0.128173828125,-0.5648854961832062,-1.083969465648855,-1.3511450381679388
10.44,-0.916015625,0.0625,-0.13671875,-0.6564885496183206,-1.0687022900763359,-1.3740458015267176
10.45,-0.909912109375,0.078369140625,-0.142333984375,-0.35877862595419846,-1.8015267175572518,-1.3587786259541985
10.46,-0.913330078125,0.078857421875,-0.12890625,-0.4961832061068702,1.4122137404580153,-1.1145038167938932
10.47,-0.908447265625,0.082763671875,-0.143798828125,-0.6183206106870229,1.5190839694656488,-1.282442748091603
10.48,-0.909423828125,0.084228515625,-0.150634765625,-0.3282442748091603,-0.0916030534351145,-1.465648854961832
10.49,-0.91748046875,0.09326171875,-0.142822265625,-0.46564885496183206,-1.7557251908396947,-1.5190839694656488
10.5,-0.908447265625,0.072998046875,-0.132080078125,-0.5419847328244275,-2.2442748091603053,-1.5954198473282444
10.51,-0.9169921875,0.07275390625,-0.121826171875,-0.366412213740458,-0.44274809160305345,-1.3969465648854962
10.52,-0.91064453125,0.0771484375,-0.126708984375,-0.4122137404580153,1.4045801526717556,-1.2061068702290076
10.53,-0.911865234375,0.0791015625,-0.143310546875,-0.48854961832061067,1.8473282442748091,-1.2671755725190839
10.54,-0.91455078125,0.086669921875,-0.148681640625,-0.3816793893129771,0.5267175572519084,-1.450381679389313
10.55,-0.91650390625,0.084716796875,-0.154296875,-0.4122137404580153,-1.3282442748091603,-1.450381679389313
10.56,-0.909423828125,0.078369140625,-0.126220703125,-0.648854961832061,-1.7557251908396947,-1.6488549618320612
10.57,-0.917236328125,0.0771484375,-0.136962890625,-0.5343511450381679,-0.8625954198473282,-1.465648854961832
10.58,-0.91015625,0.069091796875,-0.1298828125,-0.45038167938931295,0.8702290076335878,-1.3129770992366412
10.59,-0.913330078125,0.08154296875,-0.13623046875,-0.44274809160305345,1.3206106870229009,-1.3129770992366412
10.6,-0.910888671875,0.081787109375,-0.14453125,-0.5267175572519084,0.8396946564885496,-1.366412213740458
10.61,-0.9150390625,0.0869140625,-0.149169921875,-0.3511450381679389,-0.4351145038167939,-1.4045801526717556
10.62,-0.897705078125,0.079345703125,-0.154052734375,-0.4351145038167939,-1.099236641221374,-1.6717557251908397
10.63,-0.913330078125,0.076904296875,-0.153564453125,-0.5572519083969466,-0.9770992366412213,-1.4274809160305344
10.64,-0.90869140625,0.078857421875,-0.140625,-0.3969465648854962,-0.4580152671755725,-1.4122137404580153
10.65,-0.915771484375,0.07373046875,-0.146484375,-0.46564885496183206,0.32061068702290074,-1.2748091603053435
10.66,-0.911865234375,0.074951171875,-0.125,-0.3511450381679389,0.6335877862595419,-1.2213740458015268
10.67,-0.911376953125,0.08251953125,-0.139892578125,-0.2748091603053435,0.5725190839694656,-1.2595419847328244
10.68,-0.908935546875,0.07861328125,-0.131591796875,-0.5038167938931297,-0.3511450381679389,-1.3358778625954197
10.69,-0.8955078125,0.079833984375,-0.145263671875,-0.366412213740458,-0.7709923664122137,-1.3893129770992367
10.7,-0.9130859375,0.0673828125,-0.142578125,-0.4961832061068702,-0.5038167938931297,-1.4351145038167938
10.71,-0.912109375,0.072509765625,-0.132568359375,-0.4198473282442748,-0.2366412213740458,-1.2900763358778626
10.72,-0.90576171875,0.080078125,-0.138427734375,-0.37404580152671757,0.32061068702290074,-1.4427480916030535
10.73,-0.9130859375,0.078857421875,-0.139892578125,-0.46564885496183206,0.24427480916030533,-1.366412213740458
10.74,-0.919677734375,0.07958984375,-0.132080078125,-0.5725190839694656,0.1984732824427481,-1.381679389312977
10.75,-0.90771484375,0.09326171875,-0.140625,-0.4351145038167939,-0.1297709923664122,-1.3053435114503817
10.76,-0.912109375,0.09326171875,-0.12548828125,-0.2824427480916031,-0.25190839694656486,-1.3587786259541985
10.77,-0.909423828125,0.0625,-0.132080078125,-0.6106870229007634,-1.9312977099236641,-1.465648854961832
10.78,-0.91845703125,0.07958984375,-0.13623046875,-0.48091603053435117,-0.2900763358778626,-1.4961832061068703
10.79,-0.911865234375,0.08203125,-0.144775390625,-0.40458015267175573,-0.08396946564885496,-1.465648854961832
10.8,-0.914794921875,0.07421875,-0.133056640625,-0.48854961832061067,0.1450381679389313,-1.3969465648854962
10.81,-0.912841796875,0.079345703125,-0.141845703125,-0.33587786259541985,0.24427480916030533,-1.3053435114503817
10.82,-0.91357421875,0.07958984375,-0.136474609375,-0.22137404580152673,0.2366412213740458,-1.3893129770992367
10.83,-0.917236328125,0.080078125,-0.145751953125,-0.4198473282442748,0.16793893129770993,-1.251908396946565
10.84,-0.91552734375,0.0849609375,-0.14990234375,-0.40458015267175573,-0.22900763358778625,-1.5419847328244274
10.85,-0.911865234375,0.08056640625,-0.130126953125,-0.5648854961832062,-0.6412213740458015,-1.450381679389313
10.86,-0.912109375,0.082275390625,-0.13916015625,-0.5114503816793893,-0.45038167938931295,-1.4732824427480915
10.87,-0.91064453125,0.07763671875,-0.13720703125,-0.1984732824427481,0.13740458015267176,-1.4274809160305344
10.88,-0.893310546875,0.078857421875,-0.142578125,-0.5038167938931297,0.3435114503816794,-1.4045801526717556
