Time(s),AccX,AccY,AccZ,GyrX,GyrY,GyrZ
0.0,0.34375,-0.43701171875,0.9755859375,-6.297709923664122,-21.129770992366414,-1.2061068702290076
0.01,0.35400390625,-0.408935546875,0.958251953125,-8.251908396946565,-12.84732824427481,-1.282442748091603
0.02,0.36572265625,-0.448974609375,0.978515625,-8.259541984732824,-13.816793893129772,-2.053435114503817
0.03,0.365478515625,-0.44580078125,1.010009765625,-6.1603053435114505,-15.030534351145038,-3.6793893129770994
0.04,0.3720703125,-0.44775390625,1.02099609375,-4.9541984732824424,-14.82442748091603,-4.694656488549619
0.05,0.31103515625,-0.444580078125,0.956787109375,-2.5877862595419847,-9.694656488549619,-4.656488549618321
0.06,0.333251953125,-0.460205078125,0.923095703125,-1.816793893129771,-4.8396946564885495,-4.091603053435114
0.07,0.346435546875,-0.444091796875,0.907470703125,2.213740458015267,-6.908396946564886,-4.4961832061068705
0.08,0.35400390625,-0.443115234375,0.91455078125,1.0229007633587786,-9.01526717557252,-5.4961832061068705
0.09,0.348876953125,-0.4443359375,0.942138671875,-0.6412213740458015,-8.603053435114504,-6.3893129770992365
0.1,0.349365234375,-0.4453125,0.952392578125,-1.5419847328244274,-6.938931297709924,-7.061068702290076
0.11,0.37548828125,-0.44921875,0.968994140625,-2.030534351145038,-5.870229007633588,-7.923664122137405
0.12,0.40478515625,-0.4619140625,0.99560546875,-1.1374045801526718,-4.809160305343512,-9.229007633587786
0.13,0.403076171875,-0.482666015625,1.03662109375,0.42748091603053434,-1.0610687022900764,-10.580152671755725
0.14,0.399169921875,-0.470458984375,1.03466796875,5.656488549618321,2.2442748091603053,-11.15267175572519
0.15,0.386962890625,-0.470703125,1.01611328125,7.908396946564886,-5.152671755725191,-11.80916030534351
0.16,0.458251953125,-0.446044921875,1.10302734375,7.00763358778626,-4.259541984732825,-11.335877862595419
0.17,0.456298828125,-0.454833984375,1.13330078125,-1.549618320610687,-6.206106870229007,-9.648854961832061
0.18,0.42919921875,-0.459716796875,1.15087890625,-4.938931297709924,-11.221374045801527,-6.396946564885496
0.19,0.43017578125,-0.450927734375,1.120361328125,-10.549618320610687,-12.977099236641221,-4.0534351145038165
0.2,0.42431640625,-0.43603515625,1.07763671875,-15.641221374045802,-9.893129770992367,-1.6793893129770991
0.21,0.391845703125,-0.40966796875,1.039794921875,-26.954198473282442,-5.534351145038168,2.8396946564885495
0.22,0.41455078125,-0.383056640625,0.9990234375,-37.01526717557252,8.274809160305344,5.717557251908397
0.23,0.436767578125,-0.403076171875,0.97509765625,-49.82442748091603,19.31297709923664,9.465648854961833
0.24,0.4296875,-0.489990234375,0.90478515625,-60.786259541984734,26.396946564885496,16.076335877862597
0.25,0.515380859375,-0.48095703125,0.885498046875,-72.64885496183206,31.251908396946565,18.46564885496183
0.26,0.541259765625,-0.552978515625,0.92041015625,-71.29007633587786,30.717557251908396,14.297709923664122
0.27,0.5771484375,-0.5771484375,0.933349609375,-62.76335877862596,28.763358778625953,6.0534351145038165
0.28,0.57958984375,-0.561767578125,0.9208984375,-55.51145038167939,22.557251908396946,-2.7557251908396947
0.29,0.546142578125,-0.589111328125,0.883544921875,-50.12213740458015,23.106870229007633,-9.50381679389313
0.3,0.49267578125,-0.571533203125,0.902587890625,-48.37404580152672,21.19083969465649,-12.305343511450381
0.31,0.456787109375,-0.59619140625,0.89208984375,-47.94656488549618,29.396946564885496,-12.396946564885496
0.32,0.447998046875,-0.60107421875,0.839599609375,-45.16030534351145,38.954198473282446,-11.694656488549619
0.33,0.416259765625,-0.6328125,0.81005859375,-41.55725190839695,31.671755725190838,-10.725190839694656
0.34,0.40869140625,-0.63232421875,0.855224609375,-39.954198473282446,37.56488549618321,-7.793893129770993
0.35,0.393798828125,-0.61669921875,0.864013671875,-41.19847328244275,48.06106870229008,0.45038167938931295
0.36,0.313232421875,-0.6240234375,0.862548828125,-36.66412213740458,47.44274809160305,6.450381679389313
0.37,0.2763671875,-0.587646484375,0.833984375,-34.83969465648855,48.38931297709924,12.15267175572519
0.38,0.232421875,-0.545166015625,0.828125,-34.900763358778626,51.47328244274809,17.374045801526716
0.39,0.241943359375,-0.53125,0.80615234375,-39.56488549618321,51.12213740458015,24.129770992366414
0.4,0.203125,-0.496337890625,0.78759765625,-42.786259541984734,49.06106870229008,25.50381679389313
0.41,0.1982421875,-0.48828125,0.802734375,-43.42748091603053,48.63358778625954,24.87786259541985
0.42,0.200439453125,-0.502197265625,0.79345703125,-39.770992366412216,46.458015267175576,21.908396946564885
0.43,0.20556640625,-0.468017578125,0.806640625,-35.82442748091603,41.12977099236641,17.091603053435115
0.44,0.205322265625,-0.465087890625,0.818115234375,-30.427480916030536,34.81679389312977,11.931297709923664
0.45,0.216064453125,-0.48583984375,0.794189453125,-26.69465648854962,32.030534351145036,7.106870229007634
0.46,0.144287109375,-0.4853515625,0.728515625,-22.35114503816794,28.282442748091604,2.381679389312977
0.47,0.192626953125,-0.51318359375,0.76123046875,-16.717557251908396,26.061068702290076,-1.7786259541984732
0.48,0.173095703125,-0.531982421875,0.7216796875,-10.564885496183207,24.916030534351144,-4.66412213740458
0.49,0.14990234375,-0.59765625,0.7666015625,-1.618320610687023,18.519083969465647,-3.931297709923664
0.5,0.073486328125,-0.587646484375,0.78076171875,7.824427480916031,5.435114503816794,-0.46564885496183206
0.51,0.152099609375,-0.595947265625,0.885498046875,17.366412213740457,-7.793893129770993,7.625954198473282
0.52,0.06298828125,-0.4716796875,0.835693359375,20.64885496183206,7.442748091603053,15.992366412213741
0.53,-0.013427734375,-0.438720703125,0.80224609375,19.702290076335878,-0.16030534351145037,23.923664122137403
0.54,0.00244140625,-0.424072265625,0.844970703125,17.870229007633586,1.549618320610687,28.47328244274809
0.55,0.013427734375,-0.423095703125,0.832275390625,20.519083969465647,3.83206106870229,30.045801526717558
0.56,0.039794921875,-0.447021484375,0.81396484375,24.61832061068702,-0.5190839694656488,26.267175572519083
0.57,0.063720703125,-0.437255859375,0.853515625,27.83206106870229,-5.175572519083969,21.458015267175572
0.58,0.09130859375,-0.447998046875,0.844482421875,31.16030534351145,-4.091603053435114,10.099236641221374
0.59,0.111083984375,-0.494873046875,0.87939453125,32.69465648854962,-6.541984732824427,0.7251908396946565
0.6,0.112060546875,-0.54150390625,0.883056640625,36.74809160305343,-6.305343511450381,-9.587786259541986
0.61,0.122314453125,-0.599853515625,0.900634765625,40.458015267175576,-7.709923664122138,-15.870229007633588
0.62,0.09765625,-0.626708984375,0.9423828125,42.48854961832061,-3.6106870229007635,-24.641221374045802
0.63,0.09716796875,-0.65087890625,0.945556640625,50.56488549618321,-2.7709923664122136,-28.633587786259543
0.64,0.123779296875,-0.68505859375,0.98486328125,53.725190839694655,-1.7938931297709924,-29.64885496183206
0.65,0.11376953125,-0.67724609375,1.032958984375,58.343511450381676,2.0229007633587788,-32.091603053435115
0.66,0.11328125,-0.672607421875,1.059326171875,60.656488549618324,5.0534351145038165,-34.900763358778626
0.67,0.12744140625,-0.6552734375,1.0439453125,68.07633587786259,7.33587786259542,-35.282442748091604
0.68,0.155029296875,-0.58837890625,1.040283203125,69.03053435114504,11.633587786259541,-38.9236641221374
0.69,0.114013671875,-0.552001953125,1.0068359375,69.06106870229007,14.229007633587786,-40.10687022900763
0.7,0.103759765625,-0.53955078125,0.977294921875,71.16030534351145,14.511450381679388,-43.45038167938932
0.71,0.124755859375,-0.56787109375,1.0263671875,77.81679389312977,4.587786259541985,-48.02290076335878
0.72,0.202392578125,-0.51123046875,1.054931640625,84.25954198473282,-8.916030534351146,-57.61068702290076
0.73,0.1669921875,-0.438232421875,1.054931640625,91.72519083969466,-12.83969465648855,-48.725190839694655
0.74,0.157470703125,-0.35205078125,0.9375,88.63358778625954,-38.213740458015266,-37.32824427480916
0.75,0.2294921875,-0.34130859375,0.931884765625,77.32824427480917,-32.05343511450382,-30.85496183206107
0.76,0.271484375,-0.340087890625,0.99853515625,58.94656488549618,-8.49618320610687,-16.396946564885496
0.77,0.24072265625,-0.41357421875,0.93359375,54.32824427480916,-12.694656488549619,-10.106870229007633
0.78,0.2666015625,-0.404052734375,1.012939453125,58.3587786259542,-8.549618320610687,-5.786259541984733
0.79,0.292724609375,-0.402099609375,1.015625,62.17557251908397,-1.0305343511450382,1.6946564885496183
0.8,0.292724609375,-0.367919921875,0.98291015625,62.58015267175573,-2.717557251908397,5.1679389312977095
0.81,0.330078125,-0.29296875,1.047607421875,62.221374045801525,2.183206106870229,6.793893129770993
0.82,0.234375,-0.25439453125,0.96142578125,54.93129770992366,5.33587786259542,5.580152671755725
0.83,0.283935546875,-0.206298828125,1.0234375,44.534351145038165,4.931297709923665,9.549618320610687
0.84,0.30419921875,-0.160888671875,0.97314453125,17.87786259541985,5.519083969465649,11.908396946564885
0.85,0.284912109375,-0.3037109375,0.920166015625,10.427480916030534,-7.557251908396947,10.534351145038167
0.86,0.28125,-0.330078125,1.053466796875,15.694656488549619,-11.374045801526718,8.473282442748092
0.87,0.291259765625,-0.270263671875,1.05810546875,18.16030534351145,-14.80916030534351,8.206106870229007
0.88,0.2939453125,-0.254638671875,1.02587890625,11.19083969465649,-17.755725190839694,10.458015267175572
0.89,0.29345703125,-0.342041015625,1.048095703125,9.045801526717558,-27.259541984732824,10.977099236641221
0.9,0.324462890625,-0.355712890625,1.123291015625,10.129770992366412,-27.50381679389313,11.16793893129771
0.91,0.333984375,-0.303955078125,1.0546875,7.244274809160306,-23.564885496183205,11.557251908396946
0.92,0.319091796875,-0.308837890625,1.05419921875,3.2748091603053435,-24.702290076335878,10.297709923664122
0.93,0.31689453125,-0.285400390625,1.10205078125,1.4351145038167938,-17.793893129770993,11.01526717557252
0.94,0.3046875,-0.294189453125,1.072998046875,-0.648854961832061,-14.427480916030534,11.580152671755725
0.95,0.357177734375,-0.27490234375,1.127685546875,-2.145038167938931,-13.83206106870229,8.870229007633588
0.96,0.3955078125,-0.2783203125,1.13623046875,-8.923664122137405,-4.152671755725191,4.4961832061068705
0.97,0.45703125,-0.349853515625,1.212158203125,2.6564885496183206,13.687022900763358,-1.2900763358778626
0.98,0.38623046875,-0.39501953125,1.185302734375,20.938931297709924,35.11450381679389,-5.251908396946565
0.99,0.275390625,-0.353759765625,1.04052734375,32.213740458015266,24.30534351145038,-6.557251908396947
1.0,0.248779296875,-0.287109375,1.01171875,32.0,20.022900763358777,-5.488549618320611
1.01,0.232421875,-0.27880859375,1.00244140625,25.045801526717558,16.12213740458015,-5.809160305343512
1.02,0.256591796875,-0.30029296875,0.984619140625,19.114503816793892,11.458015267175572,-6.702290076335878
1.03,0.238525390625,-0.258544921875,1.020263671875,13.900763358778626,10.282442748091603,-7.977099236641221
1.04,0.248779296875,-0.2080078125,1.04931640625,6.786259541984733,11.511450381679388,-10.51908396946565
1.05,0.24951171875,-0.199951171875,1.040771484375,2.6030534351145036,11.51908396946565,-9.877862595419847
1.06,0.231689453125,-0.179931640625,1.0517578125,0.9770992366412213,11.183206106870228,-8.251908396946565
1.07,0.199951171875,-0.146484375,1.039306640625,-4.4961832061068705,15.908396946564885,-6.137404580152672
1.08,0.180419921875,-0.160888671875,1.050537109375,-10.366412213740459,10.793893129770993,-5.847328244274809
1.09,0.2119140625,-0.20068359375,1.046142578125,-12.251908396946565,11.67175572519084,-2.6412213740458017
1.1,0.224853515625,-0.22900390625,1.044677734375,-14.114503816793894,10.86259541984733,1.633587786259542
1.11,0.22314453125,-0.2255859375,1.06982421875,-18.480916030534353,6.854961832061068,4.083969465648855
1.12,0.22265625,-0.26123046875,1.096923828125,-21.236641221374047,4.076335877862595,5.938931297709924
1.13,0.1416015625,-0.261474609375,1.06787109375,-23.709923664122137,-7.99236641221374,6.442748091603053
1.14,0.21240234375,-0.230712890625,1.108642578125,-34.152671755725194,-12.213740458015268,7.33587786259542
1.15,0.249267578125,-0.209716796875,1.079833984375,-45.20610687022901,-5.091603053435114,7.152671755725191
1.16,0.283203125,-0.228515625,0.996337890625,-58.32824427480916,2.3740458015267176,7.625954198473282
1.17,0.255126953125,-0.242919921875,0.966552734375,-67.91603053435115,1.0610687022900764,7.648854961832061
1.18,0.333740234375,-0.285888671875,0.95361328125,-71.27480916030534,-6.465648854961832,7.206106870229007
1.19,0.343017578125,-0.396240234375,0.984130859375,-62.33587786259542,-17.557251908396946,6.0534351145038165
1.2,0.3359375,-0.40185546875,1.077392578125,-48.41984732824427,-20.770992366412212,5.435114503816794
1.21,0.2744140625,-0.455322265625,1.08447265625,-27.03053435114504,-23.419847328244273,6.305343511450381
1.22,0.25439453125,-0.452880859375,1.144287109375,-12.625954198473282,-10.51908396946565,6.374045801526718
1.23,0.224365234375,-0.47607421875,1.11474609375,-5.427480916030534,1.0458015267175573,5.923664122137405
1.24,0.180908203125,-0.48974609375,0.990234375,4.1679389312977095,2.3740458015267176,4.229007633587786
1.25,0.173828125,-0.51513671875,0.893310546875,13.603053435114504,7.687022900763359,2.4427480916030535
1.26,0.152587890625,-0.495849609375,0.907958984375,14.526717557251908,12.198473282442748,-0.4351145038167939
1.27,0.25048828125,-0.445556640625,1.0234375,13.381679389312977,9.099236641221374,-5.099236641221374
1.28,0.333251953125,-0.438720703125,1.024169921875,9.022900763358779,13.595419847328245,-9.16030534351145
1.29,0.354736328125,-0.38037109375,1.003173828125,8.80916030534351,19.045801526717558,-10.84732824427481
1.3,0.278564453125,-0.382080078125,1.007568359375,12.419847328244275,20.763358778625953,-11.381679389312977
1.31,0.2255859375,-0.31787109375,1.06298828125,10.229007633587786,14.488549618320612,-10.625954198473282
1.32,0.2060546875,-0.285400390625,1.0625,2.801526717557252,11.969465648854962,-7.534351145038168
1.33,0.2060546875,-0.275390625,1.057373046875,-5.213740458015267,8.648854961832061,-5.099236641221374
1.34,0.22509765625,-0.27685546875,1.039794921875,-9.679389312977099,9.007633587786259,-2.83206106870229
1.35,0.220703125,-0.306640625,1.02490234375,-6.648854961832061,5.885496183206107,-2.045801526717557
1.36,0.1259765625,-0.27783203125,1.132568359375,0.7480916030534351,-6.366412213740458,1.8473282442748091
1.37,0.2958984375,-0.35693359375,1.137939453125,-1.5038167938931297,2.633587786259542,0.732824427480916
1.38,0.223876953125,-0.41650390625,1.058349609375,-1.6564885496183206,1.6259541984732824,-0.42748091603053434
1.39,0.26123046875,-0.3779296875,1.036865234375,0.08396946564885496,12.091603053435115,1.1603053435114503
1.4,0.279052734375,-0.367431640625,0.99853515625,-1.6412213740458015,12.86259541984733,0.6793893129770993
1.41,0.22900390625,-0.382568359375,1.03759765625,-3.3587786259541983,8.748091603053435,-0.4732824427480916
1.42,0.1826171875,-0.38134765625,1.042724609375,-6.717557251908397,-0.8549618320610687,-1.5725190839694656
1.43,0.163818359375,-0.382568359375,1.011474609375,2.1297709923664123,-2.7251908396946565,-1.534351145038168
1.44,0.197998046875,-0.389404296875,1.01025390625,10.50381679389313,2.3206106870229006,-0.7022900763358778
1.45,0.273681640625,-0.37158203125,1.0634765625,7.412213740458015,0.8473282442748091,-1.0229007633587786
1.46,0.241943359375,-0.3291015625,1.0947265625,7.290076335877862,-1.6106870229007633,-0.8015267175572519
1.47,0.224853515625,-0.31689453125,1.093017578125,4.038167938931298,-2.9160305343511452,-0.6183206106870229
1.48,0.2255859375,-0.3115234375,1.10400390625,-4.5038167938931295,-5.770992366412214,0.6259541984732825
1.49,0.25048828125,-0.25048828125,1.153076171875,-13.80916030534351,2.0763358778625953,1.2671755725190839
1.5,0.153076171875,-0.25830078125,1.078857421875,-18.72519083969466,-7.7251908396946565,0.3816793893129771
1.51,0.246826171875,-0.277099609375,1.1123046875,-16.50381679389313,9.213740458015268,-2.8244274809160306
1.52,0.212890625,-0.30908203125,1.08740234375,-13.763358778625955,11.351145038167939,-9.580152671755725
1.53,0.249755859375,-0.3759765625,1.033203125,-18.244274809160306,6.748091603053435,-16.328244274809162
1.54,0.245361328125,-0.4091796875,1.072509765625,-17.412213740458014,10.587786259541986,-18.778625954198475
1.55,0.2861328125,-0.399658203125,1.078369140625,-12.740458015267176,14.213740458015268,-17.099236641221374
1.56,0.302490234375,-0.373291015625,1.146484375,-9.419847328244275,23.290076335877863,-14.801526717557252
1.57,0.32861328125,-0.374755859375,1.136474609375,-9.17557251908397,33.541984732824424,-13.396946564885496
1.58,0.32421875,-0.34228515625,1.09423828125,-11.366412213740459,27.870229007633586,-13.229007633587786
1.59,0.335693359375,-0.329833984375,1.08447265625,-13.01526717557252,35.38167938931298,-14.603053435114504
1.6,0.327880859375,-0.33935546875,1.091796875,-15.374045801526718,60.42748091603053,-15.992366412213741
1.61,0.288330078125,-0.3447265625,1.05078125,-14.641221374045802,79.2824427480916,-17.0
1.62,0.263427734375,-0.33349609375,1.021484375,-17.0381679389313,76.04580152671755,-20.412213740458014
1.63,0.265625,-0.351806640625,1.08349609375,-17.045801526717558,75.2442748091603,-20.48854961832061
1.64,0.208251953125,-0.37890625,1.131591796875,-12.67175572519084,75.44274809160305,-17.64885496183206
1.65,0.190185546875,-0.328369140625,1.1630859375,-11.946564885496183,68.74045801526718,-14.427480916030534
1.66,0.104736328125,-0.31298828125,1.111572265625,-20.9618320610687,65.36641221374046,-9.381679389312977
1.67,0.059326171875,-0.3486328125,1.060546875,-26.18320610687023,61.52671755725191,-7.786259541984733
1.68,0.041748046875,-0.354248046875,1.02294921875,-33.87022900763359,53.786259541984734,-4.076335877862595
1.69,0.04638671875,-0.402099609375,0.9794921875,-36.76335877862596,52.20610687022901,-6.908396946564886
1.7,0.0673828125,-0.4609375,1.030517578125,-15.694656488549619,39.25190839694657,-12.053435114503817
1.71,0.1337890625,-0.457763671875,1.182373046875,-5.8320610687022905,34.404580152671755,-9.267175572519085
1.72,0.072998046875,-0.483154296875,1.17578125,-0.8702290076335878,23.916030534351144,-5.931297709923665
1.73,-0.000244140625,-0.4580078125,1.14111328125,2.2519083969465647,25.358778625954198,-1.900763358778626
1.74,-0.001953125,-0.39453125,1.10546875,-3.5801526717557253,10.099236641221374,4.137404580152672
1.75,0.01025390625,-0.365966796875,1.142578125,-12.992366412213741,6.458015267175573,6.549618320610687
1.76,0.0205078125,-0.370361328125,1.11572265625,-22.114503816793892,6.824427480916031,7.541984732824427
1.77,0.044677734375,-0.386962890625,1.057373046875,-24.82442748091603,3.6793893129770994,6.969465648854962
1.78,0.066650390625,-0.457763671875,1.090576171875,-19.671755725190838,5.564885496183206,5.763358778625954
1.79,0.0869140625,-0.528564453125,1.10595703125,-10.900763358778626,8.007633587786259,6.847328244274809
1.8,0.054931640625,-0.57666015625,1.119140625,-1.5114503816793894,9.213740458015268,10.305343511450381
1.81,0.006103515625,-0.527099609375,1.177978515625,2.3587786259541983,11.022900763358779,14.778625954198473
1.82,-0.0380859375,-0.43798828125,1.172607421875,-1.0305343511450382,7.145038167938932,16.458015267175572
1.83,-0.06103515625,-0.3759765625,1.170166015625,-8.603053435114504,-1.8931297709923665,14.17557251908397
1.84,-0.038818359375,-0.335205078125,1.17578125,-15.511450381679388,-5.961832061068702,8.946564885496183
1.85,-0.00537109375,-0.372802734375,1.1728515625,-22.106870229007633,-13.84732824427481,2.2213740458015265
1.86,0.036865234375,-0.460693359375,1.158447265625,-19.709923664122137,-16.38167938931298,-2.9160305343511452
1.87,0.092529296875,-0.562744140625,1.1865234375,-13.389312977099237,-16.435114503816795,-5.351145038167939
1.88,0.11376953125,-0.58056640625,1.1875,-6.6106870229007635,-15.969465648854962,-6.916030534351145
1.89,0.13232421875,-0.566650390625,1.23193359375,-2.50381679389313,-11.763358778625955,-5.702290076335878
1.9,0.177734375,-0.57421875,1.256103515625,-4.450381679389313,-5.091603053435114,-4.190839694656488
1.91,0.1103515625,-0.560791015625,1.178955078125,-6.488549618320611,-19.114503816793892,-5.396946564885496
1.92,0.2236328125,-0.55224609375,1.217041015625,-8.290076335877863,-19.977099236641223,-6.4961832061068705
1.93,0.216796875,-0.55615234375,1.251953125,-8.312977099236642,-10.969465648854962,-5.916030534351145
1.94,0.2060546875,-0.55712890625,1.267333984375,-10.98473282442748,-10.435114503816793,-5.038167938931298
1.95,0.172607421875,-0.53173828125,1.273193359375,-18.267175572519083,-9.618320610687023,-4.740458015267175
1.96,0.13525390625,-0.50439453125,1.198974609375,-23.00763358778626,-6.297709923664122,-5.793893129770993
1.97,0.128662109375,-0.4853515625,1.160888671875,-27.061068702290076,-10.992366412213741,-7.770992366412214
1.98,0.14501953125,-0.471435546875,1.152587890625,-29.045801526717558,-16.38167938931298,-9.099236641221374
1.99,0.159423828125,-0.486572265625,1.15234375,-29.801526717557252,-22.35114503816794,-9.213740458015268
2.0,0.18408203125,-0.47705078125,1.162841796875,-32.0763358778626,-25.389312977099237,-7.351145038167939
2.01,0.188720703125,-0.485595703125,1.117431640625,-34.534351145038165,-23.68702290076336,-4.931297709923665
2.02,0.175048828125,-0.46435546875,1.064453125,-38.74809160305343,-20.34351145038168,-2.8396946564885495
2.03,0.17431640625,-0.451416015625,1.01806640625,-41.14503816793893,-18.14503816793893,-1.2671755725190839
2.04,0.165771484375,-0.446533203125,0.995849609375,-41.80916030534351,-18.702290076335878,0.40458015267175573
2.05,0.157470703125,-0.44482421875,0.984130859375,-42.98473282442748,-20.916030534351144,2.2213740458015265
2.06,0.1630859375,-0.4482421875,0.963134765625,-40.213740458015266,-21.27480916030534,4.458015267175573
2.07,0.15283203125,-0.450439453125,0.931640625,-38.732824427480914,-19.755725190839694,5.931297709923665
2.08,0.1298828125,-0.45556640625,0.9033203125,-39.045801526717554,-16.290076335877863,5.99236641221374
2.09,0.129638671875,-0.41015625,0.869384765625,-32.396946564885496,-15.282442748091603,6.068702290076335
2.1,0.153076171875,-0.374755859375,0.86767578125,-29.870229007633586,-15.305343511450381,7.465648854961832
2.11,0.14111328125,-0.347900390625,0.867431640625,-33.045801526717554,-16.213740458015266,10.17557251908397
2.12,0.142578125,-0.343505859375,0.84228515625,-38.82442748091603,-16.099236641221374,13.65648854961832
2.13,0.113037109375,-0.34033203125,0.822998046875,-42.083969465648856,-14.335877862595419,14.854961832061068
2.14,0.086181640625,-0.328369140625,0.787353515625,-45.42748091603053,-11.694656488549619,13.49618320610687
2.15,0.068115234375,-0.388671875,0.705078125,-43.66412213740458,-2.4885496183206106,10.98473282442748
2.16,0.080078125,-0.410888671875,0.659912109375,-37.54961832061068,6.435114503816794,9.19083969465649
2.17,0.0927734375,-0.41162109375,0.630615234375,-32.16030534351145,17.6793893129771,8.694656488549619
2.18,0.0419921875,-0.396240234375,0.553955078125,-35.038167938931295,8.633587786259541,9.19083969465649
2.19,0.073486328125,-0.3984375,0.56689453125,-38.44274809160305,6.229007633587786,9.83206106870229
2.2,0.041748046875,-0.35107421875,0.5869140625,-40.32824427480916,5.541984732824427,11.564885496183207
2.21,0.06689453125,-0.35400390625,0.593505859375,-38.47328244274809,5.267175572519084,13.183206106870228
2.22,0.065673828125,-0.377197265625,0.589599609375,-37.67175572519084,5.984732824427481,12.648854961832061
2.23,0.1025390625,-0.33935546875,0.56494140625,-36.31297709923664,5.290076335877862,11.83969465648855
2.24,0.07080078125,-0.398681640625,0.5634765625,-31.6793893129771,5.717557251908397,11.389312977099237
2.25,0.040283203125,-0.3984375,0.528564453125,-27.72519083969466,8.595419847328245,10.908396946564885
2.26,0.013916015625,-0.39453125,0.493408203125,-25.99236641221374,8.625954198473282,9.488549618320612
2.27,-0.010498046875,-0.428466796875,0.491455078125,-25.64885496183206,10.419847328244275,7.290076335877862
2.28,-0.04736328125,-0.403076171875,0.453369140625,-25.85496183206107,9.763358778625955,4.9465648854961835
2.29,0.06005859375,-0.394775390625,0.510986328125,-23.6793893129771,11.038167938931299,3.8625954198473282
2.3,0.02685546875,-0.412353515625,0.425048828125,-21.793893129770993,3.404580152671756,0.5190839694656488
2.31,0.06103515625,-0.400390625,0.489501953125,-17.16030534351145,4.6106870229007635,0.9236641221374046
2.32,0.03369140625,-0.45556640625,0.37353515625,-12.687022900763358,7.015267175572519,0.3893129770992366
2.33,0.118896484375,-0.451416015625,0.44921875,-5.00763358778626,2.801526717557252,0.13740458015267176
2.34,0.074462890625,-0.49365234375,0.47265625,8.916030534351146,2.9389312977099236,0.3282442748091603
2.35,0.12158203125,-0.49658203125,0.497314453125,23.0381679389313,4.305343511450381,0.7480916030534351
2.36,0.0458984375,-0.481201171875,0.504150390625,32.18320610687023,2.50381679389313,2.0229007633587788
2.37,0.040771484375,-0.46484375,0.569580078125,40.44274809160305,2.381679389312977,3.2213740458015265
2.38,0.03515625,-0.47119140625,0.66064453125,45.0763358778626,1.2061068702290076,5.030534351145038
2.39,0.00927734375,-0.465087890625,0.70166015625,47.19847328244275,-0.17557251908396945,6.458015267175573
2.4,0.005126953125,-0.438232421875,0.720703125,47.25190839694657,0.6030534351145038,6.587786259541985
2.41,0.020751953125,-0.443115234375,0.7646484375,49.847328244274806,0.37404580152671757,5.076335877862595
2.42,0.02490234375,-0.454833984375,0.809814453125,54.70992366412214,-0.9923664122137404,5.847328244274809
2.43,0.03076171875,-0.447998046875,0.87060546875,60.969465648854964,-3.480916030534351,3.83206106870229
2.44,0.018798828125,-0.42919921875,0.941162109375,62.717557251908396,-5.2748091603053435,4.221374045801527
2.45,0.01708984375,-0.39599609375,0.989990234375,60.51908396946565,-5.0458015267175576,4.366412213740458
2.46,0.0185546875,-0.386962890625,1.014892578125,50.10687022900763,-2.4580152671755724,2.4580152671755724
2.47,0.02685546875,-0.41796875,1.03955078125,41.541984732824424,-0.13740458015267176,-1.9541984732824427
2.48,0.06005859375,-0.465087890625,1.072998046875,35.900763358778626,-0.3893129770992366,-7.076335877862595
2.49,0.092041015625,-0.524169921875,1.045654296875,36.229007633587784,2.8702290076335877,-11.534351145038167
2.5,0.1220703125,-0.563720703125,1.045166015625,41.3587786259542,4.320610687022901,-13.793893129770993
2.51,0.140380859375,-0.573974609375,1.06640625,45.67175572519084,3.9236641221374047,-13.022900763358779
2.52,0.177734375,-0.564697265625,1.120849609375,44.58015267175573,10.061068702290076,-11.648854961832061
2.53,0.19287109375,-0.587646484375,1.140869140625,41.42748091603053,11.938931297709924,-10.908396946564885
2.54,0.213134765625,-0.601806640625,1.133544921875,39.66412213740458,20.916030534351144,-9.86259541984733
2.55,0.22314453125,-0.654296875,1.171875,39.11450381679389,26.34351145038168,-8.450381679389313
2.56,0.224609375,-0.684814453125,1.180908203125,40.49618320610687,32.58015267175573,-6.145038167938932
2.57,0.20361328125,-0.6943359375,1.197265625,40.93893129770992,36.38167938931298,-3.1603053435114505
2.58,0.1982421875,-0.697265625,1.23974609375,40.87786259541985,39.343511450381676,-0.15267175572519084
2.59,0.18896484375,-0.685302734375,1.262939453125,37.603053435114504,40.030534351145036,2.404580152671756
2.6,0.16943359375,-0.707275390625,1.277099609375,36.045801526717554,41.17557251908397,3.8396946564885495
2.61,0.151611328125,-0.716064453125,1.283935546875,35.732824427480914,42.19083969465649,4.916030534351145
2.62,0.128173828125,-0.708740234375,1.2958984375,32.49618320610687,37.19083969465649,4.816793893129771
2.63,0.124267578125,-0.7158203125,1.32421875,30.061068702290076,35.00763358778626,5.9541984732824424
2.64,0.1044921875,-0.686279296875,1.343505859375,26.259541984732824,26.229007633587788,7.488549618320611
2.65,0.092041015625,-0.682373046875,1.34326171875,22.862595419847327,18.916030534351144,8.442748091603054
2.66,0.07568359375,-0.66064453125,1.361572265625,18.068702290076335,10.587786259541986,8.541984732824428
2.67,0.065673828125,-0.625732421875,1.367919921875,12.709923664122137,2.5267175572519083,6.816793893129771
2.68,0.07275390625,-0.605712890625,1.388671875,7.480916030534351,-6.8396946564885495,3.5114503816793894
2.69,0.094970703125,-0.626220703125,1.379638671875,3.633587786259542,-16.610687022900763,-0.183206106870229
2.7,0.103515625,-0.6650390625,1.38720703125,1.0076335877862594,-16.480916030534353,-1.8854961832061068
2.71,0.11181640625,-0.661376953125,1.326416015625,-1.7251908396946565,-13.84732824427481,-0.7251908396946565
2.72,0.15185546875,-0.662841796875,1.3603515625,-3.33587786259542,-9.580152671755725,1.3969465648854962
2.73,0.1171875,-0.650390625,1.321044921875,-3.6259541984732824,-9.19083969465649,2.648854961832061
2.74,0.103271484375,-0.644287109375,1.260498046875,-6.595419847328245,-23.33587786259542,2.435114503816794
2.75,0.075927734375,-0.56494140625,1.287353515625,-12.145038167938932,-23.18320610687023,3.015267175572519
2.76,0.091796875,-0.5751953125,1.288818359375,-18.427480916030536,-27.610687022900763,2.801526717557252
2.77,0.107177734375,-0.56982421875,1.283203125,-25.297709923664122,-30.0,2.687022900763359
2.78,0.122314453125,-0.5869140625,1.26513671875,-27.427480916030536,-28.572519083969464,3.2977099236641223
2.79,0.123779296875,-0.6103515625,1.23974609375,-30.114503816793892,-26.48854961832061,4.824427480916031
2.8,0.11474609375,-0.607177734375,1.20703125,-30.69465648854962,-22.96946564885496,6.969465648854962
2.81,0.106689453125,-0.58154296875,1.187255859375,-32.82442748091603,-24.625954198473284,8.893129770992367
2.82,0.096923828125,-0.566162109375,1.1787109375,-34.969465648854964,-25.49618320610687,9.114503816793894
2.83,0.102783203125,-0.560791015625,1.167724609375,-38.25190839694657,-26.374045801526716,8.954198473282442
2.84,0.0888671875,-0.544921875,1.145751953125,-41.534351145038165,-25.564885496183205,9.709923664122137
2.85,0.08642578125,-0.561279296875,1.1064453125,-41.969465648854964,-24.061068702290076,7.6183206106870225
2.86,0.0986328125,-0.579833984375,1.07470703125,-38.80916030534351,-20.83969465648855,3.6946564885496183
2.87,0.11767578125,-0.535400390625,1.077880859375,-35.55725190839695,-19.38167938931298,2.8702290076335877
2.88,0.125732421875,-0.521484375,1.095703125,-33.343511450381676,-17.916030534351144,3.900763358778626
2.89,0.1533203125,-0.4931640625,1.100341796875,-36.587786259541986,-15.473282442748092,6.625954198473282
2.9,0.1142578125,-0.501708984375,1.0830078125,-39.29770992366412,-15.618320610687023,7.893129770992366
2.91,0.076904296875,-0.453857421875,1.06396484375,-41.16793893129771,-10.557251908396946,11.526717557251908
2.92,0.0498046875,-0.42236328125,1.0380859375,-48.61068702290076,-9.648854961832061,10.50381679389313
2.93,0.030517578125,-0.414794921875,0.98583984375,-52.68702290076336,-9.366412213740459,7.0458015267175576
2.94,0.03857421875,-0.415283203125,0.95703125,-54.19083969465649,-10.366412213740459,3.0916030534351147
2.95,0.05029296875,-0.435302734375,0.938232421875,-57.267175572519086,-10.13740458015267,0.08396946564885496
2.96,0.063720703125,-0.45263671875,0.89404296875,-57.38167938931298,-8.312977099236642,-1.213740458015267
2.97,0.086669921875,-0.465576171875,0.8603515625,-55.19083969465649,-5.0534351145038165,-1.1145038167938932
2.98,0.08447265625,-0.453857421875,0.837158203125,-53.038167938931295,-1.1603053435114503,-1.1984732824427482
2.99,0.09716796875,-0.438720703125,0.8125,-50.85496183206107,0.9236641221374046,-1.7328244274809161
3.0,0.110595703125,-0.415771484375,0.7900390625,-49.44274809160305,3.66412213740458,-2.213740458015267
3.01,0.114990234375,-0.40478515625,0.7685546875,-50.14503816793893,5.557251908396947,-2.6259541984732824
3.02,0.1044921875,-0.414306640625,0.74462890625,-51.83969465648855,8.404580152671755,-1.8015267175572518
3.03,0.087158203125,-0.426025390625,0.72216796875,-52.74809160305343,12.251908396946565,-0.7786259541984732
3.04,0.072998046875,-0.422119140625,0.676513671875,-52.55725190839695,16.572519083969464,-0.4198473282442748
3.05,0.0654296875,-0.4345703125,0.6494140625,-50.656488549618324,20.221374045801525,-1.0610687022900764
3.06,0.0654296875,-0.43017578125,0.6181640625,-48.25190839694657,22.717557251908396,-0.022900763358778626
3.07,0.0498046875,-0.392333984375,0.595703125,-47.587786259541986,20.946564885496183,-4.67175572519084
3.08,0.08984375,-0.4208984375,0.606201171875,-46.25190839694657,20.82442748091603,-5.419847328244275
3.09,0.078857421875,-0.459228515625,0.607177734375,-42.70992366412214,15.992366412213741,-4.1679389312977095
3.1,0.06689453125,-0.44921875,0.567626953125,-42.030534351145036,16.099236641221374,-3.6030534351145036
3.11,0.087158203125,-0.443603515625,0.5546875,-37.9236641221374,17.099236641221374,-2.6564885496183206
3.12,0.0947265625,-0.4677734375,0.55615234375,-32.412213740458014,15.221374045801527,-1.786259541984733
3.13,0.094970703125,-0.470703125,0.546630859375,-27.66412213740458,14.82442748091603,-0.46564885496183206
3.14,0.084716796875,-0.47119140625,0.53369140625,-20.587786259541986,13.030534351145038,1.0381679389312977
3.15,0.077880859375,-0.483642578125,0.521484375,-14.404580152671755,13.595419847328245,1.9770992366412214
3.16,0.04833984375,-0.470703125,0.5419921875,-8.595419847328245,9.923664122137405,3.0839694656488548
3.17,0.07421875,-0.45849609375,0.549560546875,-5.129770992366412,8.770992366412214,3.717557251908397
3.18,0.064208984375,-0.477783203125,0.5634765625,-2.1603053435114505,8.67175572519084,4.305343511450381
3.19,0.072509765625,-0.479736328125,0.5673828125,1.9312977099236641,8.290076335877863,5.564885496183206
3.2,0.063232421875,-0.46142578125,0.578125,5.488549618320611,8.251908396946565,7.099236641221374
3.21,0.075927734375,-0.477294921875,0.575927734375,9.114503816793894,7.679389312977099,8.022900763358779
3.22,0.094970703125,-0.508056640625,0.611328125,15.061068702290076,8.030534351145038,10.938931297709924
3.23,0.07177734375,-0.490234375,0.618408203125,17.83206106870229,6.595419847328245,14.198473282442748
3.24,0.066650390625,-0.502685546875,0.64697265625,20.206106870229007,10.106870229007633,16.96946564885496
3.25,0.044189453125,-0.5283203125,0.702392578125,20.244274809160306,9.198473282442748,18.221374045801525
3.26,0.03369140625,-0.5283203125,0.675048828125,22.82442748091603,13.732824427480915,19.587786259541986
3.27,0.016357421875,-0.517333984375,0.68017578125,24.96946564885496,16.236641221374047,20.267175572519083
3.28,0.0283203125,-0.4931640625,0.697265625,25.702290076335878,17.916030534351144,20.35114503816794
3.29,0.019775390625,-0.480224609375,0.73583984375,27.702290076335878,16.603053435114504,19.99236641221374
3.3,0.0224609375,-0.49658203125,0.800537109375,27.129770992366414,15.755725190839694,18.85496183206107
3.31,0.00732421875,-0.499755859375,0.84326171875,26.412213740458014,18.16030534351145,18.137404580152673
3.32,0.0,-0.517822265625,0.84326171875,26.068702290076335,22.427480916030536,17.419847328244273
3.33,-0.01904296875,-0.537841796875,0.84228515625,29.14503816793893,26.87786259541985,16.763358778625953
3.34,-0.03271484375,-0.53662109375,0.854736328125,30.53435114503817,29.450381679389313,16.076335877862597
3.35,-0.03564453125,-0.536376953125,0.83837890625,32.83969465648855,32.534351145038165,15.290076335877863
3.36,-0.048583984375,-0.5341796875,0.8505859375,34.37404580152672,33.404580152671755,14.16793893129771
3.37,-0.087890625,-0.550537109375,0.8740234375,34.70229007633588,31.862595419847327,12.633587786259541
3.38,-0.080078125,-0.558349609375,0.898193359375,33.54961832061068,28.900763358778626,10.83206106870229
3.39,-0.077880859375,-0.557373046875,0.90771484375,33.458015267175576,27.290076335877863,8.870229007633588
3.4,-0.0712890625,-0.544677734375,0.936767578125,31.061068702290076,25.015267175572518,6.9541984732824424
3.41,-0.075439453125,-0.5927734375,0.952880859375,32.13740458015267,23.541984732824428,4.412213740458015
3.42,-0.080322265625,-0.63623046875,0.94873046875,35.83206106870229,24.3206106870229,2.1755725190839694
3.43,-0.080810546875,-0.65380859375,0.985595703125,39.51908396946565,23.374045801526716,1.2442748091603053
3.44,-0.073974609375,-0.671875,1.04052734375,42.49618320610687,18.81679389312977,1.5954198473282444
3.45,-0.07275390625,-0.682373046875,1.07666015625,43.82442748091603,14.49618320610687,3.236641221374046
3.46,-0.077880859375,-0.6767578125,1.079833984375,41.58015267175573,11.053435114503817,4.625954198473282
3.47,-0.083740234375,-0.6767578125,1.10986328125,38.74809160305343,7.2748091603053435,5.5038167938931295
3.48,-0.078369140625,-0.691162109375,1.142822265625,38.67175572519084,5.229007633587786,4.702290076335878
3.49,-0.083740234375,-0.707763671875,1.162353515625,37.961832061068705,3.0076335877862594,2.633587786259542
3.5,-0.078369140625,-0.7177734375,1.187255859375,35.20610687022901,3.877862595419847,-0.6259541984732825
3.51,-0.083984375,-0.728759765625,1.19921875,32.900763358778626,-0.26717557251908397,-4.358778625954199
3.52,-0.051025390625,-0.732421875,1.216064453125,30.633587786259543,-0.7022900763358778,-7.526717557251908
3.53,-0.024169921875,-0.761962890625,1.220703125,29.229007633587788,-3.2519083969465647,-9.450381679389313
3.54,0.005615234375,-0.767333984375,1.26416015625,27.03053435114504,-5.0,-10.305343511450381
3.55,0.029052734375,-0.77001953125,1.3095703125,25.198473282442748,-6.091603053435114,-9.732824427480915
3.56,0.018798828125,-0.781494140625,1.306396484375,20.48854961832061,-5.022900763358779,-8.465648854961833
3.57,-0.010009765625,-0.792236328125,1.2978515625,18.48854961832061,-3.435114503816794,-7.32824427480916
3.58,-0.027099609375,-0.789794921875,1.31201171875,15.679389312977099,-4.175572519083969,-6.748091603053435
3.59,-0.02783203125,-0.780029296875,1.31591796875,12.358778625954198,-6.824427480916031,-8.061068702290076
3.6,-0.01953125,-0.728515625,1.33984375,8.931297709923664,-10.076335877862595,-10.297709923664122
3.61,-0.0205078125,-0.69970703125,1.321044921875,4.114503816793893,-12.274809160305344,-12.381679389312977
3.62,-0.005615234375,-0.697265625,1.333251953125,-1.015267175572519,-15.595419847328245,-13.511450381679388
3.63,0.00732421875,-0.67431640625,1.34375,-7.022900763358779,-16.84732824427481,-13.541984732824428
3.64,0.002197265625,-0.65576171875,1.322265625,-11.877862595419847,-16.862595419847327,-12.870229007633588
3.65,0.009521484375,-0.65380859375,1.28515625,-17.65648854961832,-17.15267175572519,-12.534351145038167
3.66,-0.003662109375,-0.650146484375,1.258056640625,-22.938931297709924,-16.549618320610687,-12.351145038167939
3.67,-0.017333984375,-0.627197265625,1.22509765625,-23.48854961832061,-17.16793893129771,-12.404580152671755
3.68,0.00439453125,-0.6044921875,1.216796875,-27.374045801526716,-18.435114503816795,-12.068702290076336
3.69,0.00732421875,-0.605224609375,1.203857421875,-32.83969465648855,-19.31297709923664,-11.557251908396946
3.7,0.0009765625,-0.59423828125,1.172607421875,-35.18320610687023,-19.64885496183206,-10.549618320610687
3.71,0.005615234375,-0.5849609375,1.130859375,-40.98473282442748,-18.862595419847327,-10.435114503816793
3.72,-0.003173828125,-0.587158203125,1.102783203125,-41.10687022900763,-18.549618320610687,-10.786259541984732
3.73,0.0107421875,-0.5888671875,1.08544921875,-44.282442748091604,-17.9618320610687,-11.17557251908397
3.74,0.007080078125,-0.594482421875,1.0517578125,-45.17557251908397,-17.3206106870229,-11.526717557251908
3.75,0.014404296875,-0.600830078125,1.03369140625,-45.0763358778626,-16.900763358778626,-11.076335877862595
3.76,0.024169921875,-0.59619140625,1.037109375,-43.98473282442748,-17.0,-9.587786259541986
3.77,0.030517578125,-0.57763671875,1.040771484375,-45.19847328244275,-16.404580152671755,-9.679389312977099
3.78,0.022705078125,-0.5654296875,1.016357421875,-47.534351145038165,-15.129770992366412,-6.061068702290076
3.79,0.013916015625,-0.57275390625,0.995849609375,-48.48091603053435,-13.038167938931299,-5.633587786259542
3.8,0.00927734375,-0.556640625,0.946533203125,-48.54961832061068,-11.312977099236642,-5.580152671755725
3.81,0.021484375,-0.562255859375,0.937744140625,-48.38167938931298,-11.16793893129771,-5.5038167938931295
3.82,0.02734375,-0.574462890625,0.914794921875,-47.02290076335878,-10.282442748091603,-4.687022900763359
3.83,0.038330078125,-0.566162109375,0.9013671875,-46.05343511450382,-9.511450381679388,-3.3206106870229006
3.84,0.0380859375,-0.5615234375,0.89111328125,-45.87022900763359,-8.610687022900763,-1.4351145038167938
3.85,0.03662109375,-0.55859375,0.873046875,-44.79389312977099,-7.419847328244275,0.8473282442748091
3.86,0.04443359375,-0.53662109375,0.85205078125,-44.19083969465649,-7.0458015267175576,2.7786259541984735
3.87,0.048095703125,-0.522216796875,0.829833984375,-45.900763358778626,-5.587786259541985,4.320610687022901
3.88,0.030517578125,-0.51806640625,0.78125,-46.68702290076336,-4.778625954198473,5.022900763358779
3.89,0.031005859375,-0.524169921875,0.75341796875,-45.36641221374046,-3.1603053435114505,5.526717557251908
3.9,0.02099609375,-0.528076171875,0.747314453125,-42.54961832061068,-2.9923664122137406,6.099236641221374
3.91,0.044189453125,-0.51611328125,0.72900390625,-40.38167938931298,-2.4427480916030535,6.603053435114504
3.92,0.037841796875,-0.51611328125,0.693359375,-38.52671755725191,-1.4198473282442747,6.580152671755725
3.93,0.037353515625,-0.51513671875,0.6875,-36.51145038167939,-0.17557251908396945,6.564885496183206
3.94,0.0341796875,-0.5048828125,0.674072265625,-35.11450381679389,0.6870229007633588,6.5038167938931295
3.95,0.000244140625,-0.47119140625,0.630126953125,-35.404580152671755,1.8015267175572518,4.748091603053435
3.96,0.0322265625,-0.48193359375,0.616455078125,-35.38931297709924,-0.5190839694656488,2.435114503816794
3.97,0.033203125,-0.51611328125,0.639892578125,-31.282442748091604,-3.480916030534351,0.6717557251908397
3.98,0.033203125,-0.52734375,0.60009765625,-28.900763358778626,-2.015267175572519,0.4122137404580153
3.99,0.019775390625,-0.525390625,0.593017578125,-24.885496183206108,-1.3358778625954197,-0.29770992366412213
4.0,0.028076171875,-0.5224609375,0.57421875,-21.213740458015266,0.3282442748091603,-1.4580152671755726
4.01,0.0361328125,-0.52783203125,0.570556640625,-16.885496183206108,0.06870229007633588,-2.9083969465648853
4.02,0.03857421875,-0.5400390625,0.56689453125,-11.251908396946565,-1.2748091603053435,-3.969465648854962
4.03,0.043701171875,-0.5341796875,0.561767578125,-5.099236641221374,-0.04580152671755725,-4.076335877862595
4.04,0.03271484375,-0.53662109375,0.57568359375,-0.9847328244274809,-2.122137404580153,-3.7938931297709924
4.05,0.044921875,-0.517822265625,0.58837890625,2.2290076335877864,-2.404580152671756,-2.946564885496183
4.06,0.044677734375,-0.5302734375,0.602294921875,4.732824427480916,-3.648854961832061,-2.114503816793893
4.07,0.032958984375,-0.52587890625,0.61328125,6.435114503816794,-4.732824427480916,-1.8778625954198473
4.08,0.038818359375,-0.520751953125,0.6181640625,5.908396946564886,-6.312977099236641,-2.145038167938931
4.09,0.04052734375,-0.54248046875,0.612548828125,11.053435114503817,-7.465648854961832,-2.2977099236641223
4.1,0.034423828125,-0.540283203125,0.62060546875,14.419847328244275,-8.610687022900763,-2.1068702290076335
4.11,0.034912109375,-0.552001953125,0.64501953125,18.564885496183205,-8.83969465648855,-1.1755725190839694
4.12,0.052001953125,-0.552001953125,0.66357421875,22.16793893129771,-8.49618320610687,0.3816793893129771
4.13,0.054931640625,-0.548583984375,0.7001953125,24.229007633587788,-9.213740458015268,2.2290076335877864
4.14,0.051025390625,-0.5361328125,0.725341796875,24.053435114503817,-10.412213740458014,1.984732824427481
4.15,0.04736328125,-0.52490234375,0.75341796875,22.885496183206108,-11.274809160305344,5.038167938931298
4.16,0.04345703125,-0.537109375,0.76123046875,21.35114503816794,-12.458015267175572,5.793893129770993
4.17,0.050537109375,-0.534912109375,0.7734375,19.48854961832061,-11.572519083969466,5.900763358778626
4.18,0.06005859375,-0.556640625,0.77294921875,19.442748091603054,-10.778625954198473,5.625954198473282
4.19,0.072998046875,-0.550048828125,0.76611328125,20.450381679389313,-7.847328244274809,4.633587786259542
4.2,0.04150390625,-0.553955078125,0.762451171875,21.412213740458014,-11.030534351145038,1.7404580152671756
4.21,0.076171875,-0.60791015625,0.826171875,23.541984732824428,-3.3206106870229006,1.183206106870229
4.22,0.056884765625,-0.6142578125,0.816650390625,25.946564885496183,-1.9618320610687023,3.564885496183206
4.23,0.05078125,-0.591796875,0.839111328125,25.52671755725191,4.740458015267175,6.442748091603053
4.24,0.041259765625,-0.599365234375,0.8359375,26.16030534351145,8.778625954198473,6.824427480916031
4.25,0.038818359375,-0.5888671875,0.84912109375,25.236641221374047,10.725190839694656,5.961832061068702
4.26,0.032470703125,-0.58935546875,0.86376953125,24.33587786259542,9.679389312977099,4.351145038167939
4.27,0.031982421875,-0.60107421875,0.87744140625,23.84732824427481,11.198473282442748,2.2977099236641223
4.28,0.025390625,-0.624755859375,0.860595703125,23.778625954198475,13.633587786259541,0.8854961832061069
4.29,0.015625,-0.636962890625,0.881103515625,25.366412213740457,16.083969465648856,0.5343511450381679
4.3,0.014404296875,-0.6455078125,0.880859375,27.50381679389313,18.610687022900763,0.1450381679389313
4.31,-0.015625,-0.629150390625,0.873779296875,30.076335877862597,19.717557251908396,-0.33587786259541985
4.32,-0.012939453125,-0.612060546875,0.87939453125,31.641221374045802,18.6793893129771,-1.3893129770992367
4.33,-0.01123046875,-0.622802734375,0.8779296875,31.52671755725191,16.85496183206107,-2.854961832061069
4.34,-0.00830078125,-0.624267578125,0.894775390625,30.541984732824428,15.541984732824428,-4.290076335877862
4.35,0.00341796875,-0.642333984375,0.916015625,29.099236641221374,10.625954198473282,-4.938931297709924
4.36,-0.00146484375,-0.65673828125,0.924560546875,29.083969465648856,8.633587786259541,-4.396946564885496
4.37,0.003173828125,-0.673583984375,0.9306640625,27.374045801526716,6.984732824427481,-3.984732824427481
4.38,-0.012451171875,-0.68408203125,0.936279296875,29.366412213740457,6.244274809160306,-4.00763358778626
4.39,-0.01123046875,-0.6962890625,0.9248046875,30.80916030534351,4.244274809160306,-5.648854961832061
4.4,0.01513671875,-0.701171875,0.93896484375,33.0,2.3282442748091605,-7.755725190839694
4.41,0.008544921875,-0.7001953125,0.966064453125,34.847328244274806,0.6793893129770993,-9.664122137404581
4.42,0.029541015625,-0.716796875,0.975341796875,35.88549618320611,-0.10687022900763359,-10.419847328244275
4.43,0.041015625,-0.737548828125,1.00732421875,36.725190839694655,-2.16793893129771,-10.244274809160306
4.44,0.05908203125,-0.748046875,1.018310546875,36.51145038167939,-4.473282442748092,-9.854961832061068
4.45,0.0771484375,-0.76513671875,1.044677734375,35.221374045801525,-7.068702290076335,-9.603053435114504
4.46,0.07177734375,-0.760009765625,1.062744140625,36.82442748091603,-10.229007633587786,-9.32824427480916
4.47,0.096435546875,-0.75244140625,1.135009765625,35.74809160305343,-13.633587786259541,-8.885496183206106
4.48,0.103271484375,-0.788330078125,1.14404296875,35.50381679389313,-9.854961832061068,-8.389312977099237
4.49,0.10986328125,-0.79345703125,1.1943359375,37.70229007633588,-13.076335877862595,-7.656488549618321
4.5,0.11572265625,-0.763916015625,1.248046875,37.47328244274809,-12.374045801526718,-6.694656488549619
4.51,0.1201171875,-0.747314453125,1.2890625,34.0763358778626,-14.870229007633588,-5.770992366412214
4.52,0.111083984375,-0.72412109375,1.332763671875,31.114503816793892,-13.49618320610687,-4.244274809160306
4.53,0.113037109375,-0.703857421875,1.353759765625,22.015267175572518,-12.297709923664122,-3.122137404580153
4.54,0.115966796875,-0.7060546875,1.357666015625,15.091603053435115,-13.633587786259541,-1.6641221374045803
4.55,0.09814453125,-0.696533203125,1.337646484375,11.572519083969466,-9.969465648854962,-1.2748091603053435
4.56,0.105712890625,-0.671142578125,1.34326171875,4.442748091603053,-10.229007633587786,-1.786259541984733
4.57,0.09228515625,-0.658447265625,1.336181640625,-2.4885496183206106,-12.992366412213741,-2.633587786259542
4.58,0.083251953125,-0.62890625,1.330322265625,-10.366412213740459,-13.053435114503817,-3.7480916030534353
4.59,0.090087890625,-0.62646484375,1.298583984375,-16.81679389312977,-12.587786259541986,-4.740458015267175
4.6,0.07763671875,-0.610107421875,1.253662109375,-21.900763358778626,-11.641221374045802,-6.33587786259542
4.61,0.0810546875,-0.61083984375,1.220947265625,-27.137404580152673,-11.17557251908397,-8.061068702290076
4.62,0.087890625,-0.607421875,1.206787109375,-31.022900763358777,-12.702290076335878,-9.770992366412214
4.63,0.111572265625,-0.6064453125,1.1826171875,-34.17557251908397,-13.13740458015267,-11.091603053435115
4.64,0.106201171875,-0.613525390625,1.158447265625,-36.30534351145038,-13.145038167938932,-9.801526717557252
4.65,0.09912109375,-0.61181640625,1.138916015625,-38.847328244274806,-11.770992366412214,-11.061068702290076
4.66,0.109130859375,-0.612060546875,1.093994140625,-40.58015267175573,-9.801526717557252,-10.297709923664122
4.67,0.105224609375,-0.6123046875,1.08203125,-42.18320610687023,-10.17557251908397,-9.381679389312977
4.68,0.10107421875,-0.594482421875,1.077880859375,-44.42748091603053,-10.17557251908397,-7.854961832061068
4.69,0.090087890625,-0.5810546875,1.028564453125,-47.25954198473283,-9.702290076335878,-6.206106870229007
4.7,0.076904296875,-0.58056640625,1.01953125,-49.6793893129771,-11.114503816793894,-4.557251908396947
4.71,0.06298828125,-0.587890625,1.00830078125,-52.11450381679389,-12.50381679389313,-3.0763358778625953
4.72,0.077392578125,-0.590087890625,0.96826171875,-54.229007633587784,-14.297709923664122,-2.0381679389312977
4.73,0.077392578125,-0.619384765625,0.95068359375,-53.961832061068705,-15.732824427480915,-1.5419847328244274
4.74,0.068603515625,-0.61474609375,0.9423828125,-52.62595419847328,-17.900763358778626,-1.0763358778625953
4.75,0.103515625,-0.461181640625,0.922607421875,-55.732824427480914,-15.946564885496183,0.648854961832061
4.76,0.0712890625,-0.593994140625,0.92626953125,-52.93893129770992,-23.213740458015266,1.1908396946564885
4.77,0.098388671875,-0.582763671875,0.931396484375,-53.83969465648855,-21.885496183206108,1.7709923664122138
4.78,0.09619140625,-0.591796875,0.890380859375,-53.32824427480916,-19.236641221374047,2.6793893129770994
4.79,0.095703125,-0.589599609375,0.883544921875,-51.0763358778626,-13.419847328244275,4.068702290076335
4.8,0.0859375,-0.58740234375,0.859130859375,-49.900763358778626,-15.389312977099237,4.694656488549619
4.81,0.089599609375,-0.589599609375,0.848388671875,-48.69465648854962,-14.366412213740459,4.740458015267175
4.82,0.073974609375,-0.593017578125,0.820556640625,-47.64885496183206,-15.618320610687023,4.213740458015267
4.83,0.07470703125,-0.59619140625,0.794921875,-46.13740458015267,-11.030534351145038,3.8473282442748094
4.84,0.07470703125,-0.591552734375,0.7705078125,-43.57251908396947,-9.648854961832061,3.366412213740458
4.85,0.093017578125,-0.5869140625,0.7626953125,-39.70229007633588,-6.122137404580153,3.1603053435114505
4.86,0.112548828125,-0.582763671875,0.751708984375,-36.29007633587786,-4.267175572519084,3.3893129770992365
4.87,0.114013671875,-0.589111328125,0.743408203125,-34.961832061068705,-3.0076335877862594,4.122137404580153
4.88,0.107666015625,-0.56689453125,0.71923828125,-35.36641221374046,-0.8702290076335878,5.00763358778626
4.89,0.090576171875,-0.571044921875,0.721435546875,-34.954198473282446,1.8015267175572518,5.465648854961832
4.9,0.08349609375,-0.563720703125,0.685791015625,-34.55725190839695,3.50381679389313,5.312977099236641
4.91,0.063720703125,-0.568115234375,0.665283203125,-33.80152671755725,5.061068702290076,5.129770992366412
4.92,0.053466796875,-0.560791015625,0.6591796875,-35.17557251908397,4.984732824427481,4.076335877862595
4.93,0.05615234375,-0.5546875,0.630615234375,-30.862595419847327,5.2748091603053435,2.984732824427481
4.94,0.047119140625,-0.56787109375,0.632568359375,-29.427480916030536,3.6564885496183206,1.6106870229007633
4.95,0.037109375,-0.563720703125,0.614501953125,-29.114503816793892,3.49618320610687,-0.32061068702290074
4.96,0.041259765625,-0.5654296875,0.588623046875,-27.51145038167939,1.7786259541984732,-2.282442748091603
4.97,0.04150390625,-0.56884765625,0.576904296875,-24.68702290076336,0.8244274809160306,-4.022900763358779
4.98,0.062744140625,-0.572265625,0.554443359375,-21.755725190839694,-0.1984732824427481,-5.587786259541985
4.99,0.0927734375,-0.569580078125,0.54345703125,-17.053435114503817,-1.9083969465648856,-5.755725190839694
5.0,0.081298828125,-0.585205078125,0.531494140625,-12.076335877862595,-3.480916030534351,-5.4961832061068705
5.01,0.09130859375,-0.588134765625,0.5302734375,-8.122137404580153,-4.893129770992366,-4.534351145038168
5.02,0.0673828125,-0.565673828125,0.538330078125,-5.137404580152672,-7.4961832061068705,-4.755725190839694
5.03,0.081298828125,-0.589111328125,0.57080078125,0.3435114503816794,-10.183206106870228,-4.427480916030534
5.04,0.06640625,-0.581787109375,0.5654296875,2.3893129770992365,-10.473282442748092,-3.5343511450381677
5.05,0.059326171875,-0.56201171875,0.5517578125,4.061068702290076,-11.083969465648854,-2.6030534351145036
5.06,0.076904296875,-0.55908203125,0.575439453125,6.076335877862595,-11.954198473282442,-2.0229007633587788
5.07,0.088623046875,-0.5693359375,0.576416015625,9.755725190839694,-12.312977099236642,-0.8396946564885496
5.08,0.092529296875,-0.550537109375,0.57568359375,8.625954198473282,-13.083969465648854,0.42748091603053434
5.09,0.093505859375,-0.565673828125,0.5947265625,9.687022900763358,-12.007633587786259,2.282442748091603
5.1,0.103759765625,-0.5888671875,0.6162109375,11.900763358778626,-9.603053435114504,4.068702290076335
5.11,0.10595703125,-0.6015625,0.63671875,14.900763358778626,-7.0458015267175576,5.99236641221374
5.12,0.1015625,-0.614013671875,0.636962890625,18.427480916030536,-3.33587786259542,8.106870229007633
5.13,0.102294921875,-0.59423828125,0.646240234375,21.03053435114504,-1.0076335877862594,9.900763358778626
5.14,0.106201171875,-0.574462890625,0.66650390625,20.870229007633586,2.7709923664122136,10.244274809160306
5.15,0.089111328125,-0.579345703125,0.66748046875,21.206106870229007,1.6946564885496183,10.0
5.16,0.094482421875,-0.592529296875,0.69189453125,21.96946564885496,1.900763358778626,9.366412213740459
5.17,0.105224609375,-0.589599609375,0.7177734375,23.6793893129771,3.435114503816794,8.145038167938932
5.18,0.1015625,-0.59619140625,0.703369140625,25.763358778625953,5.091603053435114,8.183206106870228
5.19,0.091552734375,-0.591552734375,0.732177734375,27.885496183206108,8.022900763358779,8.908396946564885
5.2,0.07177734375,-0.555908203125,0.7294921875,27.870229007633586,10.717557251908397,9.916030534351146
5.21,0.044189453125,-0.525390625,0.740966796875,25.12213740458015,12.587786259541986,9.633587786259541
5.22,0.03759765625,-0.501708984375,0.7490234375,20.87786259541985,13.038167938931299,7.648854961832061
5.23,0.0498046875,-0.525390625,0.752685546875,17.83206106870229,11.946564885496183,4.137404580152672
5.24,0.048583984375,-0.531005859375,0.7646484375,15.221374045801527,12.885496183206106,0.5343511450381679
5.25,0.037109375,-0.558837890625,0.78271484375,14.98473282442748,10.740458015267176,-3.0229007633587788
5.26,0.04345703125,-0.55712890625,0.786865234375,15.106870229007633,14.694656488549619,-4.061068702290076
5.27,0.023193359375,-0.5498046875,0.81640625,15.67175572519084,16.358778625954198,-5.137404580152672
5.28,0.054443359375,-0.610595703125,0.75439453125,12.801526717557252,22.106870229007633,-9.129770992366412
5.29,0.07080078125,-0.65087890625,0.762939453125,18.267175572519083,23.31297709923664,-13.450381679389313
5.3,0.07373046875,-0.658203125,0.79150390625,24.885496183206108,24.50381679389313,-15.618320610687023
5.31,0.038330078125,-0.589599609375,0.791748046875,25.47328244274809,23.34351145038168,-17.03053435114504
5.32,0.051025390625,-0.641357421875,0.8056640625,26.557251908396946,21.85496183206107,-18.96946564885496
5.33,0.057861328125,-0.698486328125,0.8310546875,27.435114503816795,22.946564885496183,-19.46564885496183
5.34,0.047119140625,-0.697265625,0.823974609375,29.221374045801525,22.938931297709924,-18.977099236641223
5.35,0.034912109375,-0.69482421875,0.839111328125,30.229007633587788,23.236641221374047,-18.84732824427481
5.36,0.064453125,-0.69775390625,0.83203125,32.41984732824427,21.045801526717558,-18.80916030534351
5.37,0.079833984375,-0.712158203125,0.84033203125,33.396946564885496,21.480916030534353,-18.923664122137403
5.38,0.087646484375,-0.74853515625,0.867431640625,40.2442748091603,17.587786259541986,-18.045801526717558
5.39,0.080322265625,-0.70849609375,0.873779296875,44.74809160305343,15.50381679389313,-16.916030534351144
5.4,0.107666015625,-0.74951171875,0.927001953125,45.01526717557252,14.335877862595419,-13.954198473282442
5.41,0.101806640625,-0.767333984375,0.9296875,49.587786259541986,13.435114503816793,-8.900763358778626
5.42,0.085693359375,-0.716552734375,0.93115234375,48.36641221374046,13.412213740458014,-3.099236641221374
5.43,0.0625,-0.694580078125,0.931640625,48.404580152671755,11.358778625954198,-1.450381679389313
5.44,0.083740234375,-0.65966796875,0.932861328125,48.16030534351145,8.297709923664122,-2.7099236641221376
5.45,0.0927734375,-0.662109375,0.936767578125,48.404580152671755,3.0229007633587788,-5.374045801526718
5.46,0.114990234375,-0.686279296875,0.963623046875,51.29007633587786,-0.8931297709923665,-7.5038167938931295
5.47,0.1474609375,-0.719482421875,0.970947265625,55.32824427480916,-1.9389312977099236,-7.656488549618321
5.48,0.173583984375,-0.7802734375,1.02783203125,60.595419847328245,-0.8320610687022901,-5.1679389312977095
5.49,0.19189453125,-0.8125,1.067626953125,69.1145038167939,-0.8625954198473282,-0.29770992366412213
5.5,0.166015625,-0.78955078125,1.150146484375,72.22137404580153,-2.618320610687023,4.648854961832061
5.51,0.142822265625,-0.7470703125,1.20458984375,71.89312977099236,-5.549618320610687,8.885496183206106
5.52,0.12890625,-0.718505859375,1.268310546875,69.29770992366412,-9.770992366412214,10.458015267175572
5.53,0.118896484375,-0.687255859375,1.308349609375,62.9236641221374,-9.511450381679388,9.32824427480916
5.54,0.12109375,-0.68017578125,1.33447265625,56.83206106870229,-10.679389312977099,7.633587786259542
5.55,0.12890625,-0.685302734375,1.381591796875,52.13740458015267,-11.068702290076336,6.755725190839694
5.56,0.142333984375,-0.703369140625,1.4248046875,46.48091603053435,-10.427480916030534,7.076335877862595
5.57,0.1494140625,-0.731689453125,1.440673828125,42.83206106870229,-8.694656488549619,7.3816793893129775
5.58,0.1591796875,-0.76025390625,1.460205078125,38.7557251908397,-7.3816793893129775,7.931297709923665
5.59,0.155517578125,-0.758056640625,1.491455078125,39.00763358778626,-7.00763358778626,9.091603053435115
5.6,0.140380859375,-0.72314453125,1.49755859375,31.83206106870229,-5.473282442748092,9.885496183206106
5.61,0.13916015625,-0.69091796875,1.510986328125,23.755725190839694,-7.083969465648855,10.053435114503817
5.62,0.114990234375,-0.640625,1.5107421875,14.083969465648854,-8.358778625954198,9.038167938931299
5.63,0.12451171875,-0.6103515625,1.500244140625,5.793893129770993,-11.603053435114504,7.679389312977099
5.64,0.128662109375,-0.62109375,1.5205078125,-4.526717557251908,-15.106870229007633,6.343511450381679
5.65,0.115966796875,-0.603271484375,1.495361328125,-12.694656488549619,-15.106870229007633,5.633587786259542
5.66,0.104736328125,-0.595947265625,1.439208984375,-22.519083969465647,-13.053435114503817,4.221374045801527
5.67,0.10986328125,-0.607177734375,1.37744140625,-28.763358778625953,-9.083969465648854,2.7480916030534353
5.68,0.103759765625,-0.633544921875,1.340576171875,-32.14503816793893,-7.847328244274809,0.7786259541984732
5.69,0.1005859375,-0.637939453125,1.299560546875,-33.69465648854962,-7.694656488549619,-0.8549618320610687
5.7,0.083984375,-0.620361328125,1.268798828125,-34.89312977099237,-8.374045801526718,-1.7099236641221374
5.71,0.092041015625,-0.5908203125,1.261474609375,-38.725190839694655,-7.022900763358779,-1.717557251908397
5.72,0.081787109375,-0.571044921875,1.225341796875,-44.19847328244275,-6.351145038167939,-0.8702290076335878
5.73,0.08251953125,-0.579345703125,1.17724609375,-47.13740458015267,-5.9541984732824424,-1.1145038167938932
5.74,0.088134765625,-0.584228515625,1.12841796875,-49.63358778625954,-6.068702290076335,-1.4809160305343512
5.75,0.088134765625,-0.605712890625,1.09619140625,-50.98473282442748,-6.3893129770992365,-1.3435114503816794
5.76,0.0859375,-0.646240234375,1.044921875,-48.656488549618324,-4.778625954198473,-0.5954198473282443
5.77,0.074951171875,-0.702392578125,1.00048828125,-40.12213740458015,-5.5038167938931295,0.7557251908396947
5.78,0.091064453125,-0.662353515625,1.04248046875,-30.38167938931298,-6.931297709923665,3.6564885496183206
5.79,0.084716796875,-0.59765625,1.066650390625,-26.404580152671755,-10.045801526717558,6.770992366412214
5.8,0.04345703125,-0.51904296875,1.073974609375,-29.908396946564885,-14.687022900763358,9.083969465648854
5.81,0.036376953125,-0.43212890625,1.07177734375,-40.06870229007634,-17.702290076335878,10.0
5.82,0.032470703125,-0.410888671875,1.046142578125,-50.465648854961835,-26.099236641221374,9.419847328244275
5.83,0.025146484375,-0.40966796875,1.019287109375,-59.88549618320611,-30.137404580152673,8.16030534351145
5.84,0.037841796875,-0.445068359375,0.97705078125,-65.30534351145039,-33.80152671755725,6.435114503816794
5.85,0.05615234375,-0.471923828125,0.925048828125,-66.70229007633588,-34.51908396946565,5.595419847328245
5.86,0.068115234375,-0.48876953125,0.901611328125,-65.63358778625954,-33.83969465648855,5.458015267175573
5.87,0.102294921875,-0.488037109375,0.861572265625,-64.61068702290076,-33.0763358778626,5.786259541984733
5.88,0.1240234375,-0.49853515625,0.82470703125,-63.41984732824427,-26.587786259541986,6.641221374045801
5.89,0.131103515625,-0.498046875,0.77392578125,-61.587786259541986,-21.778625954198475,7.267175572519084
5.9,0.139892578125,-0.5,0.71875,-60.48091603053435,-18.244274809160306,8.625954198473282
5.91,0.1357421875,-0.47021484375,0.716064453125,-61.656488549618324,-17.580152671755727,9.755725190839694
5.92,0.130859375,-0.47607421875,0.676513671875,-61.25190839694657,-11.198473282442748,10.82442748091603
5.93,0.1318359375,-0.4853515625,0.652587890625,-60.213740458015266,-10.305343511450381,10.923664122137405
5.94,0.146728515625,-0.50244140625,0.64111328125,-56.213740458015266,-6.847328244274809,10.419847328244275
5.95,0.138916015625,-0.516357421875,0.615966796875,-52.74045801526717,-3.900763358778626,10.114503816793894
5.96,0.13623046875,-0.511962890625,0.586669921875,-46.3206106870229,2.450381679389313,10.587786259541986
5.97,0.1044921875,-0.490966796875,0.57275390625,-43.82442748091603,6.702290076335878,11.381679389312977
5.98,0.09130859375,-0.4833984375,0.55126953125,-44.83969465648855,8.86259541984733,11.893129770992367
5.99,0.072265625,-0.4814453125,0.5185546875,-46.847328244274806,9.229007633587786,12.396946564885496
6.0,0.054931640625,-0.481201171875,0.493896484375,-48.51145038167939,7.603053435114504,11.511450381679388
6.01,0.072998046875,-0.472412109375,0.449462890625,-47.47328244274809,5.923664122137405,9.50381679389313
6.02,0.069580078125,-0.487548828125,0.418701171875,-44.74045801526717,4.152671755725191,7.030534351145038
6.03,0.0703125,-0.526123046875,0.41357421875,-40.16030534351145,3.7404580152671754,4.412213740458015
6.04,0.09765625,-0.526611328125,0.39990234375,-32.00763358778626,2.83206106870229,2.954198473282443
6.05,0.096435546875,-0.52197265625,0.4287109375,-21.786259541984734,1.5114503816793894,2.16793893129771
6.06,0.10986328125,-0.4970703125,0.449951171875,-14.946564885496183,1.450381679389313,1.7786259541984732
6.07,0.103271484375,-0.49169921875,0.452392578125,-11.15267175572519,-0.6564885496183206,1.6793893129770991
6.08,0.08544921875,-0.47998046875,0.4619140625,-8.34351145038168,0.33587786259541985,1.6488549618320612
6.09,0.084716796875,-0.493896484375,0.450927734375,-5.1679389312977095,0.6564885496183206,1.0610687022900764
6.1,0.06494140625,-0.495849609375,0.474609375,-0.816793893129771,1.8549618320610688,0.7786259541984732
6.11,0.065185546875,-0.50537109375,0.45361328125,4.175572519083969,2.66412213740458,0.06870229007633588
6.12,0.05712890625,-0.495849609375,0.485595703125,5.916030534351145,3.717557251908397,-0.16793893129770993
6.13,0.06591796875,-0.497802734375,0.49169921875,11.435114503816793,4.267175572519084,-0.40458015267175573
6.14,0.076904296875,-0.489501953125,0.526611328125,15.442748091603054,5.129770992366412,0.10687022900763359
6.15,0.09521484375,-0.49560546875,0.5625,17.625954198473284,5.7251908396946565,0.8931297709923665
6.16,0.11669921875,-0.5146484375,0.59716796875,23.091603053435115,4.9465648854961835,3.045801526717557
6.17,0.10546875,-0.5205078125,0.6318359375,24.49618320610687,5.213740458015267,5.770992366412214
6.18,0.064208984375,-0.529296875,0.64501953125,24.80916030534351,6.847328244274809,8.465648854961833
6.19,0.053466796875,-0.53564453125,0.638671875,24.519083969465647,8.786259541984732,9.717557251908397
6.2,0.047119140625,-0.543212890625,0.638916015625,25.732824427480917,9.50381679389313,10.099236641221374
6.21,0.049072265625,-0.5361328125,0.6572265625,26.31297709923664,9.450381679389313,9.244274809160306
6.22,0.044189453125,-0.549072265625,0.660400390625,27.282442748091604,9.404580152671755,9.687022900763358
6.23,0.0693359375,-0.5458984375,0.690185546875,30.297709923664122,9.557251908396946,7.748091603053435
6.24,0.08740234375,-0.55615234375,0.731689453125,34.045801526717554,11.038167938931299,3.9618320610687023
6.25,0.091064453125,-0.55419921875,0.7431640625,35.23664122137404,13.900763358778626,3.0
6.26,0.081298828125,-0.5712890625,0.749267578125,40.267175572519086,17.61832061068702,2.6106870229007635
6.27,0.064697265625,-0.569091796875,0.759033203125,42.267175572519086,21.572519083969464,3.0839694656488548
6.28,0.04931640625,-0.55419921875,0.77294921875,42.87786259541985,26.114503816793892,3.900763358778626
6.29,0.044189453125,-0.555908203125,0.787353515625,42.49618320610687,25.404580152671755,1.9541984732824427
6.3,0.04541015625,-0.563720703125,0.792236328125,42.97709923664122,25.14503816793893,2.618320610687023
6.31,0.019775390625,-0.5615234375,0.78662109375,40.534351145038165,23.938931297709924,1.2671755725190839
6.32,0.02294921875,-0.56884765625,0.8095703125,41.603053435114504,23.435114503816795,0.2824427480916031
6.33,0.022705078125,-0.572509765625,0.817138671875,43.83969465648855,23.6793893129771,-0.030534351145038167
6.34,0.0283203125,-0.58154296875,0.842041015625,46.603053435114504,23.03053435114504,-0.4198473282442748
6.35,0.033447265625,-0.595458984375,0.87548828125,48.534351145038165,22.30534351145038,-0.7938931297709924
6.36,0.029296875,-0.610107421875,0.8896484375,48.229007633587784,21.72519083969466,-1.015267175572519
6.37,0.002197265625,-0.610595703125,0.8740234375,48.18320610687023,20.740458015267176,-0.9389312977099237
6.38,-0.012939453125,-0.612060546875,0.865234375,48.06106870229008,18.587786259541986,-0.6793893129770993
6.39,-0.0078125,-0.6025390625,0.853759765625,49.56488549618321,14.694656488549619,-0.366412213740458
6.4,0.01123046875,-0.61572265625,0.887939453125,51.64885496183206,9.061068702290076,-0.09923664122137404
6.41,0.030029296875,-0.64599609375,0.921630859375,52.83969465648855,4.488549618320611,1.0763358778625953
6.42,0.028076171875,-0.66552734375,0.9462890625,54.43511450381679,1.3969465648854962,2.2977099236641223
6.43,0.018798828125,-0.66552734375,0.973388671875,54.87022900763359,0.19083969465648856,3.2519083969465647
6.44,0.00537109375,-0.66748046875,0.99072265625,55.29770992366412,-0.5190839694656488,2.6793893129770994
6.45,0.010009765625,-0.665283203125,0.978271484375,56.83969465648855,-2.236641221374046,0.8320610687022901
6.46,0.0146484375,-0.679443359375,0.992919921875,61.099236641221374,-5.030534351145038,-1.4732824427480915
6.47,0.041748046875,-0.6904296875,1.039794921875,63.847328244274806,-7.442748091603053,-2.900763358778626
6.48,0.045654296875,-0.700439453125,1.087646484375,65.58778625954199,-9.793893129770993,-2.068702290076336
6.49,0.067138671875,-0.69140625,1.140869140625,66.68702290076335,-10.694656488549619,0.3435114503816794
6.5,0.068603515625,-0.700927734375,1.19140625,63.083969465648856,-12.49618320610687,2.183206106870229
6.51,0.0693359375,-0.674072265625,1.214111328125,61.23664122137404,-11.580152671755725,3.6717557251908395
6.52,0.073486328125,-0.675048828125,1.234375,61.56488549618321,-13.679389312977099,4.312977099236641
6.53,0.0810546875,-0.68505859375,1.297119140625,60.83969465648855,-15.091603053435115,3.5877862595419847
6.54,0.0771484375,-0.672607421875,1.35595703125,58.88549618320611,-17.00763358778626,2.7557251908396947
6.55,0.085205078125,-0.66943359375,1.389892578125,56.954198473282446,-17.732824427480917,1.9312977099236641
6.56,0.08447265625,-0.674072265625,1.419189453125,52.10687022900763,-16.396946564885496,1.1374045801526718
6.57,0.083740234375,-0.670654296875,1.427001953125,47.98473282442748,-14.65648854961832,1.2671755725190839
6.58,0.081787109375,-0.666259765625,1.446044921875,44.99236641221374,-14.022900763358779,1.5267175572519085
6.59,0.10205078125,-0.67138671875,1.504150390625,41.79389312977099,-12.229007633587786,2.50381679389313
6.6,0.081787109375,-0.627197265625,1.50244140625,36.80916030534351,-12.389312977099237,3.618320610687023
6.61,0.09423828125,-0.573974609375,1.526123046875,24.580152671755727,-9.51908396946565,4.702290076335878
6.62,0.080322265625,-0.547119140625,1.494873046875,11.786259541984732,-11.717557251908397,4.442748091603053
6.63,0.089111328125,-0.55419921875,1.468017578125,0.7557251908396947,-6.938931297709924,2.6106870229007635
6.64,0.0732421875,-0.57666015625,1.43603515625,-6.312977099236641,-3.595419847328244,0.1297709923664122
6.65,0.07763671875,-0.56982421875,1.405029296875,-11.274809160305344,-1.748091603053435,-2.2900763358778624
6.66,0.063720703125,-0.59033203125,1.387939453125,-14.916030534351146,-1.8549618320610688,-4.198473282442748
6.67,0.068603515625,-0.554931640625,1.364501953125,-19.99236641221374,-0.8091603053435115,-5.450381679389313
6.68,0.057373046875,-0.531982421875,1.32275390625,-26.709923664122137,-0.35877862595419846,-6.305343511450381
6.69,0.064208984375,-0.52783203125,1.30126953125,-32.56488549618321,-0.7099236641221374,-8.061068702290076
6.7,0.06787109375,-0.531982421875,1.266845703125,-36.274809160305345,-0.6106870229007634,-10.427480916030534
6.71,0.06591796875,-0.544921875,1.228271484375,-37.9236641221374,-1.4961832061068703,-12.16030534351145
6.72,0.074951171875,-0.5625,1.194091796875,-39.20610687022901,-0.8473282442748091,-13.213740458015268
6.73,0.056884765625,-0.564453125,1.158935546875,-39.50381679389313,-0.45038167938931295,-13.114503816793894
6.74,0.047607421875,-0.589599609375,1.131591796875,-38.68702290076336,-1.3435114503816794,-12.419847328244275
6.75,0.051025390625,-0.579345703125,1.114990234375,-36.38931297709924,-3.6717557251908395,-11.290076335877863
6.76,0.04443359375,-0.569091796875,1.11962890625,-36.99236641221374,-6.366412213740458,-8.877862595419847
6.77,0.035400390625,-0.5419921875,1.107177734375,-37.19083969465649,-9.17557251908397,-7.67175572519084
6.78,0.040283203125,-0.515869140625,1.09326171875,-42.69465648854962,-12.83969465648855,-2.877862595419847
6.79,0.031494140625,-0.517822265625,1.113525390625,-45.74809160305343,-18.770992366412212,-0.42748091603053434
6.8,0.075439453125,-0.5087890625,1.10107421875,-49.68702290076336,-21.236641221374047,0.9389312977099237
6.81,0.060302734375,-0.509033203125,1.091552734375,-52.725190839694655,-22.290076335877863,2.053435114503817
6.82,0.05419921875,-0.529541015625,1.052001953125,-52.969465648854964,-21.908396946564885,3.0
6.83,0.050537109375,-0.5537109375,1.044677734375,-51.74045801526717,-21.12213740458015,3.5877862595419847
6.84,0.042236328125,-0.53466796875,1.019775390625,-51.458015267175576,-19.748091603053435,3.9160305343511452
6.85,0.04150390625,-0.5126953125,1.00048828125,-51.51145038167939,-18.053435114503817,3.2290076335877864
6.86,0.043701171875,-0.514404296875,0.980224609375,-52.404580152671755,-15.870229007633588,2.3740458015267176
6.87,0.044189453125,-0.5107421875,0.9384765625,-54.221374045801525,-22.068702290076335,0.7099236641221374
6.88,0.088623046875,-0.503173828125,0.95263671875,-54.89312977099237,-22.610687022900763,-0.04580152671755725
6.89,0.1181640625,-0.5126953125,0.957275390625,-54.98473282442748,-21.061068702290076,-0.6030534351145038
6.9,0.150390625,-0.526611328125,0.954833984375,-52.86259541984733,-18.64885496183206,-0.7022900763358778
6.91,0.14892578125,-0.5380859375,0.94580078125,-55.00763358778626,-15.618320610687023,-0.7099236641221374
6.92,0.15087890625,-0.561279296875,0.8876953125,-54.9236641221374,-7.450381679389313,-1.3129770992366412
6.93,0.1474609375,-0.582275390625,0.870849609375,-52.030534351145036,-1.6717557251908397,-2.33587786259542
6.94,0.155517578125,-0.576171875,0.8369140625,-50.80916030534351,3.1908396946564888,-2.5572519083969465
6.95,0.11474609375,-0.534912109375,0.828369140625,-46.31297709923664,5.083969465648855,-2.267175572519084
6.96,0.101806640625,-0.509765625,0.85205078125,-44.770992366412216,4.801526717557252,-1.4045801526717556
6.97,0.098388671875,-0.468994140625,0.865966796875,-48.229007633587784,4.977099236641221,-0.8625954198473282
6.98,0.09228515625,-0.451416015625,0.85205078125,-53.16793893129771,4.702290076335878,-1.5038167938931297
6.99,0.087890625,-0.444091796875,0.827880859375,-57.33587786259542,4.099236641221374,-3.0229007633587788
7.0,0.066162109375,-0.470703125,0.79443359375,-59.62595419847328,3.2519083969465647,-5.076335877862595
7.01,0.049072265625,-0.488525390625,0.747802734375,-60.62595419847328,1.83206106870229,-6.648854961832061
7.02,0.068115234375,-0.498046875,0.70166015625,-60.45038167938932,0.1450381679389313,-7.435114503816794
7.03,0.0751953125,-0.50537109375,0.68603515625,-60.595419847328245,-1.2671755725190839,-8.244274809160306
7.04,0.089599609375,-0.520263671875,0.6474609375,-59.534351145038165,-3.1297709923664123,-8.67175572519084
7.05,0.1103515625,-0.546630859375,0.615966796875,-56.404580152671755,-4.557251908396947,-9.030534351145038
7.06,0.115234375,-0.5712890625,0.612060546875,-51.099236641221374,-5.251908396946565,-8.83969465648855
7.07,0.113037109375,-0.569091796875,0.60302734375,-45.6793893129771,-5.511450381679389,-7.656488549618321
7.08,0.107666015625,-0.57080078125,0.58544921875,-41.42748091603053,-5.297709923664122,-6.305343511450381
7.09,0.1015625,-0.552978515625,0.58349609375,-38.19083969465649,-4.404580152671755,-5.290076335877862
7.1,0.09912109375,-0.550048828125,0.56298828125,-36.396946564885496,-4.267175572519084,-5.236641221374046
7.11,0.083251953125,-0.543701171875,0.5615234375,-35.48091603053435,-3.7404580152671754,-5.67175572519084
7.12,0.099609375,-0.535400390625,0.529052734375,-32.80916030534351,-3.732824427480916,-6.343511450381679
7.13,0.1044921875,-0.55517578125,0.541259765625,-29.091603053435115,-2.885496183206107,-7.137404580152672
7.14,0.1103515625,-0.569091796875,0.546142578125,-25.519083969465647,-1.7328244274809161,-7.0458015267175576
7.15,0.111083984375,-0.562744140625,0.52099609375,-23.244274809160306,-0.4198473282442748,-5.450381679389313
7.16,0.08251953125,-0.5400390625,0.507568359375,-19.954198473282442,0.31297709923664124,-4.755725190839694
7.17,0.115966796875,-0.5556640625,0.50634765625,-16.96946564885496,0.8244274809160306,-4.67175572519084
7.18,0.120361328125,-0.580078125,0.53125,-10.633587786259541,-0.35877862595419846,-3.8702290076335877
7.19,0.111572265625,-0.58740234375,0.5390625,-6.198473282442748,1.1908396946564885,-3.5877862595419847
7.2,0.121337890625,-0.585693359375,0.537353515625,-1.984732824427481,1.2061068702290076,-2.6946564885496183
7.21,0.113037109375,-0.58935546875,0.53173828125,2.49618320610687,1.7557251908396947,-1.549618320610687
7.22,0.1123046875,-0.59814453125,0.553466796875,8.465648854961833,3.068702290076336,-0.9694656488549618
7.23,0.10400390625,-0.59423828125,0.56103515625,13.610687022900763,2.885496183206107,-0.3969465648854962
7.24,0.0986328125,-0.576904296875,0.55810546875,17.557251908396946,3.381679389312977,-0.6030534351145038
7.25,0.112548828125,-0.580078125,0.575439453125,21.267175572519083,3.015267175572519,-1.16793893129771
7.26,0.11865234375,-0.59521484375,0.599365234375,26.068702290076335,1.633587786259542,-1.2671755725190839
7.27,0.1455078125,-0.613037109375,0.63232421875,30.72519083969466,1.5877862595419847,-0.9541984732824428
7.28,0.143310546875,-0.613525390625,0.668212890625,34.87786259541985,0.7175572519083969,0.7251908396946565
7.29,0.142822265625,-0.605712890625,0.69775390625,36.786259541984734,2.33587786259542,2.7709923664122136
7.3,0.137939453125,-0.597412109375,0.706298828125,37.038167938931295,4.9541984732824424,4.885496183206107
7.31,0.125732421875,-0.606689453125,0.70751953125,38.404580152671755,6.404580152671755,6.2748091603053435
7.32,0.107421875,-0.576171875,0.739013671875,40.091603053435115,7.519083969465649,7.3816793893129775
7.33,0.103759765625,-0.5771484375,0.75634765625,40.396946564885496,7.114503816793893,7.587786259541985
7.34,0.10107421875,-0.5849609375,0.7734375,39.41984732824427,7.9465648854961835,7.1679389312977095
7.35,0.099365234375,-0.587158203125,0.775634765625,38.954198473282446,9.442748091603054,6.305343511450381
7.36,0.105712890625,-0.592041015625,0.789794921875,37.152671755725194,11.099236641221374,5.229007633587786
7.37,0.100830078125,-0.58349609375,0.80322265625,40.36641221374046,12.961832061068701,3.984732824427481
7.38,0.123779296875,-0.569091796875,0.81689453125,41.2442748091603,14.114503816793894,3.351145038167939
7.39,0.112060546875,-0.554931640625,0.8291015625,40.038167938931295,14.122137404580153,3.2213740458015265
7.4,0.106689453125,-0.562255859375,0.849609375,37.99236641221374,15.625954198473282,3.4580152671755724
7.41,0.0908203125,-0.55419921875,0.834716796875,34.152671755725194,13.82442748091603,3.8396946564885495
7.42,0.0625,-0.55859375,0.8193359375,30.396946564885496,13.15267175572519,3.7709923664122136
7.43,0.03564453125,-0.5634765625,0.79833984375,27.862595419847327,13.80916030534351,2.786259541984733
7.44,0.021240234375,-0.55810546875,0.79150390625,27.916030534351144,12.816793893129772,0.44274809160305345
7.45,0.019775390625,-0.535888671875,0.808837890625,26.923664122137403,11.49618320610687,-2.8931297709923665
7.46,0.020263671875,-0.54833984375,0.8017578125,25.6793893129771,10.15267175572519,-7.061068702290076
7.47,0.021728515625,-0.5498046875,0.782470703125,25.33587786259542,9.374045801526718,-10.641221374045802
7.48,0.015625,-0.55419921875,0.754150390625,22.755725190839694,8.83206106870229,-13.885496183206106
7.49,0.037353515625,-0.5517578125,0.7607421875,25.099236641221374,8.206106870229007,-16.251908396946565
7.5,0.05224609375,-0.551513671875,0.73583984375,25.72519083969466,6.534351145038168,-18.03053435114504
7.51,0.08447265625,-0.57080078125,0.74951171875,28.580152671755727,4.419847328244275,-18.69465648854962
7.52,0.10986328125,-0.60400390625,0.788818359375,35.83206106870229,3.2595419847328246,-18.885496183206108
7.53,0.130859375,-0.64892578125,0.824951171875,45.58015267175573,3.3435114503816794,-16.374045801526716
7.54,0.13134765625,-0.6796875,0.8662109375,53.06106870229008,2.0,-11.992366412213741
7.55,0.112060546875,-0.614990234375,0.9072265625,59.458015267175576,-0.8778625954198473,-9.114503816793894
7.56,0.14111328125,-0.6484375,0.95654296875,60.908396946564885,3.618320610687023,-4.633587786259542
7.57,0.115478515625,-0.6708984375,1.0322265625,60.961832061068705,-1.4122137404580153,0.5038167938931297
7.58,0.104736328125,-0.60107421875,1.059814453125,57.00763358778626,1.251908396946565,6.221374045801527
7.59,0.095458984375,-0.6181640625,1.0791015625,52.961832061068705,1.9541984732824427,8.290076335877863
7.6,0.10302734375,-0.62451171875,1.09619140625,53.43511450381679,3.267175572519084,8.557251908396946
7.61,0.112060546875,-0.644775390625,1.097900390625,55.29007633587786,4.458015267175573,8.374045801526718
7.62,0.0869140625,-0.6708984375,1.1240234375,55.541984732824424,2.198473282442748,8.358778625954198
7.63,0.14013671875,-0.697021484375,1.17138671875,59.19847328244275,3.1755725190839694,9.022900763358779
7.64,0.1435546875,-0.670654296875,1.196533203125,60.916030534351144,3.2595419847328246,10.801526717557252
7.65,0.125732421875,-0.678466796875,1.20703125,58.45038167938932,3.381679389312977,11.183206106870228
7.66,0.10009765625,-0.65087890625,1.196533203125,55.99236641221374,3.5572519083969465,11.198473282442748
7.67,0.083740234375,-0.6416015625,1.192138671875,54.19847328244275,1.6106870229007633,9.458015267175572
7.68,0.083984375,-0.627685546875,1.224853515625,52.52671755725191,-2.8091603053435112,6.022900763358779
7.69,0.11279296875,-0.6181640625,1.2783203125,49.97709923664122,-6.419847328244275,2.2977099236641223
7.7,0.111572265625,-0.6025390625,1.263427734375,46.19083969465649,-7.0,-1.0381679389312977
7.71,0.110107421875,-0.620849609375,1.253173828125,44.786259541984734,-5.587786259541985,-3.7938931297709924
7.72,0.12841796875,-0.653564453125,1.295654296875,44.30534351145038,-3.7938931297709924,-4.99236641221374
7.73,0.12939453125,-0.659912109375,1.3115234375,42.541984732824424,-0.8320610687022901,-4.015267175572519
7.74,0.121337890625,-0.638427734375,1.318115234375,40.12213740458015,-0.26717557251908397,-2.5267175572519083
7.75,0.114990234375,-0.610595703125,1.334228515625,35.66412213740458,1.213740458015267,-0.5419847328244275
7.76,0.117919921875,-0.593017578125,1.35009765625,33.16793893129771,1.1755725190839694,0.8091603053435115
7.77,0.1064453125,-0.562744140625,1.348876953125,22.48854961832061,1.7786259541984732,1.8702290076335877
7.78,0.084228515625,-0.55517578125,1.315673828125,13.007633587786259,-0.9541984732824428,2.8244274809160306
7.79,0.097900390625,-0.578125,1.31591796875,7.519083969465649,-2.2900763358778624,2.33587786259542
7.8,0.109619140625,-0.587158203125,1.345703125,2.7786259541984735,-5.137404580152672,2.3587786259541983
7.81,0.099853515625,-0.577392578125,1.30810546875,-1.3969465648854962,-4.748091603053435,2.4885496183206106
7.82,0.09619140625,-0.5517578125,1.2998046875,-6.244274809160306,-5.198473282442748,3.5801526717557253
7.83,0.0986328125,-0.55615234375,1.31689453125,-11.427480916030534,-7.656488549618321,5.0
7.84,0.100341796875,-0.538330078125,1.31005859375,-16.83206106870229,-10.091603053435115,5.984732824427481
7.85,0.0927734375,-0.52783203125,1.28173828125,-22.17557251908397,-12.549618320610687,6.251908396946565
7.86,0.0859375,-0.52978515625,1.2705078125,-27.053435114503817,-14.030534351145038,5.7251908396946565
7.87,0.09130859375,-0.53466796875,1.26513671875,-30.18320610687023,-14.007633587786259,4.877862595419847
7.88,0.090576171875,-0.5400390625,1.247314453125,-32.36641221374046,-13.290076335877863,3.9770992366412212
7.89,0.083740234375,-0.531494140625,1.24658203125,-34.80152671755725,-12.320610687022901,3.564885496183206
7.9,0.069580078125,-0.517578125,1.21337890625,-37.656488549618324,-11.076335877862595,3.3435114503816794
7.91,0.083251953125,-0.525146484375,1.197509765625,-40.49618320610687,-9.893129770992367,2.946564885496183
7.92,0.09619140625,-0.522216796875,1.195556640625,-42.49618320610687,-10.610687022900763,2.885496183206107
7.93,0.115478515625,-0.525390625,1.17529296875,-43.36641221374046,-11.625954198473282,2.6793893129770994
7.94,0.109619140625,-0.523193359375,1.16064453125,-44.0,-8.389312977099237,3.5801526717557253
7.95,0.113037109375,-0.534912109375,1.154052734375,-45.52671755725191,-6.480916030534351,5.091603053435114
7.96,0.115478515625,-0.5576171875,1.1552734375,-45.18320610687023,-5.732824427480916,6.961832061068702
7.97,0.089599609375,-0.539306640625,1.126220703125,-45.18320610687023,-5.641221374045801,8.50381679389313
7.98,0.07275390625,-0.511962890625,1.109130859375,-47.900763358778626,-6.396946564885496,9.648854961832061
7.99,0.064208984375,-0.493408203125,1.10546875,-51.98473282442748,-7.6106870229007635,9.549618320610687
8.0,0.040771484375,-0.521728515625,1.07421875,-53.541984732824424,-9.335877862595419,7.900763358778626
8.01,0.06396484375,-0.519775390625,1.053466796875,-53.412213740458014,-8.900763358778626,6.305343511450381
8.02,0.04931640625,-0.5380859375,1.01318359375,-52.74045801526717,-8.16793893129771,4.755725190839694
8.03,0.0751953125,-0.544921875,0.988525390625,-50.61832061068702,-7.366412213740458,3.633587786259542
8.04,0.090576171875,-0.574462890625,0.9892578125,-45.79389312977099,-8.564885496183207,2.66412213740458
8.05,0.0859375,-0.5556640625,0.989990234375,-43.43511450381679,-7.66412213740458,2.687022900763359
8.06,0.063232421875,-0.52734375,0.97119140625,-43.05343511450382,-8.648854961832061,3.519083969465649
8.07,0.055908203125,-0.51220703125,0.97216796875,-44.14503816793893,-9.572519083969466,3.564885496183206
8.08,0.049072265625,-0.491455078125,0.94580078125,-44.97709923664122,-10.664122137404581,2.8396946564885495
8.09,0.06494140625,-0.500244140625,0.911865234375,-49.17557251908397,-11.404580152671755,1.0534351145038168
8.1,0.074462890625,-0.51025390625,0.90869140625,-49.29770992366412,-13.404580152671755,-0.7709923664122137
8.11,0.088134765625,-0.520263671875,0.905029296875,-49.534351145038165,-12.977099236641221,-0.05343511450381679
8.12,0.090576171875,-0.5185546875,0.862060546875,-49.13740458015267,-11.450381679389313,-2.786259541984733
8.13,0.092529296875,-0.5361328125,0.853759765625,-47.732824427480914,-7.969465648854962,-3.030534351145038
8.14,0.092041015625,-0.539794921875,0.808349609375,-46.770992366412216,-5.732824427480916,-2.801526717557252
8.15,0.083740234375,-0.52197265625,0.7734375,-44.97709923664122,-0.5343511450381679,-3.0229007633587788
8.16,0.089111328125,-0.514892578125,0.755859375,-47.87786259541985,1.6870229007633588,-2.7557251908396947
8.17,0.110595703125,-0.489990234375,0.75439453125,-49.87022900763359,1.2290076335877862,-3.236641221374046
8.18,0.126708984375,-0.492919921875,0.759521484375,-52.69465648854962,1.366412213740458,-3.7480916030534353
8.19,0.12060546875,-0.49267578125,0.732421875,-56.343511450381676,3.1526717557251906,-4.282442748091603
8.2,0.127197265625,-0.518310546875,0.689697265625,-58.282442748091604,6.4961832061068705,-4.908396946564886
8.21,0.1171875,-0.551513671875,0.640380859375,-56.06106870229008,9.908396946564885,-5.312977099236641
8.22,0.10400390625,-0.580810546875,0.612548828125,-51.50381679389313,15.206106870229007,-5.251908396946565
8.23,0.103759765625,-0.57470703125,0.607666015625,-46.05343511450382,17.16030534351145,-4.870229007633588
8.24,0.0849609375,-0.5498046875,0.611572265625,-42.81679389312977,17.66412213740458,-4.641221374045801
8.25,0.076171875,-0.520751953125,0.580810546875,-43.412213740458014,15.793893129770993,-5.4961832061068705
8.26,0.06787109375,-0.503173828125,0.584228515625,-46.213740458015266,13.740458015267176,-7.549618320610687
8.27,0.071044921875,-0.510986328125,0.566162109375,-47.83206106870229,11.763358778625955,-10.259541984732824
8.28,0.077880859375,-0.53564453125,0.542236328125,-46.45038167938932,10.511450381679388,-13.320610687022901
8.29,0.083251953125,-0.56298828125,0.519775390625,-43.2442748091603,9.86259541984733,-15.15267175572519
8.3,0.09716796875,-0.595947265625,0.503662109375,-36.25954198473283,9.396946564885496,-15.816793893129772
8.31,0.099853515625,-0.6005859375,0.49072265625,-27.702290076335878,8.297709923664122,-17.587786259541986
8.32,0.10791015625,-0.604248046875,0.51123046875,-18.213740458015266,6.435114503816794,-14.49618320610687
8.33,0.09912109375,-0.587890625,0.501953125,-9.038167938931299,4.641221374045801,-12.358778625954198
8.34,0.12060546875,-0.560302734375,0.547607421875,-3.3435114503816794,0.6946564885496184,-10.893129770992367
8.35,0.1279296875,-0.56298828125,0.5859375,1.6106870229007633,-2.2977099236641223,-9.51908396946565
8.36,0.103271484375,-0.5400390625,0.601806640625,2.099236641221374,-7.022900763358779,-8.419847328244275
8.37,0.09228515625,-0.5361328125,0.59033203125,3.3587786259541983,-8.969465648854962,-8.229007633587786
8.38,0.085205078125,-0.528076171875,0.60595703125,4.770992366412214,-10.908396946564885,-8.320610687022901
8.39,0.0908203125,-0.5341796875,0.588623046875,7.030534351145038,-10.80916030534351,-8.603053435114504
8.4,0.1044921875,-0.554443359375,0.605712890625,10.312977099236642,-12.0,-8.916030534351146
8.41,0.125732421875,-0.564208984375,0.622802734375,15.022900763358779,-12.732824427480915,-8.648854961832061
8.42,0.13525390625,-0.573974609375,0.6513671875,17.702290076335878,-12.19083969465649,-7.473282442748092
8.43,0.144775390625,-0.572265625,0.668212890625,19.50381679389313,-10.641221374045802,-7.770992366412214
8.44,0.15625,-0.5830078125,0.6787109375,22.137404580152673,-8.045801526717558,-3.6412213740458017
8.45,0.15185546875,-0.5869140625,0.6875,24.893129770992367,-5.122137404580153,-1.8625954198473282
8.46,0.14794921875,-0.582275390625,0.700927734375,27.763358778625953,-2.1297709923664123,-0.6564885496183206
8.47,0.14501953125,-0.58349609375,0.71337890625,30.748091603053435,0.13740458015267176,-0.7633587786259542
8.48,0.1337890625,-0.577880859375,0.72509765625,33.44274809160305,2.6717557251908395,-1.9236641221374047
8.49,0.13037109375,-0.56201171875,0.7490234375,35.36641221374046,5.114503816793893,-3.564885496183206
8.5,0.112060546875,-0.563720703125,0.763671875,35.69465648854962,7.793893129770993,-5.267175572519084
8.51,0.117919921875,-0.5546875,0.75341796875,34.47328244274809,10.557251908396946,-6.9541984732824424
8.52,0.128662109375,-0.5625,0.765869140625,34.29770992366412,13.022900763358779,-8.389312977099237
8.53,0.1455078125,-0.556396484375,0.7783203125,36.13740458015267,14.908396946564885,-8.610687022900763
8.54,0.150146484375,-0.56982421875,0.763427734375,37.29007633587786,16.587786259541986,-7.297709923664122
8.55,0.146728515625,-0.58251953125,0.763671875,38.916030534351144,15.946564885496183,-4.419847328244275
8.56,0.12744140625,-0.5693359375,0.772216796875,39.6793893129771,17.51145038167939,-1.4427480916030535
8.57,0.117919921875,-0.54443359375,0.767822265625,39.916030534351144,13.992366412213741,0.5419847328244275
8.58,0.121337890625,-0.551025390625,0.7744140625,39.54961832061068,11.67175572519084,0.7786259541984732
8.59,0.12353515625,-0.56396484375,0.796630859375,40.083969465648856,9.17557251908397,0.3435114503816794
8.6,0.12255859375,-0.583740234375,0.785400390625,42.00763358778626,7.67175572519084,0.42748091603053434
8.61,0.12158203125,-0.591796875,0.818115234375,43.12977099236641,7.198473282442748,1.7709923664122138
8.62,0.10595703125,-0.58642578125,0.821533203125,44.12977099236641,9.114503816793894,3.83206106870229
8.63,0.1044921875,-0.573974609375,0.814697265625,45.954198473282446,9.938931297709924,6.076335877862595
8.64,0.1005859375,-0.564697265625,0.83447265625,48.69465648854962,9.603053435114504,7.801526717557252
8.65,0.10693359375,-0.56494140625,0.87255859375,49.50381679389313,8.748091603053435,9.526717557251908
8.66,0.096923828125,-0.5478515625,0.8798828125,48.404580152671755,8.236641221374045,10.51908396946565
8.67,0.091552734375,-0.587890625,0.895263671875,49.030534351145036,8.679389312977099,10.534351145038167
8.68,0.093505859375,-0.615478515625,0.920654296875,50.9236641221374,10.244274809160306,9.16793893129771
8.69,0.09130859375,-0.625732421875,0.93212890625,54.25954198473283,12.48091603053435,6.748091603053435
8.7,0.088134765625,-0.652587890625,0.94580078125,58.908396946564885,12.236641221374045,4.67175572519084
8.71,0.115966796875,-0.657958984375,0.9765625,64.25954198473282,11.007633587786259,3.381679389312977
8.72,0.138427734375,-0.640869140625,1.0439453125,69.47328244274809,9.129770992366412,4.145038167938932
8.73,0.134765625,-0.63330078125,1.064453125,71.17557251908397,7.0534351145038165,6.534351145038168
8.74,0.113525390625,-0.6240234375,1.11328125,68.77862595419847,6.557251908396947,7.580152671755725
8.75,0.115234375,-0.5927734375,1.128173828125,63.61068702290076,5.251908396946565,8.992366412213741
8.76,0.128662109375,-0.615966796875,1.1552734375,59.038167938931295,4.854961832061068,9.511450381679388
8.77,0.136962890625,-0.630126953125,1.191162109375,57.045801526717554,5.091603053435114,9.778625954198473
8.78,0.149169921875,-0.671142578125,1.203857421875,56.038167938931295,6.122137404580153,10.618320610687023
8.79,0.138427734375,-0.69970703125,1.220947265625,57.80916030534351,7.404580152671755,11.80916030534351
8.8,0.10302734375,-0.688720703125,1.23681640625,61.06870229007634,2.984732824427481,12.16793893129771
8.81,0.113037109375,-0.704345703125,1.32275390625,63.045801526717554,6.290076335877862,14.251908396946565
8.82,0.09521484375,-0.68359375,1.34765625,58.465648854961835,4.419847328244275,17.519083969465647
8.83,0.09375,-0.642822265625,1.374267578125,48.274809160305345,4.9541984732824424,19.33587786259542
8.84,0.09619140625,-0.638671875,1.38232421875,42.961832061068705,5.488549618320611,19.221374045801525
8.85,0.10498046875,-0.680419921875,1.373046875,38.030534351145036,3.7709923664122136,18.53435114503817
8.86,0.0927734375,-0.69873046875,1.4013671875,38.267175572519086,-1.6412213740458015,18.641221374045802
8.87,0.08984375,-0.693115234375,1.429443359375,37.717557251908396,-3.6412213740458017,19.66412213740458
8.88,0.06591796875,-0.666748046875,1.427001953125,34.36641221374046,-4.870229007633588,20.984732824427482
8.89,0.03955078125,-0.609619140625,1.46142578125,26.114503816793892,-6.458015267175573,20.64885496183206
8.9,0.015625,-0.5693359375,1.459228515625,15.877862595419847,-9.526717557251908,18.52671755725191
8.91,0.023193359375,-0.53662109375,1.428466796875,6.740458015267175,-12.022900763358779,14.870229007633588
8.92,0.01513671875,-0.520751953125,1.415283203125,-0.3969465648854962,-14.114503816793894,11.335877862595419
8.93,0.013916015625,-0.5234375,1.3642578125,-8.106870229007633,-14.282442748091603,9.664122137404581
8.94,0.014404296875,-0.532470703125,1.33984375,-11.290076335877863,-14.893129770992367,4.99236641221374
8.95,0.0322265625,-0.5224609375,1.332275390625,-14.84732824427481,-14.969465648854962,3.236641221374046
8.96,0.0341796875,-0.5068359375,1.345458984375,-19.53435114503817,-15.374045801526718,2.6412213740458017
8.97,0.03564453125,-0.46044921875,1.3212890625,-26.022900763358777,-14.786259541984732,1.6793893129770991
8.98,0.0341796875,-0.428466796875,1.28662109375,-33.9236641221374,-14.282442748091603,0.4351145038167939
8.99,0.028564453125,-0.42626953125,1.238525390625,-40.64885496183206,-14.648854961832061,-1.0534351145038168
9.0,0.041015625,-0.441650390625,1.21728515625,-44.48091603053435,-15.687022900763358,-3.122137404580153
9.01,0.020263671875,-0.46875,1.156494140625,-47.12213740458015,-15.67175572519084,-4.786259541984733
9.02,0.018310546875,-0.462646484375,1.11376953125,-49.412213740458014,-14.770992366412214,-3.931297709923664
9.03,0.031005859375,-0.466552734375,1.07568359375,-50.66412213740458,-13.0,-7.66412213740458
9.04,0.046630859375,-0.47021484375,1.0478515625,-50.458015267175576,-12.755725190839694,-9.297709923664122
9.05,0.0830078125,-0.471435546875,1.046875,-47.87022900763359,-12.923664122137405,-10.65648854961832
9.06,0.10400390625,-0.468017578125,1.06787109375,-46.18320610687023,-12.595419847328245,-10.86259541984733
9.07,0.103271484375,-0.433349609375,1.040283203125,-47.725190839694655,-11.007633587786259,-9.030534351145038
9.08,0.093994140625,-0.41650390625,1.0205078125,-51.47328244274809,-8.50381679389313,-6.038167938931298
9.09,0.084228515625,-0.41796875,0.976318359375,-54.88549618320611,-6.511450381679389,-3.4885496183206106
9.1,0.075927734375,-0.42138671875,0.931640625,-58.05343511450382,-5.465648854961832,-2.66412213740458
9.11,0.0751953125,-0.429443359375,0.90087890625,-60.63358778625954,-6.251908396946565,-3.0
9.12,0.080078125,-0.416015625,0.883544921875,-62.10687022900763,-6.076335877862595,-3.6717557251908395
9.13,0.097412109375,-0.4072265625,0.86669921875,-61.48854961832061,-5.679389312977099,-4.488549618320611
9.14,0.1201171875,-0.464111328125,0.84765625,-58.93893129770992,-4.572519083969466,-5.465648854961832
9.15,0.120849609375,-0.443115234375,0.83837890625,-54.79389312977099,-1.9618320610687023,-5.656488549618321
9.16,0.14453125,-0.46337890625,0.817138671875,-51.55725190839695,1.1755725190839694,-5.061068702290076
9.17,0.14453125,-0.452392578125,0.82568359375,-50.541984732824424,2.6717557251908395,-4.061068702290076
9.18,0.138427734375,-0.449951171875,0.815185546875,-50.74809160305343,3.236641221374046,-3.5343511450381677
9.19,0.124755859375,-0.437255859375,0.80078125,-52.06870229007634,3.480916030534351,-2.83206106870229
9.2,0.08544921875,-0.42431640625,0.77978515625,-53.20610687022901,4.4961832061068705,-3.7938931297709924
9.21,0.09326171875,-0.44482421875,0.73876953125,-53.32824427480916,6.969465648854962,-5.030534351145038
9.22,0.081787109375,-0.46630859375,0.71044921875,-51.786259541984734,8.908396946564885,-7.580152671755725
9.23,0.078125,-0.461669921875,0.66259765625,-50.786259541984734,11.282442748091603,-10.366412213740459
9.24,0.0869140625,-0.4775390625,0.64111328125,-45.969465648854964,12.709923664122137,-12.633587786259541
9.25,0.092041015625,-0.4853515625,0.627685546875,-42.770992366412216,13.396946564885496,-14.381679389312977
9.26,0.087890625,-0.48974609375,0.605224609375,-38.51908396946565,13.534351145038167,-15.954198473282442
9.27,0.10205078125,-0.48828125,0.59130859375,-33.57251908396947,12.618320610687023,-17.00763358778626
9.28,0.09521484375,-0.4873046875,0.58056640625,-28.763358778625953,11.877862595419847,-17.244274809160306
9.29,0.110595703125,-0.489990234375,0.60693359375,-25.236641221374047,10.030534351145038,-17.50381679389313
9.3,0.13720703125,-0.498046875,0.5830078125,-21.610687022900763,9.267175572519085,-16.595419847328245
9.31,0.12060546875,-0.517333984375,0.582275390625,-17.099236641221374,5.984732824427481,-15.282442748091603
9.32,0.101318359375,-0.51611328125,0.5576171875,-13.099236641221374,6.358778625954199,-13.755725190839694
9.33,0.102294921875,-0.513427734375,0.543212890625,-8.076335877862595,4.091603053435114,-12.022900763358779
9.34,0.106201171875,-0.526611328125,0.567626953125,-2.2748091603053435,1.633587786259542,-10.358778625954198
9.35,0.10302734375,-0.5419921875,0.584716796875,3.267175572519084,-1.282442748091603,-8.641221374045802
9.36,0.096923828125,-0.507568359375,0.6083984375,6.427480916030534,-3.045801526717557,-6.419847328244275
9.37,0.094970703125,-0.51171875,0.5888671875,9.412213740458014,-3.236641221374046,-4.419847328244275
9.38,0.103759765625,-0.52099609375,0.59130859375,13.961832061068701,-2.946564885496183,-2.9083969465648853
9.39,0.116455078125,-0.5322265625,0.606689453125,20.427480916030536,-2.969465648854962,-1.6717557251908397
9.4,0.135986328125,-0.49658203125,0.637451171875,26.27480916030534,-2.3053435114503817,-0.48854961832061067
9.41,0.132080078125,-0.497802734375,0.642578125,32.61068702290076,0.5267175572519084,-0.6183206106870229
9.42,0.12451171875,-0.49755859375,0.6748046875,39.00763358778626,3.5877862595419847,-1.3435114503816794
9.43,0.138671875,-0.492919921875,0.73388671875,45.47328244274809,4.0458015267175576,-1.633587786259542
9.44,0.1259765625,-0.4833984375,0.775390625,49.68702290076336,10.129770992366412,-2.099236641221374
9.45,0.100341796875,-0.46875,0.7998046875,51.10687022900763,12.717557251908397,-1.7557251908396947
9.46,0.089599609375,-0.458984375,0.810302734375,51.14503816793893,16.106870229007633,-1.3511450381679388
9.47,0.063720703125,-0.449462890625,0.830810546875,49.908396946564885,19.015267175572518,-1.0381679389312977
9.48,0.072509765625,-0.445068359375,0.845947265625,49.99236641221374,20.96946564885496,-1.7099236641221374
9.49,0.084228515625,-0.451904296875,0.856689453125,48.93129770992366,22.35114503816794,-2.5267175572519083
9.5,0.094482421875,-0.44384765625,0.859619140625,51.33587786259542,24.18320610687023,-3.267175572519084
9.51,0.106689453125,-0.464599609375,0.884765625,52.725190839694655,25.984732824427482,-3.312977099236641
9.52,0.10546875,-0.46630859375,0.89404296875,53.55725190839695,27.82442748091603,-2.1068702290076335
9.53,0.095947265625,-0.492431640625,0.897705078125,55.0,28.267175572519083,-0.061068702290076333
9.54,0.092529296875,-0.496337890625,0.901611328125,55.091603053435115,28.49618320610687,2.2442748091603053
9.55,0.061279296875,-0.49609375,0.91357421875,55.3206106870229,26.740458015267176,3.931297709923664
9.56,0.051025390625,-0.48876953125,0.942626953125,55.954198473282446,24.984732824427482,4.458015267175573
9.57,0.05078125,-0.49560546875,0.953125,56.14503816793893,22.954198473282442,4.190839694656488
9.58,0.068359375,-0.4921875,0.9794921875,56.69465648854962,21.671755725190838,3.7786259541984735
9.59,0.084228515625,-0.5146484375,1.019287109375,56.36641221374046,20.19083969465649,4.251908396946565
9.6,0.07470703125,-0.5234375,1.041748046875,56.0763358778626,19.81679389312977,6.3893129770992365
9.61,0.069580078125,-0.524658203125,1.05615234375,53.465648854961835,20.27480916030534,8.572519083969466
9.62,0.04345703125,-0.530029296875,1.037109375,51.74045801526717,20.740458015267176,9.65648854961832
9.63,0.03173828125,-0.529296875,1.02880859375,51.89312977099237,20.87786259541985,9.198473282442748
9.64,0.021240234375,-0.507568359375,1.033935546875,52.267175572519086,18.0,7.236641221374046
9.65,0.045654296875,-0.52490234375,1.073974609375,51.38931297709924,15.564885496183207,5.870229007633588
9.66,0.077392578125,-0.5439453125,1.105224609375,50.43511450381679,10.351145038167939,6.33587786259542
9.67,0.08349609375,-0.553466796875,1.123291015625,50.541984732824424,11.65648854961832,9.114503816793894
9.68,0.072021484375,-0.5771484375,1.151123046875,49.48091603053435,10.67175572519084,11.305343511450381
9.69,0.046630859375,-0.556396484375,1.13037109375,48.908396946564885,13.442748091603054,13.320610687022901
9.7,-0.00830078125,-0.537841796875,1.12109375,48.74809160305343,9.053435114503817,13.557251908396946
9.71,0.016845703125,-0.538818359375,1.1865234375,48.41984732824427,3.633587786259542,11.83969465648855
9.72,0.02197265625,-0.50341796875,1.24072265625,46.76335877862596,-1.633587786259542,9.778625954198473
9.73,0.026123046875,-0.482666015625,1.279052734375,40.229007633587784,-6.755725190839694,9.206106870229007
9.74,0.0380859375,-0.499755859375,1.306640625,36.152671755725194,-7.534351145038168,9.572519083969466
9.75,0.026123046875,-0.51611328125,1.315673828125,31.84732824427481,-9.068702290076336,10.305343511450381
9.76,0.0390625,-0.531005859375,1.374267578125,27.068702290076335,-9.954198473282442,11.122137404580153
9.77,0.041748046875,-0.52783203125,1.38623046875,23.12213740458015,-9.366412213740459,11.145038167938932
9.78,0.026123046875,-0.52392578125,1.367919921875,19.938931297709924,-8.358778625954198,10.603053435114504
9.79,0.009521484375,-0.510986328125,1.3662109375,17.114503816793892,-7.5038167938931295,9.305343511450381
9.8,0.00390625,-0.513916015625,1.366455078125,14.206106870229007,-6.2748091603053435,7.938931297709924
9.81,0.026611328125,-0.513427734375,1.4169921875,10.740458015267176,-7.603053435114504,7.404580152671755
9.82,0.019287109375,-0.4892578125,1.429443359375,7.038167938931298,-8.946564885496183,7.297709923664122
9.83,0.045654296875,-0.4697265625,1.449462890625,0.9618320610687023,-9.557251908396946,7.076335877862595
9.84,0.02490234375,-0.423095703125,1.440185546875,-8.17557251908397,-2.7557251908396947,6.786259541984733
9.85,-0.0234375,-0.42919921875,1.385986328125,-13.717557251908397,-4.015267175572519,4.793893129770993
9.86,-0.011474609375,-0.4326171875,1.35302734375,-21.251908396946565,-6.6183206106870225,1.7557251908396947
9.87,-0.024169921875,-0.447265625,1.31494140625,-24.19083969465649,-2.6564885496183206,-0.16030534351145037
9.88,-0.03466796875,-0.441650390625,1.2568359375,-24.83206106870229,-3.9083969465648853,-4.770992366412214
9.89,-0.021484375,-0.46728515625,1.243896484375,-25.83969465648855,-4.893129770992366,-6.358778625954199
9.9,-0.012939453125,-0.443359375,1.2314453125,-24.916030534351144,-5.648854961832061,-6.862595419847328
9.91,0.00048828125,-0.423095703125,1.208984375,-22.572519083969464,-7.091603053435114,-6.129770992366412
9.92,0.02978515625,-0.42626953125,1.2041015625,-21.458015267175572,-8.465648854961833,-5.320610687022901
9.93,0.020751953125,-0.3955078125,1.17236328125,-22.091603053435115,-7.473282442748092,-3.8244274809160306
9.94,0.001220703125,-0.363525390625,1.14501953125,-25.709923664122137,-6.793893129770993,-2.7404580152671754
9.95,-0.0224609375,-0.355224609375,1.113525390625,-30.99236641221374,-7.923664122137405,-2.5419847328244276
9.96,-0.010498046875,-0.3671875,1.062255859375,-33.51145038167939,-8.961832061068701,-3.2748091603053435
9.97,0.012451171875,-0.415771484375,1.039794921875,-31.870229007633586,-11.038167938931299,-4.511450381679389
9.98,0.031494140625,-0.43310546875,1.0517578125,-31.213740458015266,-11.893129770992367,-4.206106870229007
9.99,0.040283203125,-0.446044921875,1.056396484375,-27.450381679389313,-10.389312977099237,-2.618320610687023
10.0,0.02734375,-0.419677734375,1.05517578125,-27.51145038167939,-8.648854961832061,-0.3053435114503817
10.01,0.020263671875,-0.38623046875,1.057373046875,-27.48854961832061,-7.885496183206107,1.4732824427480915
10.02,0.027587890625,-0.37646484375,1.05615234375,-32.70992366412214,-9.076335877862595,1.8015267175572518
10.03,0.033447265625,-0.396240234375,1.0419921875,-33.61832061068702,-9.870229007633588,1.6030534351145038
10.04,0.046875,-0.417724609375,1.04541015625,-33.52671755725191,-11.755725190839694,1.4274809160305344
10.05,0.0478515625,-0.4443359375,1.041015625,-32.80152671755725,-12.687022900763358,2.0229007633587788
10.06,0.047607421875,-0.453125,1.04052734375,-30.267175572519083,-10.786259541984732,2.984732824427481
10.07,0.047607421875,-0.445068359375,1.06298828125,-28.16793893129771,-10.908396946564885,3.9770992366412212
10.08,0.0703125,-0.42578125,1.079833984375,-28.938931297709924,-9.664122137404581,4.969465648854962
10.09,0.047119140625,-0.3828125,1.055419921875,-34.20610687022901,-9.534351145038167,5.770992366412214
10.1,0.0556640625,-0.385986328125,1.03564453125,-38.55725190839695,-8.969465648854962,5.595419847328245
10.11,0.05419921875,-0.40576171875,1.03369140625,-40.69465648854962,-7.114503816793893,4.458015267175573
10.12,0.056640625,-0.424560546875,1.030029296875,-41.091603053435115,-4.213740458015267,3.2442748091603053
10.13,0.0576171875,-0.456787109375,1.007568359375,-40.083969465648856,-2.1908396946564888,1.8244274809160306
10.14,0.057861328125,-0.453369140625,1.00537109375,-39.603053435114504,0.7480916030534351,1.0076335877862594
10.15,0.045654296875,-0.4423828125,0.987548828125,-40.83969465648855,3.16793893129771,0.04580152671755725
10.16,0.041259765625,-0.4296875,0.958740234375,-43.221374045801525,4.870229007633588,-1.9312977099236641
10.17,0.059814453125,-0.4482421875,0.910400390625,-44.19083969465649,6.923664122137405,-3.8473282442748094
10.18,0.05224609375,-0.46875,0.88623046875,-43.48091603053435,7.969465648854962,-4.99236641221374
10.19,0.0654296875,-0.507080078125,0.870361328125,-39.61068702290076,8.625954198473282,-3.946564885496183
10.2,0.076904296875,-0.528076171875,0.87158203125,-34.42748091603053,10.511450381679388,-5.99236641221374
10.21,0.080078125,-0.510498046875,0.86865234375,-31.389312977099237,12.045801526717558,-5.412213740458015
10.22,0.06103515625,-0.486083984375,0.869140625,-30.33587786259542,14.114503816793894,-4.870229007633588
10.23,0.061767578125,-0.458251953125,0.843017578125,-31.9618320610687,15.106870229007633,-4.717557251908397
10.24,0.0537109375,-0.468505859375,0.820068359375,-34.50381679389313,15.603053435114504,-5.282442748091603
10.25,0.045654296875,-0.44140625,0.78564453125,-38.282442748091604,14.946564885496183,-3.969465648854962
10.26,0.052734375,-0.445556640625,0.7578125,-40.12213740458015,14.297709923664122,-6.343511450381679
10.27,0.0517578125,-0.481201171875,0.74609375,-40.37404580152672,14.076335877862595,-6.854961832061068
10.28,0.06689453125,-0.508544921875,0.724609375,-37.70992366412214,13.183206106870228,-6.6183206106870225
10.29,0.08447265625,-0.534912109375,0.726318359375,-34.969465648854964,13.80916030534351,-5.656488549618321
10.3,0.066650390625,-0.540771484375,0.713623046875,-27.85496183206107,14.541984732824428,-3.763358778625954
10.31,0.048583984375,-0.530517578125,0.710693359375,-24.358778625954198,14.351145038167939,-2.381679389312977
10.32,0.033935546875,-0.5078125,0.68115234375,-21.625954198473284,15.587786259541986,-1.549618320610687
10.33,0.020751953125,-0.489013671875,0.646728515625,-19.580152671755727,11.893129770992367,-1.5572519083969465
10.34,0.013916015625,-0.498779296875,0.6220703125,-16.862595419847327,9.198473282442748,-3.8702290076335877
10.35,0.011474609375,-0.494384765625,0.59814453125,-13.763358778625955,5.206106870229007,-3.16793893129771
10.36,0.006103515625,-0.504638671875,0.57568359375,-9.022900763358779,-1.0916030534351144,-4.595419847328245
10.37,0.01123046875,-0.515625,0.57568359375,-5.7251908396946565,-5.541984732824427,-6.152671755725191
10.38,0.013671875,-0.512451171875,0.579345703125,0.1450381679389313,-10.213740458015268,-7.190839694656488
10.39,0.0244140625,-0.4814453125,0.580322265625,4.763358778625954,-13.748091603053435,-8.732824427480915
10.4,0.041259765625,-0.442138671875,0.59814453125,7.374045801526718,-20.572519083969464,-11.458015267175572
10.41,0.058349609375,-0.446533203125,0.60107421875,10.748091603053435,-26.34351145038168,-15.404580152671755
10.42,0.094970703125,-0.469970703125,0.611083984375,17.213740458015266,-27.458015267175572,-18.015267175572518
10.43,0.10498046875,-0.501708984375,0.6396484375,26.48854961832061,-32.0763358778626,-18.748091603053435
10.44,0.115966796875,-0.529052734375,0.671875,34.94656488549618,-30.48854961832061,-16.19083969465649
10.45,0.100341796875,-0.502685546875,0.7138671875,40.06106870229008,-27.51145038167939,-10.549618320610687
10.46,0.09130859375,-0.499267578125,0.74072265625,42.045801526717554,-24.236641221374047,-4.969465648854962
10.47,0.081787109375,-0.474365234375,0.754638671875,44.725190839694655,-20.83206106870229,0.19083969465648856
10.48,0.08203125,-0.4453125,0.791259765625,45.79389312977099,-20.0,2.877862595419847
10.49,0.077880859375,-0.416259765625,0.822509765625,44.41984732824427,-18.27480916030534,2.946564885496183
10.5,0.0908203125,-0.41259765625,0.840576171875,44.213740458015266,-15.694656488549619,1.0305343511450382
10.51,0.084716796875,-0.409423828125,0.86962890625,45.69465648854962,-12.320610687022901,-1.7251908396946565
10.52,0.0859375,-0.402099609375,0.878173828125,46.05343511450382,-6.877862595419847,-3.236641221374046
10.53,0.093994140625,-0.41162109375,0.879638671875,47.412213740458014,-3.9083969465648853,-3.900763358778626
10.54,0.09814453125,-0.40478515625,0.905517578125,49.35114503816794,1.1526717557251909,-3.6946564885496183
10.55,0.107177734375,-0.40234375,0.906494140625,50.3587786259542,4.770992366412214,-3.3435114503816794
10.56,0.115478515625,-0.406494140625,0.924072265625,52.3206106870229,6.862595419847328,-2.5343511450381677
10.57,0.120361328125,-0.40771484375,0.94921875,53.99236641221374,8.687022900763358,-2.1908396946564888
10.58,0.0947265625,-0.40185546875,0.980712890625,53.152671755725194,10.534351145038167,-1.5725190839694656
10.59,0.092041015625,-0.394287109375,0.97314453125,51.69465648854962,13.648854961832061,-1.3740458015267176
10.6,0.058837890625,-0.384033203125,0.99560546875,50.18320610687023,16.641221374045802,-1.916030534351145
10.61,0.053466796875,-0.3798828125,0.986328125,49.099236641221374,17.595419847328245,-3.763358778625954
10.62,0.059326171875,-0.4013671875,1.010009765625,49.69465648854962,20.374045801526716,-5.679389312977099
10.63,0.053955078125,-0.4013671875,1.0322265625,48.900763358778626,20.954198473282442,-6.862595419847328
10.64,0.035888671875,-0.390869140625,1.03466796875,46.45038167938932,21.770992366412212,-7.442748091603053
10.65,0.034423828125,-0.415771484375,1.037841796875,45.25190839694657,22.908396946564885,-7.679389312977099
10.66,0.047607421875,-0.429931640625,1.05224609375,44.954198473282446,22.045801526717558,-7.732824427480916
10.67,0.049072265625,-0.43505859375,1.074462890625,45.61832061068702,22.30534351145038,-7.312977099236641
10.68,0.04931640625,-0.432373046875,1.073486328125,46.587786259541986,21.64885496183206,-6.343511450381679
10.69,0.0517578125,-0.434326171875,1.120849609375,47.3587786259542,19.709923664122137,-4.824427480916031
10.7,0.03466796875,-0.410888671875,1.1357421875,45.82442748091603,18.34351145038168,-4.450381679389313
10.71,0.01025390625,-0.3994140625,1.140625,43.85496183206107,16.541984732824428,-5.152671755725191
10.72,-0.023193359375,-0.394287109375,1.125244140625,40.25954198473283,10.213740458015268,-7.1603053435114505
10.73,0.007080078125,-0.431884765625,1.12744140625,39.43511450381679,4.511450381679389,-10.17557251908397
10.74,0.05224609375,-0.410400390625,1.226318359375,38.12977099236641,-2.572519083969466,-11.694656488549619
10.75,0.06396484375,-0.4189453125,1.233642578125,36.778625954198475,-4.893129770992366,-12.061068702290076
10.76,0.04541015625,-0.4345703125,1.241455078125,36.06870229007634,-5.511450381679389,-11.786259541984732
10.77,0.037109375,-0.4375,1.233154296875,35.00763358778626,-5.473282442748092,-11.366412213740459
10.78,0.062255859375,-0.439208984375,1.245361328125,34.48854961832061,-7.473282442748092,-11.122137404580153
10.79,0.09716796875,-0.4541015625,1.29052734375,35.10687022900763,-10.786259541984732,-10.114503816793894
10.8,0.11279296875,-0.454345703125,1.327392578125,35.48091603053435,-13.396946564885496,-8.374045801526718
10.81,0.108642578125,-0.443359375,1.348876953125,34.47328244274809,-14.458015267175572,-5.572519083969466
10.82,0.100341796875,-0.44140625,1.3603515625,30.03053435114504,-12.419847328244275,-3.572519083969466
10.83,0.094970703125,-0.41015625,1.34814453125,25.763358778625953,-12.83206106870229,-2.5877862595419847
10.84,0.07421875,-0.41943359375,1.33447265625,24.580152671755727,-17.221374045801525,-3.2748091603053435
10.85,0.122314453125,-0.4052734375,1.37109375,20.51145038167939,-14.595419847328245,-4.862595419847328
10.86,0.110595703125,-0.41650390625,1.36083984375,16.938931297709924,-14.610687022900763,-5.687022900763359
10.87,0.12744140625,-0.389892578125,1.364013671875,10.717557251908397,-11.603053435114504,-5.465648854961832
10.88,0.124755859375,-0.3955078125,1.35693359375,5.748091603053435,-11.16793893129771,-5.480916030534351
10.89,0.13671875,-0.3994140625,1.349365234375,-0.7786259541984732,-10.801526717557252,-5.893129770992366
10.9,0.150390625,-0.41259765625,1.33642578125,-2.9160305343511452,-10.450381679389313,-6.114503816793893
10.91,0.165283203125,-0.4169921875,1.3603515625,-4.557251908396947,-9.938931297709924,-6.458015267175573
10.92,0.151611328125,-0.39599609375,1.342529296875,-8.312977099236642,-8.778625954198473,-5.564885496183206
10.93,0.142578125,-0.384521484375,1.34033203125,-14.65648854961832,-6.740458015267175,-4.297709923664122
10.94,0.14599609375,-0.3828125,1.3203125,-20.480916030534353,-4.427480916030534,-3.435114503816794
10.95,0.137451171875,-0.386962890625,1.29150390625,-24.6793893129771,1.7099236641221374,-3.5114503816793894
10.96,0.11669921875,-0.403564453125,1.22265625,-28.480916030534353,-6.427480916030534,-4.66412213740458
10.97,0.14453125,-0.400390625,1.261962890625,-30.923664122137403,-6.809160305343512,-4.396946564885496
10.98,0.140625,-0.40966796875,1.248046875,-32.74045801526717,-5.358778625954199,-3.2900763358778624
10.99,0.141845703125,-0.395751953125,1.247802734375,-35.83206106870229,-5.427480916030534,-1.534351145038168
11.0,0.12890625,-0.393798828125,1.2578125,-37.229007633587784,-5.656488549618321,-0.32061068702290074
11.01,0.119873046875,-0.3916015625,1.2470703125,-42.16793893129771,-6.755725190839694,0.015267175572519083
11.02,0.098876953125,-0.39208984375,1.208251953125,-44.68702290076336,-9.885496183206106,-0.183206106870229
11.03,0.108154296875,-0.398681640625,1.209228515625,-47.274809160305345,-11.931297709923664,-0.732824427480916
11.04,0.09716796875,-0.4033203125,1.187744140625,-49.29770992366412,-12.732824427480915,-1.2671755725190839
11.05,0.11328125,-0.420166015625,1.177490234375,-50.770992366412216,-13.320610687022901,-1.2213740458015268
11.06,0.12158203125,-0.4072265625,1.162841796875,-52.25190839694657,-13.312977099236642,-0.9312977099236641
11.07,0.106201171875,-0.406005859375,1.168212890625,-54.82442748091603,-13.870229007633588,-0.2824427480916031
11.08,0.10546875,-0.408935546875,1.126953125,-56.656488549618324,-13.969465648854962,0.030534351145038167
11.09,0.11083984375,-0.419677734375,1.115478515625,-58.0763358778626,-14.305343511450381,0.03816793893129771
11.1,0.1025390625,-0.425048828125,1.10400390625,-58.221374045801525,-14.198473282442748,-0.3969465648854962
11.11,0.104248046875,-0.43896484375,1.106201171875,-57.16793893129771,-13.580152671755725,-0.8778625954198473
11.12,0.09375,-0.44189453125,1.10400390625,-58.62595419847328,-12.595419847328245,-0.6106870229007634
11.13,0.11572265625,-0.43359375,1.10888671875,-56.74809160305343,-11.320610687022901,-0.2824427480916031
11.14,0.097900390625,-0.423828125,1.08251953125,-57.282442748091604,-9.038167938931299,0.10687022900763359
11.15,0.08935546875,-0.411376953125,1.052001953125,-58.587786259541986,-8.633587786259541,-0.015267175572519083
11.16,0.079345703125,-0.392578125,1.03369140625,-62.44274809160305,-7.641221374045801,-0.1984732824427481
11.17,0.08544921875,-0.399658203125,1.013671875,-67.3587786259542,-6.893129770992366,-0.5038167938931297
11.18,0.0947265625,-0.427978515625,1.001953125,-66.56488549618321,-6.0534351145038165,-1.1908396946564885
11.19,0.095458984375,-0.447509765625,0.984375,-67.45801526717557,-4.061068702290076,-1.8015267175572518
11.2,0.110107421875,-0.49609375,0.95703125,-64.38931297709924,-0.37404580152671757,-2.366412213740458
11.21,0.10791015625,-0.488037109375,0.942626953125,-57.49618320610687,2.8473282442748094,-2.427480916030534
11.22,0.1005859375,-0.47216796875,0.923583984375,-54.33587786259542,5.320610687022901,-2.6106870229007635
11.23,0.099853515625,-0.47119140625,0.90673828125,-52.274809160305345,7.183206106870229,-3.366412213740458
11.24,0.105712890625,-0.45751953125,0.88623046875,-51.69465648854962,7.748091603053435,-1.9618320610687023
11.25,0.107177734375,-0.462158203125,0.856201171875,-51.68702290076336,7.633587786259542,-4.809160305343512
11.26,0.102294921875,-0.46923828125,0.837890625,-50.908396946564885,7.900763358778626,-4.961832061068702
11.27,0.114013671875,-0.4990234375,0.833251953125,-49.541984732824424,8.603053435114504,-4.893129770992366
11.28,0.12109375,-0.486328125,0.834716796875,-45.847328244274806,8.793893129770993,-4.679389312977099
11.29,0.119140625,-0.511962890625,0.826416015625,-41.732824427480914,9.351145038167939,-3.6564885496183206
11.3,0.112060546875,-0.512939453125,0.82177734375,-38.465648854961835,9.099236641221374,-1.900763358778626
11.31,0.103515625,-0.491943359375,0.818603515625,-37.847328244274806,9.297709923664122,0.21374045801526717
11.32,0.084228515625,-0.484375,0.80078125,-38.79389312977099,8.030534351145038,1.6259541984732824
11.33,0.087646484375,-0.474609375,0.78662109375,-40.50381679389313,5.4961832061068705,2.015267175572519
11.34,0.093505859375,-0.4755859375,0.795654296875,-40.32824427480916,1.4809160305343512,1.4274809160305344
11.35,0.10302734375,-0.48779296875,0.790771484375,-39.541984732824424,-1.1221374045801527,0.8854961832061069
11.36,0.1005859375,-0.512939453125,0.763427734375,-38.37404580152672,-2.1908396946564888,0.5343511450381679
11.37,0.097900390625,-0.530029296875,0.75390625,-36.229007633587784,-1.5648854961832062,0.9007633587786259
11.38,0.097412109375,-0.529296875,0.738525390625,-34.458015267175576,-1.0916030534351144,1.297709923664122
11.39,0.097900390625,-0.5244140625,0.7275390625,-32.01526717557252,-1.2595419847328244,1.450381679389313
11.4,0.093994140625,-0.517822265625,0.715087890625,-30.34351145038168,-2.4732824427480917,1.3511450381679388
11.41,0.106201171875,-0.52099609375,0.713623046875,-30.221374045801525,-3.2595419847328246,0.9389312977099237
11.42,0.113525390625,-0.52294921875,0.709228515625,-28.778625954198475,-4.106870229007634,0.8702290076335878
11.43,0.119140625,-0.542236328125,0.718994140625,-25.251908396946565,-4.106870229007634,0.1984732824427481
