Time(s),AccX,AccY,AccZ,GyrX,GyrY,GyrZ
0.0,0.04052734375,-0.0009765625,1.110595703125,-0.31297709923664124,-0.16793893129770993,-1.2748091603053435
0.01,0.037353515625,-0.00390625,1.12109375,-0.29770992366412213,-0.1450381679389313,-1.3435114503816794
0.02,0.033935546875,-0.005615234375,1.118896484375,-0.5267175572519084,-0.03816793893129771,-1.2748091603053435
0.03,0.04248046875,0.0009765625,1.1240234375,-0.366412213740458,1.8702290076335877,-1.5038167938931297
0.04,0.030517578125,-0.000244140625,1.117919921875,-0.4198473282442748,0.05343511450381679,-1.3893129770992367
0.05,0.0390625,0.00048828125,1.1328125,-0.6564885496183206,0.05343511450381679,-1.5572519083969465
0.06,0.033935546875,-0.01513671875,1.134033203125,-0.5572519083969466,1.9312977099236641,-1.450381679389313
0.07,0.032958984375,0.01171875,1.117431640625,-0.45038167938931295,-0.2900763358778626,-1.4427480916030535
0.08,0.03857421875,-0.000732421875,1.1240234375,-0.5267175572519084,0.03816793893129771,-1.4885496183206106
0.09,0.032958984375,-0.00244140625,1.131591796875,-0.48854961832061067,-0.05343511450381679,-1.3206106870229009
0.1,0.029296875,-0.001708984375,1.120849609375,-0.6564885496183206,-0.20610687022900764,-1.366412213740458
0.11,0.03125,-0.00439453125,1.136474609375,-0.42748091603053434,-0.16793893129770993,-1.2595419847328244
0.12,0.04345703125,0.001708984375,1.124755859375,-0.3816793893129771,1.9236641221374047,-1.282442748091603
0.13,0.041748046875,-0.001953125,1.117431640625,-0.3969465648854962,-0.3893129770992366,-1.5572519083969465
0.14,0.03515625,0.0126953125,1.10986328125,-0.45038167938931295,-0.22137404580152673,-1.5114503816793894
0.15,0.037353515625,-0.013427734375,1.122802734375,-0.5190839694656488,0.05343511450381679,-1.2900763358778626
0.16,0.03955078125,-0.003662109375,1.129150390625,-0.6335877862595419,-0.015267175572519083,-1.2900763358778626
0.17,0.030517578125,-0.0009765625,1.131103515625,-0.3893129770992366,-0.09923664122137404,-1.3435114503816794
0.18,0.023193359375,0.00048828125,1.123046875,-0.6641221374045801,-0.15267175572519084,-1.3969465648854962
0.19,0.015625,0.00146484375,1.123046875,-0.5572519083969466,-1.9236641221374047,-1.381679389312977
0.2,0.03076171875,0.004638671875,1.13037109375,-0.42748091603053434,-1.9389312977099236,-1.4122137404580153
0.21,0.040283203125,-0.00048828125,1.1103515625,-0.7938931297709924,1.900763358778626,-1.3053435114503817
0.22,0.038818359375,-0.010009765625,1.12060546875,-0.4580152671755725,-0.48091603053435117,-1.366412213740458
0.23,0.032958984375,0.00146484375,1.119140625,-0.32061068702290074,-0.19083969465648856,-1.4122137404580153
0.24,0.0302734375,0.001953125,1.12548828125,-0.3969465648854962,0.16030534351145037,-1.2748091603053435
0.25,0.031494140625,-0.006103515625,1.13427734375,-0.4732824427480916,0.12213740458015267,-1.618320610687023
0.26,0.037841796875,-0.00244140625,1.131103515625,-0.6183206106870229,-0.24427480916030533,-1.3206106870229009
0.27,0.033203125,-0.003662109375,1.12060546875,-0.46564885496183206,-0.0916030534351145,-1.3129770992366412
0.28,0.038330078125,0.000244140625,1.110595703125,-0.4961832061068702,-0.061068702290076333,-1.5190839694656488
0.29,0.037353515625,0.015380859375,1.1396484375,-0.3969465648854962,0.0916030534351145,-1.2671755725190839
0.3,0.041748046875,-0.002197265625,1.132568359375,-0.5343511450381679,-0.09923664122137404,-1.297709923664122
0.31,0.017578125,-0.007080078125,1.123779296875,-0.4122137404580153,-0.1450381679389313,-1.3587786259541985
0.32,0.034423828125,0.0,1.122314453125,-0.5572519083969466,0.13740458015267176,-1.4427480916030535
0.33,0.034423828125,0.00048828125,1.129150390625,-0.4961832061068702,-0.21374045801526717,-1.5267175572519085
0.34,0.03515625,-0.003173828125,1.11474609375,-0.2824427480916031,-0.05343511450381679,-1.3358778625954197
0.35,0.029052734375,-0.003173828125,1.112548828125,-0.32061068702290074,-0.04580152671755725,-1.3282442748091603
0.36,0.036376953125,0.000244140625,1.110107421875,-0.48854961832061067,0.1984732824427481,-1.4427480916030535
0.37,0.03564453125,0.004638671875,1.117431640625,-0.3053435114503817,0.015267175572519083,-1.381679389312977
0.38,0.036376953125,0.0029296875,1.12109375,-0.40458015267175573,-0.07633587786259542,-1.2748091603053435
0.39,0.029052734375,-0.000244140625,1.119384765625,-0.6335877862595419,-0.022900763358778626,-1.4809160305343512
0.4,0.035888671875,-0.001953125,1.121337890625,-0.5648854961832062,0.030534351145038167,-1.2595419847328244
0.41,0.04248046875,0.000244140625,1.12939453125,-0.48091603053435117,-0.08396946564885496,-1.1984732824427482
0.42,0.039306640625,-0.008056640625,1.112060546875,-0.29770992366412213,-0.06870229007633588,-1.2671755725190839
0.43,0.035888671875,0.014404296875,1.135986328125,-0.5190839694656488,-1.9541984732824427,-1.2290076335877862
0.44,0.025146484375,-0.0009765625,1.133544921875,-0.5114503816793893,-0.07633587786259542,-1.4885496183206106
0.45,0.03759765625,0.004638671875,1.122802734375,-0.5114503816793893,-0.05343511450381679,-1.4809160305343512
0.46,0.041015625,0.00390625,1.126953125,-0.7557251908396947,0.07633587786259542,-1.3358778625954197
0.47,0.032958984375,0.00048828125,1.117431640625,-0.40458015267175573,-0.061068702290076333,-1.297709923664122
0.48,0.04443359375,-0.00048828125,1.1259765625,-0.2824427480916031,-0.030534351145038167,-1.3893129770992367
0.49,0.02880859375,-0.00439453125,1.125244140625,-0.3969465648854962,-1.9312977099236641,-1.3740458015267176
0.5,0.03369140625,-0.01513671875,1.125,-0.366412213740458,0.0916030534351145,-1.366412213740458
0.51,0.0390625,0.005615234375,1.109619140625,-0.40458015267175573,-0.1297709923664122,-1.534351145038168
0.52,0.039306640625,0.00830078125,1.12451171875,-0.5801526717557252,0.05343511450381679,-1.2748091603053435
0.53,0.029296875,-0.0048828125,1.118408203125,-0.40458015267175573,-0.1450381679389313,-1.2290076335877862
0.54,0.01953125,-0.0009765625,1.1162109375,-0.25190839694656486,-0.29770992366412213,-1.3740458015267176
0.55,0.029541015625,-0.008056640625,1.1220703125,-0.48854961832061067,0.030534351145038167,-1.3435114503816794
0.56,0.040771484375,-0.010986328125,1.136962890625,-0.9083969465648855,-0.09923664122137404,-1.4198473282442747
0.57,0.042724609375,-0.003662109375,1.123779296875,-0.6412213740458015,-0.19083969465648856,-1.3435114503816794
0.58,0.0419921875,-0.002197265625,1.115234375,-0.4351145038167939,-0.5419847328244275,-1.3511450381679388
0.59,0.035888671875,0.001953125,1.111083984375,-0.25190839694656486,0.04580152671755725,-1.3893129770992367
0.6,0.03564453125,-0.00146484375,1.117431640625,-0.549618320610687,0.07633587786259542,-1.3053435114503817
0.61,0.029052734375,0.001220703125,1.11865234375,-0.4961832061068702,0.04580152671755725,-1.5190839694656488
0.62,0.03759765625,-0.011962890625,1.12646484375,-0.3893129770992366,0.022900763358778626,-1.3511450381679388
0.63,0.017822265625,-0.002685546875,1.111572265625,-0.2900763358778626,-0.13740458015267176,-1.3893129770992367
0.64,0.031494140625,0.02783203125,1.1318359375,-1.9389312977099236,0.2824427480916031,-1.4274809160305344
0.65,0.03369140625,-0.017578125,1.1201171875,0.22137404580152673,-0.42748091603053434,-1.4198473282442747
0.66,0.014404296875,-0.0068359375,1.13330078125,-0.7557251908396947,0.25190839694656486,-1.3435114503816794
0.67,0.035400390625,0.007080078125,1.1328125,-0.6641221374045801,0.17557251908396945,-1.4580152671755726
0.68,0.034423828125,0.002685546875,1.131591796875,-0.3816793893129771,-0.20610687022900764,-1.3893129770992367
0.69,0.0439453125,0.006591796875,1.133056640625,-0.6183206106870229,-1.9389312977099236,-1.465648854961832
0.7,0.027099609375,0.012451171875,1.119140625,-0.5648854961832062,0.25190839694656486,-1.4732824427480915
0.71,0.044921875,-0.011474609375,1.104736328125,1.8091603053435115,-0.35877862595419846,-1.4122137404580153
0.72,0.027099609375,-0.0048828125,1.101318359375,-0.48091603053435117,-0.29770992366412213,-1.3435114503816794
0.73,0.03662109375,-0.000732421875,1.123046875,-0.549618320610687,-0.26717557251908397,-1.5114503816793894
0.74,0.07568359375,-0.020751953125,1.14306640625,-0.37404580152671757,0.7786259541984732,-1.2671755725190839
0.75,0.07373046875,0.00244140625,1.122802734375,-0.4351145038167939,1.3206106870229009,-2.9389312977099236
0.76,0.157958984375,-0.034423828125,1.12451171875,-0.6793893129770993,0.8549618320610687,-1.984732824427481
0.77,0.173583984375,-0.05078125,1.088134765625,-0.6183206106870229,-1.2748091603053435,1.8015267175572518
0.78,0.1767578125,-0.037353515625,1.10888671875,1.8396946564885497,-0.0916030534351145,5.8396946564885495
0.79,0.152587890625,-0.043701171875,1.0703125,-0.732824427480916,-2.145038167938931,9.305343511450381
0.8,0.11083984375,-0.02392578125,1.12451171875,0.05343511450381679,-4.290076335877862,13.84732824427481
0.81,0.033935546875,-0.010986328125,1.095947265625,-1.0076335877862594,-9.267175572519085,4.244274809160306
0.82,-0.17333984375,0.0615234375,1.216796875,35.02290076335878,-41.62595419847328,-45.587786259541986
0.83,-0.100341796875,0.0537109375,1.236083984375,119.19083969465649,-114.96946564885496,-80.50381679389314
0.84,0.383056640625,0.016357421875,1.32421875,140.35114503816794,-126.70229007633588,-85.30534351145039
0.85,0.929931640625,0.0693359375,0.686279296875,-10.732824427480915,27.580152671755727,-76.19847328244275
0.86,0.443603515625,0.18701171875,0.4775390625,-149.53435114503816,-39.16030534351145,-90.93129770992367
0.87,-0.108642578125,0.049072265625,1.709228515625,-246.70992366412213,156.25954198473283,-91.97709923664122
0.88,-0.1708984375,0.560791015625,1.99993896484375,-11.83206106870229,44.19083969465649,-59.82442748091603
0.89,0.220458984375,-0.22509765625,0.7119140625,-8.16030534351145,34.62595419847328,-46.74809160305343
0.9,-0.036865234375,-0.01708984375,1.649658203125,0.8549618320610687,-24.954198473282442,-24.66412213740458
0.91,-0.0869140625,-0.01171875,1.27001953125,-14.236641221374045,-14.061068702290076,13.740458015267176
0.92,0.140380859375,-0.739013671875,1.107177734375,11.320610687022901,9.442748091603054,96.93893129770993
0.93,0.03369140625,-0.4072265625,1.219482421875,7.2748091603053435,7.3816793893129775,99.12213740458016
0.94,-0.344970703125,0.16015625,1.156005859375,-8.198473282442748,-12.86259541984733,13.473282442748092
0.95,-0.170166015625,0.087646484375,1.164306640625,-12.763358778625955,8.259541984732824,8.32824427480916
0.96,0.15380859375,-0.093017578125,1.096435546875,-6.786259541984733,10.870229007633588,43.56488549618321
0.97,-0.0263671875,-0.122802734375,1.127685546875,-5.740458015267175,15.572519083969466,34.64885496183206
0.98,0.072998046875,0.008056640625,1.179443359375,-10.022900763358779,13.51908396946565,20.27480916030534
0.99,0.047119140625,0.06982421875,1.119140625,-6.732824427480916,20.755725190839694,4.717557251908397
1.0,-0.0498046875,0.1611328125,1.24755859375,-10.435114503816793,9.045801526717558,13.259541984732824
1.01,-0.21533203125,0.121826171875,1.165771484375,-13.709923664122137,8.297709923664122,31.80916030534351
1.02,0.060302734375,0.046875,1.3134765625,-36.19847328244275,8.17557251908397,69.25190839694656
1.03,0.0478515625,-0.161865234375,1.263671875,-47.916030534351144,26.27480916030534,80.77862595419847
1.04,0.146728515625,-0.231201171875,1.25244140625,-51.05343511450382,59.12977099236641,73.77099236641222
1.05,0.110107421875,-0.197998046875,1.358642578125,-60.778625954198475,59.35114503816794,65.9618320610687
1.06,0.07421875,-0.296875,1.427490234375,-65.91603053435115,22.72519083969466,54.969465648854964
1.07,0.032470703125,-0.23046875,1.43017578125,-66.45801526717557,-16.16793893129771,41.595419847328245
1.08,0.046875,-0.14404296875,1.39453125,-77.96946564885496,-29.977099236641223,37.656488549618324
1.09,0.011962890625,-0.18017578125,1.35400390625,-79.58778625954199,-29.358778625954198,28.412213740458014
1.1,-0.040283203125,-0.22802734375,1.362548828125,-70.23664122137404,-41.01526717557252,14.961832061068701
1.11,-0.001220703125,-0.2197265625,1.369384765625,-59.786259541984734,-46.61068702290076,0.3816793893129771
1.12,0.02978515625,-0.2353515625,1.373779296875,-61.43511450381679,-43.961832061068705,-10.931297709923664
1.13,0.061767578125,-0.301025390625,1.408203125,-66.99236641221374,-47.79389312977099,-16.31297709923664
1.14,0.02685546875,-0.361328125,1.4462890625,-80.02290076335878,-54.900763358778626,-9.572519083969466
1.15,0.037353515625,-0.416748046875,1.404052734375,-102.90076335877863,-60.48091603053435,3.2061068702290076
1.16,0.038818359375,-0.52978515625,1.3349609375,-121.35114503816794,-57.70992366412214,3.7938931297709924
1.17,0.014892578125,-0.5654296875,1.28271484375,-133.64885496183206,-63.80152671755725,-7.625954198473282
1.18,-0.0263671875,-0.578369140625,1.220947265625,-145.33587786259542,-67.6412213740458,-16.84732824427481
1.19,-0.0634765625,-0.634521484375,1.1513671875,-152.44274809160305,-59.030534351145036,-34.12977099236641
1.2,-0.0966796875,-0.6748046875,1.083251953125,-163.83969465648855,-50.51145038167939,-50.458015267175576
1.21,-0.131591796875,-0.817626953125,1.0732421875,-175.3587786259542,-39.16030534351145,-61.20610687022901
1.22,-0.10986328125,-0.811767578125,1.052490234375,-190.93893129770993,-26.244274809160306,-63.81679389312977
1.23,-0.110595703125,-0.648193359375,1.07763671875,-205.96946564885496,-14.450381679389313,-54.36641221374046
1.24,-0.02685546875,-0.601318359375,1.133056640625,-218.46564885496184,0.3893129770992366,-41.213740458015266
1.25,-0.047607421875,-0.613525390625,1.092041015625,-220.33587786259542,5.488549618320611,-43.80916030534351
1.26,-0.142333984375,-0.576171875,0.99560546875,-213.6259541984733,0.9389312977099237,-47.70992366412214
1.27,-0.1953125,-0.65087890625,0.8974609375,-205.51908396946564,8.778625954198473,-48.93129770992366
1.28,-0.1494140625,-0.751220703125,0.84765625,-208.45038167938932,17.099236641221374,-42.49618320610687
1.29,-0.125732421875,-0.84912109375,0.8193359375,-211.77862595419847,33.87022900763359,-45.603053435114504
1.3,-0.102294921875,-0.794189453125,0.780029296875,-208.48091603053436,41.25190839694657,-55.64885496183206
1.31,-0.07421875,-0.6357421875,0.7685546875,-199.64885496183206,50.465648854961835,-69.19083969465649
1.32,-0.01123046875,-0.6337890625,0.772216796875,-177.90076335877862,57.3587786259542,-83.29770992366412
1.33,0.0068359375,-0.579345703125,0.77587890625,-159.19847328244273,62.030534351145036,-80.37404580152672
1.34,0.05224609375,-0.54638671875,0.788330078125,-153.25954198473283,70.82442748091603,-65.12977099236642
1.35,0.088134765625,-0.6474609375,0.84765625,-152.13740458015266,79.59541984732824,-55.88549618320611
1.36,0.04931640625,-0.742919921875,0.82470703125,-148.29007633587787,67.8854961832061,-52.62595419847328
1.37,0.006591796875,-0.667236328125,0.744384765625,-148.66412213740458,40.51145038167939,-59.099236641221374
1.38,0.01123046875,-0.6953125,0.563232421875,-149.55725190839695,38.587786259541986,-61.98473282442748
1.39,0.0400390625,-0.71044921875,0.51708984375,-156.64885496183206,48.725190839694655,-60.10687022900763
1.4,0.036865234375,-0.707763671875,0.5400390625,-170.32824427480915,53.49618320610687,-51.79389312977099
1.41,0.047607421875,-0.735595703125,0.573974609375,-182.7709923664122,53.57251908396947,-38.465648854961835
1.42,0.07421875,-0.769287109375,0.6611328125,-184.2824427480916,38.16030534351145,-32.11450381679389
1.43,0.15087890625,-0.73974609375,0.704345703125,-185.80152671755727,27.282442748091604,-28.206106870229007
1.44,0.181396484375,-0.74462890625,0.614990234375,-190.95419847328245,26.282442748091604,-27.6793893129771
1.45,0.19384765625,-0.684814453125,0.52099609375,-194.75572519083968,19.38167938931298,-27.282442748091604
1.46,0.205322265625,-0.58251953125,0.431640625,-197.34351145038167,11.16793893129771,-23.14503816793893
1.47,0.23291015625,-0.42919921875,0.41357421875,-198.6946564885496,13.694656488549619,-2.763358778625954
1.48,0.158447265625,-0.27978515625,0.44091796875,-206.87022900763358,11.770992366412214,19.82442748091603
1.49,0.137939453125,-0.311279296875,0.403564453125,-210.75572519083968,3.5267175572519083,32.62595419847328
1.5,0.0751953125,-0.49658203125,0.310302734375,-202.83969465648855,6.358778625954199,24.419847328244273
1.51,0.095458984375,-0.615234375,0.294921875,-173.41221374045801,4.702290076335878,8.732824427480915
1.52,0.14990234375,-0.6123046875,0.35302734375,-140.93893129770993,10.01526717557252,-0.9312977099236641
1.53,0.163818359375,-0.516845703125,0.457763671875,-123.37404580152672,11.305343511450381,7.694656488549619
1.54,0.25390625,-0.4697265625,0.559814453125,-119.7557251908397,5.5038167938931295,18.564885496183205
1.55,0.22607421875,-0.57373046875,0.49951171875,-112.79389312977099,-15.274809160305344,8.83206106870229
1.56,0.193359375,-0.670166015625,0.401123046875,-99.95419847328245,-26.19083969465649,-7.1679389312977095
1.57,0.177001953125,-0.70556640625,0.304443359375,-89.98473282442748,-18.03053435114504,-12.908396946564885
1.58,0.170166015625,-0.635009765625,0.339111328125,-80.01526717557252,2.9923664122137406,-10.206106870229007
1.59,0.197509765625,-0.53662109375,0.400146484375,-64.67175572519083,15.48091603053435,-0.06870229007633588
1.6,0.2490234375,-0.50830078125,0.459716796875,-60.083969465648856,28.69465648854962,-3.366412213740458
1.61,0.157958984375,-0.728515625,0.434326171875,-28.236641221374047,9.992366412213741,-28.66412213740458
1.62,0.26318359375,-0.78369140625,0.454833984375,11.954198473282442,16.870229007633586,-51.93129770992366
1.63,0.39306640625,-0.704345703125,0.685546875,32.58015267175573,40.465648854961835,-60.88549618320611
1.64,0.476806640625,-0.6953125,0.896484375,31.083969465648856,43.6793893129771,-51.67175572519084
1.65,0.5146484375,-0.763671875,0.97509765625,15.053435114503817,29.732824427480917,-31.786259541984734
1.66,0.442138671875,-0.8330078125,0.973388671875,8.50381679389313,6.0458015267175576,-15.748091603053435
1.67,0.37890625,-0.84765625,0.85595703125,9.83969465648855,-22.85496183206107,-4.877862595419847
1.68,0.31298828125,-0.84765625,0.6875,20.31297709923664,-45.52671755725191,0.9465648854961832
1.69,0.369384765625,-0.892578125,0.589599609375,28.87786259541985,-37.45038167938932,-2.6793893129770994
1.7,0.399169921875,-0.9482421875,0.507080078125,34.595419847328245,-11.946564885496183,-9.274809160305344
1.71,0.35302734375,-1.026611328125,0.55859375,35.74809160305343,7.00763358778626,-15.625954198473282
1.72,0.359130859375,-1.03466796875,0.59912109375,31.358778625954198,43.900763358778626,-13.977099236641221
1.73,0.404296875,-1.0908203125,0.66357421875,29.595419847328245,95.80916030534351,-9.702290076335878
1.74,0.427734375,-1.145263671875,0.662109375,28.755725190839694,133.10687022900763,-10.305343511450381
1.75,0.419677734375,-1.227294921875,0.673828125,33.52671755725191,157.65648854961833,-17.541984732824428
1.76,0.323486328125,-1.226318359375,0.690185546875,34.51145038167939,152.2824427480916,-21.557251908396946
1.77,0.26220703125,-1.205322265625,0.708984375,29.48854961832061,119.59541984732824,-24.51145038167939
1.78,0.205810546875,-1.230224609375,0.689697265625,20.68702290076336,73.06870229007633,-18.00763358778626
1.79,0.1669921875,-1.202392578125,0.603759765625,13.80916030534351,3.16793893129771,-15.458015267175572
1.8,0.2021484375,-1.106201171875,0.559814453125,8.419847328244275,-47.20610687022901,1.8244274809160306
1.81,0.234375,-1.095458984375,0.372314453125,2.7938931297709924,-75.54198473282443,8.687022900763358
1.82,0.32470703125,-1.189208984375,0.32568359375,4.183206106870229,-70.44274809160305,2.732824427480916
1.83,0.36181640625,-1.27978515625,0.352783203125,8.50381679389313,-63.23664122137404,-9.534351145038167
1.84,0.369384765625,-1.177490234375,0.398193359375,1.3129770992366412,-54.916030534351144,-15.16793893129771
1.85,0.29736328125,-1.06689453125,0.390625,-12.030534351145038,-58.6793893129771,-13.389312977099237
1.86,0.29638671875,-1.001220703125,0.3388671875,-29.541984732824428,-70.58015267175573,-12.50381679389313
1.87,0.316162109375,-0.967529296875,0.264892578125,-43.80916030534351,-64.56488549618321,-12.717557251908397
1.88,0.31884765625,-0.982666015625,0.213623046875,-46.66412213740458,-54.79389312977099,-15.778625954198473
1.89,0.30810546875,-1.0107421875,0.16845703125,-41.50381679389313,-43.152671755725194,-23.48854961832061
1.9,0.335693359375,-0.918701171875,0.16845703125,-30.793893129770993,-12.885496183206106,-27.61832061068702
1.91,0.291748046875,-0.76513671875,0.22509765625,-18.916030534351144,17.69465648854962,-25.50381679389313
1.92,0.293701171875,-0.707275390625,0.283935546875,-3.2061068702290076,42.770992366412216,-24.045801526717558
1.93,0.326171875,-0.762451171875,0.27001953125,11.122137404580153,79.00763358778626,-22.740458015267176
1.94,0.352783203125,-0.904052734375,0.29541015625,28.374045801526716,112.22137404580153,-18.65648854961832
1.95,0.17138671875,-0.885009765625,0.53173828125,40.900763358778626,86.78625954198473,-6.984732824427481
1.96,0.235107421875,-0.85302734375,0.466064453125,35.61068702290076,71.2824427480916,-6.068702290076335
1.97,0.302490234375,-0.89306640625,0.2607421875,26.893129770992367,85.44274809160305,-4.068702290076335
1.98,0.2626953125,-0.94384765625,0.28369140625,22.61832061068702,92.34351145038168,-5.022900763358779
1.99,0.2724609375,-1.001953125,0.276611328125,24.236641221374047,84.6793893129771,-10.091603053435115
2.0,0.326416015625,-1.00439453125,0.35107421875,22.99236641221374,79.01526717557252,-19.52671755725191
2.01,0.294677734375,-0.974365234375,0.396728515625,12.618320610687023,59.0,-23.47328244274809
2.02,0.200927734375,-0.9052734375,0.364501953125,-9.83206106870229,33.05343511450382,-16.374045801526716
2.03,0.21435546875,-0.855224609375,0.360595703125,-31.99236641221374,15.801526717557252,-11.50381679389313
2.04,0.31103515625,-0.882568359375,0.3681640625,-45.48854961832061,20.12213740458015,-4.00763358778626
2.05,0.314208984375,-0.944580078125,0.381103515625,-48.900763358778626,26.557251908396946,-5.412213740458015
2.06,0.245361328125,-0.98876953125,0.38623046875,-51.29770992366412,21.50381679389313,-10.877862595419847
2.07,0.230224609375,-0.983154296875,0.358642578125,-50.12977099236641,22.38167938931298,-13.32824427480916
2.08,0.307861328125,-1.017822265625,0.26416015625,-40.045801526717554,30.50381679389313,-22.82442748091603
2.09,0.306640625,-0.962646484375,0.22705078125,-30.603053435114504,37.42748091603053,-23.671755725190838
2.1,0.242431640625,-0.92578125,0.22900390625,-22.893129770992367,42.2442748091603,-16.610687022900763
2.11,0.2587890625,-0.966796875,0.24072265625,-12.732824427480915,56.31297709923664,-4.824427480916031
2.12,0.23974609375,-0.955810546875,0.21826171875,0.7633587786259542,83.79389312977099,6.343511450381679
2.13,0.235595703125,-0.930419921875,0.19970703125,8.763358778625955,113.16793893129771,4.908396946564886
2.14,0.239501953125,-0.8916015625,0.215087890625,15.793893129770993,142.49618320610688,-14.793893129770993
2.15,0.946044921875,-1.03955078125,0.3671875,30.396946564885496,233.53435114503816,-16.282442748091604
2.16,0.72509765625,-0.779296875,0.3505859375,8.221374045801527,250.12977099236642,49.083969465648856
2.17,0.553955078125,-0.657470703125,0.36181640625,-14.870229007633588,250.12977099236642,115.14503816793894
2.18,0.055908203125,-0.746337890625,0.489501953125,-24.213740458015266,250.12977099236642,146.95419847328245
2.19,-0.302734375,-0.998046875,0.640869140625,-22.938931297709924,206.2290076335878,128.65648854961833
2.2,-0.333740234375,-1.21533203125,0.600830078125,-34.717557251908396,140.65648854961833,76.48091603053435
2.21,-0.3623046875,-1.2890625,0.61181640625,-55.16030534351145,83.62595419847328,14.488549618320612
2.22,-0.23193359375,-1.080078125,0.44384765625,-80.41984732824427,54.61068702290076,-37.6412213740458
2.23,0.06298828125,-0.92822265625,0.322998046875,-90.67175572519083,70.01526717557252,-52.16030534351145
2.24,0.207275390625,-0.852294921875,0.2763671875,-94.65648854961832,93.89312977099236,-50.25954198473283
2.25,0.19775390625,-0.89599609375,0.22705078125,-90.0,106.56488549618321,-43.81679389312977
2.26,0.1171875,-0.953369140625,0.21533203125,-85.70229007633588,105.3206106870229,-47.6793893129771
2.27,0.04736328125,-1.071533203125,0.194091796875,-74.61832061068702,81.17557251908397,-60.05343511450382
2.28,0.081787109375,-1.177734375,0.215087890625,-59.908396946564885,53.58015267175573,-68.79389312977099
2.29,0.1572265625,-1.101318359375,0.268798828125,-38.51145038167939,29.404580152671755,-74.06870229007633
2.3,0.2197265625,-0.943115234375,0.2021484375,-11.908396946564885,15.450381679389313,-70.61068702290076
2.31,0.225341796875,-0.7998046875,0.070068359375,14.84732824427481,2.4580152671755724,-55.32824427480916
2.32,0.1591796875,-0.801513671875,0.09521484375,41.80152671755725,31.068702290076335,-31.82442748091603
2.33,0.164306640625,-0.868408203125,0.16357421875,46.961832061068705,30.893129770992367,-19.17557251908397
2.34,0.170166015625,-0.9375,0.2841796875,40.3587786259542,36.25190839694657,-10.992366412213741
2.35,0.234375,-0.955810546875,0.31640625,18.557251908396946,46.18320610687023,-8.65648854961832
2.36,0.201416015625,-1.018310546875,0.401123046875,-5.129770992366412,38.06106870229008,-13.389312977099237
2.37,0.101806640625,-1.068359375,0.366455078125,-23.099236641221374,10.419847328244275,-24.068702290076335
2.38,0.1298828125,-1.06201171875,0.15673828125,-29.717557251908396,8.534351145038167,-37.37404580152672
2.39,0.11865234375,-1.02587890625,0.09033203125,-16.061068702290076,7.534351145038168,-41.38931297709924
2.4,0.122314453125,-1.019287109375,0.088134765625,5.412213740458015,10.549618320610687,-37.091603053435115
2.41,0.168701171875,-0.99462890625,0.112060546875,17.633587786259543,13.450381679389313,-34.343511450381676
2.42,0.16552734375,-1.008056640625,0.3359375,20.47328244274809,18.221374045801525,-25.137404580152673
2.43,0.251708984375,-1.077880859375,0.280517578125,18.916030534351144,32.32824427480916,-6.893129770992366
2.44,0.29345703125,-1.0869140625,0.286865234375,23.34351145038168,59.656488549618324,11.076335877862595
2.45,0.354248046875,-1.072998046875,0.24658203125,25.282442748091604,82.32824427480917,34.45038167938932
2.46,0.201416015625,-1.064697265625,0.343505859375,34.0,83.27480916030534,56.43511450381679
2.47,0.056396484375,-1.08740234375,0.3564453125,34.152671755725194,93.6412213740458,57.229007633587784
2.48,0.078857421875,-1.048583984375,0.361083984375,28.96946564885496,110.06106870229007,50.954198473282446
2.49,0.1611328125,-1.007080078125,0.37744140625,24.610687022900763,118.65648854961832,43.587786259541986
2.5,0.2333984375,-0.936279296875,0.388427734375,18.106870229007633,121.26717557251908,38.86259541984733
2.51,0.218505859375,-0.916259765625,0.384033203125,10.48091603053435,122.73282442748092,30.671755725190838
2.52,0.138916015625,-0.94482421875,0.33349609375,3.3053435114503817,127.41221374045801,11.045801526717558
2.53,0.05029296875,-0.94091796875,0.337646484375,-1.9236641221374047,131.45038167938932,-6.442748091603053
2.54,0.05078125,-0.960693359375,0.335693359375,-1.297709923664122,134.61832061068702,-10.16793893129771
2.55,0.151611328125,-0.9873046875,0.340576171875,1.2366412213740459,136.22137404580153,-4.32824427480916
2.56,0.19482421875,-0.99755859375,0.355712890625,1.3206106870229009,139.50381679389312,5.213740458015267
2.57,0.1875,-1.007080078125,0.39697265625,1.8625954198473282,135.5114503816794,8.114503816793894
2.58,0.176025390625,-1.015625,0.40673828125,-5.114503816793893,129.1679389312977,4.862595419847328
2.59,0.159423828125,-1.01953125,0.381591796875,-9.954198473282442,124.5114503816794,4.740458015267175
2.6,0.138916015625,-1.046875,0.35107421875,-10.732824427480915,118.36641221374046,8.076335877862595
2.61,0.087890625,-1.056884765625,0.33544921875,-10.770992366412214,111.03053435114504,13.893129770992367
2.62,0.047607421875,-1.0283203125,0.341796875,-9.80916030534351,102.54961832061069,18.778625954198475
2.63,0.00390625,-0.96337890625,0.333740234375,-16.358778625954198,99.58015267175573,15.946564885496183
2.64,-0.035400390625,-0.972900390625,0.314208984375,-16.85496183206107,96.90076335877863,7.908396946564886
2.65,-0.00341796875,-0.96337890625,0.324462890625,-12.885496183206106,93.35114503816794,3.1755725190839694
2.66,0.08251953125,-1.04443359375,0.346435546875,-3.5877862595419847,94.09923664122137,6.435114503816794
2.67,0.192138671875,-1.04638671875,0.330322265625,2.3740458015267176,94.6030534351145,14.511450381679388
2.68,0.116455078125,-0.955322265625,0.34326171875,4.0458015267175576,85.72519083969466,19.82442748091603
2.69,0.011474609375,-0.907470703125,0.317626953125,2.6946564885496183,72.73282442748092,16.923664122137403
2.7,-0.041748046875,-0.873779296875,0.287109375,4.129770992366412,69.68702290076335,8.664122137404581
2.71,-0.021484375,-0.900146484375,0.330810546875,5.6106870229007635,69.04580152671755,4.99236641221374
2.72,-0.010009765625,-0.9521484375,0.401611328125,2.4732824427480917,67.06106870229007,2.633587786259542
2.73,-0.0048828125,-1.01171875,0.48828125,-6.816793893129771,61.00763358778626,-7.343511450381679
2.74,-0.107666015625,-1.070556640625,0.53125,-21.0,48.85496183206107,-30.69465648854962
2.75,-0.153076171875,-1.0146484375,0.45556640625,-38.70229007633588,46.32824427480916,-52.87786259541985
2.76,-0.233642578125,-1.05810546875,0.34716796875,-41.465648854961835,27.740458015267176,-71.1145038167939
2.77,-0.216552734375,-1.130126953125,0.38232421875,-33.3587786259542,-11.221374045801527,-78.38167938931298
2.78,-0.13623046875,-1.18896484375,0.34423828125,-12.969465648854962,-46.13740458015267,-76.86259541984732
2.79,-0.0947265625,-1.18896484375,0.351806640625,6.396946564885496,-70.58778625954199,-78.33587786259542
2.8,-0.027099609375,-1.0947265625,0.34326171875,14.51908396946565,-82.1526717557252,-80.73282442748092
2.81,0.045166015625,-0.98486328125,0.3193359375,4.267175572519084,-67.76335877862596,-77.61832061068702
2.82,0.04248046875,-0.91650390625,0.347412109375,-8.465648854961833,-50.05343511450382,-67.55725190839695
2.83,0.099853515625,-0.89599609375,0.334716796875,-10.98473282442748,-39.10687022900763,-39.23664122137404
2.84,0.16796875,-0.97119140625,0.41162109375,-12.488549618320612,-37.152671755725194,-8.51908396946565
2.85,0.2451171875,-1.006591796875,0.402587890625,-13.007633587786259,-24.83969465648855,20.916030534351144
2.86,0.22802734375,-1.00634765625,0.4638671875,-18.83206106870229,-12.236641221374045,39.25190839694657
2.87,0.198974609375,-1.08349609375,0.482177734375,-22.9618320610687,1.5038167938931297,51.93129770992366
2.88,0.0654296875,-1.223876953125,0.49072265625,-27.633587786259543,9.526717557251908,50.458015267175576
2.89,0.0146484375,-1.361328125,0.5302734375,-36.74809160305343,16.404580152671755,45.12977099236641
2.9,-0.02685546875,-1.462158203125,0.500732421875,-49.19083969465649,27.412213740458014,38.778625954198475
2.91,0.011474609375,-1.540771484375,0.489013671875,-60.221374045801525,42.25190839694657,34.69465648854962
2.92,0.0537109375,-1.5361328125,0.40576171875,-60.213740458015266,45.3587786259542,30.801526717557252
2.93,0.064697265625,-1.447998046875,0.30908203125,-46.68702290076336,37.66412213740458,25.770992366412212
2.94,0.05810546875,-1.452880859375,0.256103515625,-22.53435114503817,26.81679389312977,23.198473282442748
2.95,0.025390625,-1.448974609375,0.239501953125,-3.7480916030534353,13.458015267175572,20.34351145038168
2.96,-0.003662109375,-1.386474609375,0.23828125,14.641221374045802,3.0076335877862594,21.778625954198475
2.97,-0.028076171875,-1.323974609375,0.271484375,28.80916030534351,-5.572519083969466,29.671755725190838
2.98,-0.0107421875,-1.279052734375,0.237548828125,43.23664122137404,-12.82442748091603,37.25954198473283
2.99,-0.02099609375,-1.20849609375,0.209228515625,61.25954198473283,-27.458015267175572,40.14503816793893
3.0,-0.031005859375,-1.15673828125,0.187255859375,80.97709923664122,-42.66412213740458,28.0381679389313
3.01,0.00439453125,-1.1318359375,0.263427734375,88.93129770992367,-45.66412213740458,15.122137404580153
3.02,0.005126953125,-1.03076171875,0.285888671875,84.90076335877863,-41.595419847328245,4.969465648854962
3.03,0.028076171875,-0.912841796875,0.3271484375,76.90076335877863,-40.900763358778626,4.366412213740458
3.04,0.07763671875,-0.899169921875,0.316650390625,70.2824427480916,-32.35114503816794,11.450381679389313
3.05,0.072998046875,-0.908203125,0.338623046875,58.79389312977099,-26.893129770992367,17.519083969465647
3.06,0.063232421875,-0.9501953125,0.26123046875,59.79389312977099,-22.221374045801525,21.740458015267176
3.07,0.00634765625,-0.944091796875,0.255859375,62.80916030534351,-22.69465648854962,18.33587786259542
3.08,-0.02880859375,-0.900146484375,0.294189453125,60.30534351145038,-21.076335877862597,13.34351145038168
3.09,0.02490234375,-0.84912109375,0.3134765625,49.6793893129771,-14.938931297709924,14.84732824427481
3.1,0.096435546875,-0.888427734375,0.292236328125,47.2442748091603,-10.86259541984733,21.450381679389313
3.11,0.064453125,-0.897216796875,0.273193359375,48.587786259541986,-10.091603053435115,23.16030534351145
3.12,0.066162109375,-0.881103515625,0.27294921875,45.57251908396947,-6.3893129770992365,20.251908396946565
3.13,0.0625,-0.823974609375,0.26953125,41.61832061068702,-3.7404580152671754,14.748091603053435
3.14,0.0615234375,-0.77783203125,0.257568359375,38.76335877862596,-2.9389312977099236,6.99236641221374
3.15,0.04931640625,-0.7412109375,0.26904296875,39.18320610687023,-3.0763358778625953,0.9694656488549618
3.16,0.044677734375,-0.691162109375,0.28857421875,36.81679389312977,-4.824427480916031,-0.6335877862595419
3.17,0.045166015625,-0.5986328125,0.30615234375,34.06870229007634,-8.82442748091603,2.7404580152671754
3.18,0.046630859375,-0.539794921875,0.30859375,28.374045801526716,-10.885496183206106,7.068702290076335
3.19,0.02734375,-0.478759765625,0.322265625,20.0,-9.778625954198473,9.549618320610687
3.2,0.05322265625,-0.4267578125,0.33447265625,13.648854961832061,-11.564885496183207,12.106870229007633
3.21,0.046630859375,-0.35107421875,0.327880859375,7.152671755725191,-11.274809160305344,13.786259541984732
3.22,0.04150390625,-0.285400390625,0.353515625,1.8015267175572518,-8.580152671755725,13.221374045801527
3.23,0.04541015625,-0.19384765625,0.362060546875,-10.702290076335878,-8.50381679389313,7.282442748091603
3.24,0.009521484375,-0.109619140625,0.34423828125,-21.946564885496183,-8.610687022900763,-4.816793893129771
3.25,0.00537109375,-0.056396484375,0.383056640625,-36.68702290076336,-10.290076335877863,-19.083969465648856
3.26,0.0673828125,0.057861328125,0.410888671875,-47.14503816793893,-8.236641221374045,-27.625954198473284
3.27,0.126953125,0.16015625,0.46923828125,-65.19847328244275,-3.068702290076336,-34.43511450381679
3.28,0.176025390625,0.24658203125,0.50048828125,-88.56488549618321,4.770992366412214,-30.083969465648856
3.29,0.2275390625,0.322021484375,0.52978515625,-121.2442748091603,11.98473282442748,-17.328244274809162
3.3,0.3115234375,0.153076171875,0.394775390625,-152.6946564885496,15.694656488549619,5.030534351145038
3.31,0.278564453125,-0.15771484375,0.253173828125,-168.26717557251908,26.022900763358777,21.419847328244273
3.32,0.1044921875,-0.3466796875,0.158935546875,-167.14503816793894,28.389312977099237,22.083969465648856
3.33,-0.00244140625,-0.505615234375,0.10546875,-163.51908396946564,28.083969465648856,15.534351145038167
3.34,0.0390625,-0.63330078125,0.026611328125,-160.32824427480915,28.580152671755727,12.01526717557252
3.35,0.17236328125,-0.90576171875,-0.014892578125,-160.0763358778626,33.93129770992366,21.52671755725191
3.36,0.219970703125,-1.231689453125,-0.067626953125,-156.1145038167939,40.16793893129771,37.47328244274809
3.37,0.139404296875,-1.5107421875,-0.08984375,-145.5648854961832,40.57251908396947,49.038167938931295
3.38,-0.056640625,-1.678466796875,-0.155517578125,-126.45801526717557,36.152671755725194,46.12977099236641
3.39,-0.263427734375,-1.72265625,-0.177734375,-93.16793893129771,17.50381679389313,28.53435114503817
3.4,-0.30322265625,-1.647705078125,-0.135498046875,-63.343511450381676,-1.450381679389313,1.7557251908396947
3.41,-0.1806640625,-1.536376953125,-0.04150390625,-50.534351145038165,-6.183206106870229,-19.68702290076336
3.42,-0.06494140625,-1.4462890625,0.023681640625,-51.11450381679389,-0.7557251908396947,-34.80916030534351
3.43,-0.000244140625,-1.4013671875,0.056640625,-56.54961832061068,5.679389312977099,-42.465648854961835
3.44,0.029541015625,-1.45166015625,0.038818359375,-55.38931297709924,12.404580152671755,-46.87022900763359
3.45,0.018798828125,-1.504150390625,0.073486328125,-56.06870229007634,16.984732824427482,-47.25190839694657
3.46,-0.007568359375,-1.5361328125,-0.02197265625,-44.038167938931295,16.702290076335878,-50.54961832061068
3.47,0.011474609375,-1.59130859375,0.0537109375,-34.62595419847328,16.282442748091604,-46.29770992366412
3.48,0.013427734375,-1.619384765625,-0.003662109375,-12.83206106870229,13.900763358778626,-38.20610687022901
3.49,-0.071044921875,-1.5693359375,0.082763671875,-2.4732824427480917,4.076335877862595,-34.11450381679389
3.5,-0.0888671875,-1.517578125,0.133544921875,-0.3969465648854962,2.267175572519084,-30.389312977099237
3.51,-0.040283203125,-1.506591796875,0.1416015625,2.282442748091603,0.732824427480916,-22.366412213740457
3.52,0.032958984375,-1.48193359375,0.17431640625,4.435114503816794,1.5038167938931297,-8.381679389312977
3.53,0.076904296875,-1.5029296875,0.181884765625,5.709923664122138,4.595419847328245,2.2977099236641223
3.54,0.040771484375,-1.524658203125,0.145263671875,9.549618320610687,7.648854961832061,9.80916030534351
3.55,-0.020751953125,-1.538330078125,0.119140625,14.435114503816793,7.984732824427481,13.793893129770993
3.56,-0.070556640625,-1.55224609375,0.102783203125,17.84732824427481,7.7251908396946565,12.541984732824428
3.57,-0.142578125,-1.557861328125,0.093994140625,23.290076335877863,4.282442748091603,6.793893129770993
3.58,-0.1982421875,-1.56884765625,0.11083984375,27.65648854961832,-0.6946564885496184,-1.7786259541984732
3.59,-0.17822265625,-1.60791015625,0.112548828125,35.80152671755725,-1.3282442748091603,-7.7251908396946565
3.6,-0.1201171875,-1.560791015625,0.125,42.31297709923664,0.6183206106870229,-10.969465648854962
3.61,-0.1044921875,-1.510498046875,0.13232421875,50.12977099236641,-3.816793893129771,-13.786259541984732
3.62,-0.080810546875,-1.427978515625,0.12841796875,51.38167938931298,-3.0,-15.236641221374045
3.63,-0.0732421875,-1.369384765625,0.13330078125,53.02290076335878,-4.3816793893129775,-15.732824427480915
3.64,-0.067138671875,-1.3291015625,0.134521484375,55.282442748091604,-6.374045801526718,-13.923664122137405
3.65,-0.041259765625,-1.3046875,0.15185546875,55.83206106870229,-7.923664122137405,-8.595419847328245
3.66,0.026611328125,-1.247802734375,0.163818359375,52.61068702290076,-5.404580152671755,-1.5114503816793894
3.67,0.031005859375,-1.210693359375,0.152099609375,47.404580152671755,-3.480916030534351,8.053435114503817
3.68,0.0283203125,-1.170654296875,0.12451171875,49.0763358778626,-1.9770992366412214,16.297709923664122
3.69,-0.001708984375,-1.09375,0.129150390625,50.45038167938932,-5.580152671755725,17.6793893129771
3.7,-0.0166015625,-1.0322265625,0.144287109375,47.36641221374046,-6.633587786259542,17.46564885496183
3.71,-0.022216796875,-1.000732421875,0.161865234375,39.6793893129771,-7.816793893129771,13.236641221374045
3.72,0.004150390625,-0.97802734375,0.142333984375,35.25954198473283,-5.625954198473282,11.98473282442748
3.73,-0.01220703125,-0.96826171875,0.138671875,33.82442748091603,-5.511450381679389,10.206106870229007
3.74,-0.040771484375,-0.8798828125,0.11865234375,32.38931297709924,-6.66412213740458,5.534351145038168
3.75,-0.037109375,-0.801513671875,0.15234375,23.9618320610687,-4.106870229007634,-1.7328244274809161
3.76,-0.03857421875,-0.748046875,0.15185546875,19.68702290076336,-1.6717557251908397,-8.51908396946565
3.77,-0.035888671875,-0.68408203125,0.173095703125,17.404580152671755,-0.648854961832061,-14.419847328244275
3.78,-0.022705078125,-0.63232421875,0.2197265625,9.419847328244275,1.8015267175572518,-17.47328244274809
3.79,-0.006103515625,-0.605712890625,0.2236328125,1.3740458015267176,4.473282442748092,-17.641221374045802
3.8,-0.00830078125,-0.5,0.2431640625,-22.14503816793893,-4.351145038167939,-15.099236641221374
3.81,0.010986328125,-0.453857421875,0.322998046875,-70.00763358778626,9.541984732824428,-12.282442748091603
3.82,0.048828125,-0.538330078125,0.287841796875,-82.83969465648855,7.595419847328245,-7.206106870229007
3.83,0.048828125,-0.518310546875,0.16845703125,-76.2442748091603,4.770992366412214,-0.7251908396946565
3.84,0.042236328125,-0.536376953125,0.083251953125,-52.37404580152672,-3.8244274809160306,3.7404580152671754
3.85,0.03515625,-0.5419921875,0.06787109375,-31.091603053435115,-6.366412213740458,3.763358778625954
3.86,-0.01904296875,-0.521728515625,0.0966796875,-18.519083969465647,-9.259541984732824,-1.1221374045801527
3.87,-0.031005859375,-0.49951171875,0.0927734375,-13.580152671755725,-9.900763358778626,-8.595419847328245
3.88,-0.01123046875,-0.45458984375,0.11767578125,-3.267175572519084,-15.870229007633588,-14.618320610687023
3.89,0.052978515625,-0.413818359375,0.09375,1.8549618320610688,-17.80916030534351,-19.83206106870229
3.9,0.084228515625,-0.38818359375,0.1376953125,-1.015267175572519,-14.16030534351145,-26.83969465648855
3.91,0.113037109375,-0.38037109375,0.13671875,-5.297709923664122,-9.114503816793894,-33.58015267175573
3.92,0.160400390625,-0.362060546875,0.162109375,-9.419847328244275,-6.030534351145038,-43.49618320610687
3.93,0.20703125,-0.330810546875,0.176025390625,-14.366412213740459,-1.2671755725190839,-47.99236641221374
3.94,0.250732421875,-0.34765625,0.166015625,-16.580152671755727,0.549618320610687,-47.17557251908397
3.95,0.306396484375,-0.35986328125,0.185546875,-17.786259541984734,1.5954198473282444,-42.13740458015267
3.96,0.342529296875,-0.43408203125,0.116943359375,-18.49618320610687,4.656488549618321,-38.98473282442748
3.97,0.34228515625,-0.49560546875,0.090576171875,-22.908396946564885,11.549618320610687,-36.25954198473283
3.98,0.296142578125,-0.55126953125,0.042236328125,-28.64885496183206,18.564885496183205,-42.10687022900763
3.99,0.259033203125,-0.57470703125,0.03515625,-32.717557251908396,22.404580152671755,-48.83206106870229
4.0,0.24609375,-0.59375,0.0390625,-32.38167938931298,23.17557251908397,-50.534351145038165
4.01,0.287841796875,-0.62158203125,0.037841796875,-33.79389312977099,22.68702290076336,-45.11450381679389
4.02,0.383056640625,-0.78125,-0.00390625,-24.12213740458015,24.099236641221374,-33.343511450381676
4.03,0.355224609375,-0.934326171875,-0.0595703125,-11.15267175572519,22.786259541984734,-31.68702290076336
4.04,0.24853515625,-0.976318359375,-0.10791015625,-0.6946564885496184,26.27480916030534,-44.25190839694657
4.05,0.0830078125,-0.9560546875,-0.100341796875,9.335877862595419,20.389312977099237,-64.56488549618321
4.06,0.03564453125,-0.93359375,-0.046630859375,16.51145038167939,12.931297709923664,-85.58778625954199
4.07,0.098388671875,-0.944580078125,-0.005859375,22.03053435114504,2.549618320610687,-92.64885496183206
4.08,0.2001953125,-0.9560546875,0.06982421875,21.633587786259543,-2.8244274809160306,-89.83969465648855
4.09,0.218505859375,-0.95849609375,0.09912109375,18.64885496183206,-3.732824427480916,-78.89312977099236
4.1,0.215576171875,-0.96435546875,0.13671875,18.213740458015266,-5.351145038167939,-72.29007633587786
4.11,0.257080078125,-0.98291015625,0.17529296875,14.587786259541986,-5.458015267175573,-62.36641221374046
4.12,0.299560546875,-0.955078125,0.224853515625,7.213740458015267,-5.5038167938931295,-45.43511450381679
4.13,0.337158203125,-0.9873046875,0.227783203125,-5.00763358778626,-6.587786259541985,-27.099236641221374
4.14,0.367431640625,-1.087646484375,0.22607421875,-12.297709923664122,-8.251908396946565,-3.2442748091603053
4.15,0.30029296875,-1.216552734375,0.20751953125,-15.236641221374045,-7.786259541984733,15.82442748091603
4.16,0.201904296875,-1.250244140625,0.181396484375,-18.977099236641223,-8.267175572519085,20.977099236641223
4.17,0.097412109375,-1.289306640625,0.189697265625,-21.61832061068702,-11.572519083969466,13.129770992366412
4.18,0.087646484375,-1.32958984375,0.18115234375,-21.564885496183205,-12.67175572519084,-0.7862595419847328
4.19,0.149169921875,-1.30126953125,0.247314453125,-24.091603053435115,-8.969465648854962,-10.80916030534351
4.2,0.18798828125,-1.331298828125,0.26513671875,-23.85496183206107,-11.625954198473282,-15.412213740458014
4.21,0.242431640625,-1.369873046875,0.2255859375,-17.64885496183206,-6.931297709923665,-14.80916030534351
4.22,0.278076171875,-1.447509765625,0.24658203125,-13.618320610687023,-5.175572519083969,-10.412213740458014
4.23,0.2470703125,-1.5498046875,0.295166015625,-17.198473282442748,-0.31297709923664124,-5.190839694656488
4.24,0.2197265625,-1.612060546875,0.240234375,-28.587786259541986,10.435114503816793,-3.786259541984733
4.25,0.139404296875,-1.7578125,0.163330078125,-14.19083969465649,2.2977099236641223,-6.8320610687022905
4.26,0.140869140625,-1.826171875,0.139892578125,7.3893129770992365,-7.702290076335878,-10.34351145038168
4.27,0.227783203125,-1.843017578125,0.21337890625,13.129770992366412,-8.633587786259541,-6.900763358778626
4.28,0.338134765625,-1.824951171875,0.26220703125,9.755725190839694,-3.2290076335877864,7.3816793893129775
4.29,0.384765625,-1.80078125,0.23583984375,9.083969465648854,-1.9389312977099236,25.16030534351145
4.3,0.3623046875,-1.784912109375,0.21337890625,15.244274809160306,1.7633587786259541,38.0763358778626
4.31,0.3193359375,-1.787841796875,0.20263671875,19.80916030534351,3.3893129770992365,45.10687022900763
4.32,0.275634765625,-1.79833984375,0.185302734375,25.061068702290076,6.3816793893129775,46.595419847328245
4.33,0.23828125,-1.774658203125,0.16259765625,31.458015267175572,7.320610687022901,44.49618320610687
4.34,0.2080078125,-1.70556640625,0.140625,42.23664122137404,6.412213740458015,41.87022900763359
4.35,0.18359375,-1.60107421875,0.15380859375,47.10687022900763,5.396946564885496,40.93129770992366
4.36,0.162841796875,-1.51171875,0.170654296875,52.29007633587786,5.6183206106870225,41.961832061068705
4.37,0.169677734375,-1.41259765625,0.18017578125,54.10687022900763,5.641221374045801,43.58015267175573
4.38,0.1669921875,-1.368408203125,0.163818359375,57.099236641221374,5.763358778625954,45.267175572519086
4.39,0.16162109375,-1.30224609375,0.156005859375,58.64885496183206,7.786259541984733,47.51908396946565
4.4,0.1591796875,-1.226806640625,0.1767578125,62.48854961832061,4.282442748091603,47.656488549618324
4.41,0.180908203125,-1.219970703125,0.072265625,67.92366412213741,3.6946564885496183,45.083969465648856
4.42,0.078369140625,-1.14013671875,0.132080078125,65.80152671755725,-5.038167938931298,38.47328244274809
4.43,0.14697265625,-1.072021484375,0.133544921875,57.69465648854962,1.0763358778625953,36.61832061068702
4.44,0.16845703125,-1.05029296875,0.10595703125,54.7557251908397,2.045801526717557,35.725190839694655
4.45,0.1142578125,-1.044677734375,0.1171875,59.58015267175573,-0.4198473282442748,33.778625954198475
4.46,0.087646484375,-0.94677734375,0.167724609375,54.099236641221374,-2.549618320610687,32.282442748091604
4.47,0.072509765625,-0.85400390625,0.177734375,44.16030534351145,-1.3435114503816794,33.80152671755725
4.48,0.066650390625,-0.8095703125,0.148681640625,40.86259541984733,-4.145038167938932,35.32824427480916
4.49,0.05615234375,-0.74951171875,0.15283203125,37.99236641221374,-7.022900763358779,33.44274809160305
4.5,0.06005859375,-0.675048828125,0.1865234375,29.19083969465649,-3.6106870229007635,28.80916030534351
4.51,0.073974609375,-0.656982421875,0.20458984375,16.793893129770993,-3.2061068702290076,24.740458015267176
4.52,0.09033203125,-0.651123046875,0.20068359375,14.49618320610687,-3.183206106870229,22.64885496183206
4.53,0.0712890625,-0.635498046875,0.189453125,12.366412213740459,-0.9312977099236641,18.366412213740457
4.54,0.033447265625,-0.62548828125,0.20263671875,12.473282442748092,0.24427480916030533,9.34351145038168
4.55,0.0234375,-0.564697265625,0.199462890625,7.709923664122138,2.6717557251908395,1.1984732824427482
4.56,-0.0087890625,-0.517822265625,0.20458984375,-11.67175572519084,2.427480916030534,-3.4198473282442747
4.57,0.0302734375,-0.575927734375,0.210205078125,-9.488549618320612,-2.4885496183206106,-6.396946564885496
4.58,0.011962890625,-0.5,0.17919921875,-11.106870229007633,-10.045801526717558,-4.770992366412214
4.59,0.08837890625,-0.530517578125,0.19580078125,-2.3206106870229006,-6.572519083969466,-2.3282442748091605
4.6,0.06884765625,-0.452392578125,0.2119140625,0.9923664122137404,-10.900763358778626,-2.0916030534351147
4.61,0.0810546875,-0.44189453125,0.2275390625,1.702290076335878,-12.80916030534351,-0.8091603053435115
4.62,0.060791015625,-0.424560546875,0.239990234375,-1.0381679389312977,-14.732824427480915,-0.9007633587786259
4.63,0.072998046875,-0.427978515625,0.22216796875,0.15267175572519084,-15.236641221374045,-4.854961832061068
4.64,0.063720703125,-0.385498046875,0.24267578125,-3.3893129770992365,-14.801526717557252,-10.01526717557252
4.65,0.095703125,-0.361083984375,0.236572265625,-8.32824427480916,-13.755725190839694,-18.72519083969466
4.66,0.158203125,-0.36865234375,0.235107421875,-14.16030534351145,-10.893129770992367,-22.114503816793892
4.67,0.21533203125,-0.377685546875,0.23876953125,-19.045801526717558,-8.725190839694656,-21.85496183206107
4.68,0.263916015625,-0.3896484375,0.232421875,-24.885496183206108,-6.091603053435114,-21.893129770992367
4.69,0.288818359375,-0.459228515625,0.206298828125,-31.053435114503817,-2.435114503816794,-22.702290076335878
4.7,0.272705078125,-0.49365234375,0.176513671875,-33.70992366412214,0.8396946564885496,-26.061068702290076
4.71,0.235107421875,-0.53125,0.16259765625,-31.83969465648855,3.8931297709923665,-32.778625954198475
4.72,0.22314453125,-0.512939453125,0.158203125,-31.69465648854962,1.900763358778626,-38.44274809160305
4.73,0.223388671875,-0.499755859375,0.173583984375,-36.38167938931298,2.7099236641221376,-39.458015267175576
4.74,0.25537109375,-0.480224609375,0.1943359375,-41.81679389312977,1.3358778625954197,-35.18320610687023
4.75,0.300537109375,-0.508544921875,0.1875,-45.0,0.5877862595419847,-29.129770992366414
4.76,0.3505859375,-0.567626953125,0.184326171875,-49.50381679389313,2.9083969465648853,-21.427480916030536
4.77,0.32373046875,-0.612548828125,0.20703125,-51.038167938931295,4.015267175572519,-16.99236641221374
4.78,0.290771484375,-0.634765625,0.12841796875,-54.05343511450382,6.587786259541985,-20.0381679389313
4.79,0.2529296875,-0.656494140625,0.094482421875,-47.02290076335878,6.076335877862595,-26.297709923664122
4.8,0.2666015625,-0.669921875,0.15576171875,-44.3206106870229,4.511450381679389,-28.763358778625953
4.81,0.302734375,-0.63525390625,0.133544921875,-43.76335877862596,7.00763358778626,-23.885496183206108
4.82,0.312255859375,-0.652587890625,0.15185546875,-47.70992366412214,8.82442748091603,-16.213740458015266
4.83,0.298583984375,-0.71875,0.14697265625,-57.465648854961835,9.961832061068701,-11.702290076335878
4.84,0.26513671875,-0.807373046875,0.111572265625,-65.87022900763358,11.564885496183207,-5.625954198473282
4.85,0.20849609375,-0.894775390625,0.06396484375,-71.56488549618321,13.961832061068701,-6.473282442748092
4.86,0.185791015625,-0.9287109375,0.041748046875,-72.82442748091603,12.679389312977099,-9.625954198473282
4.87,0.190185546875,-0.975341796875,0.00341796875,-69.79389312977099,12.717557251908397,-13.129770992366412
4.88,0.2255859375,-1.016845703125,0.0380859375,-69.32824427480917,14.091603053435115,-14.946564885496183
4.89,0.257568359375,-1.05712890625,0.04541015625,-70.54961832061069,17.17557251908397,-12.061068702290076
4.9,0.25537109375,-1.118408203125,0.02001953125,-75.94656488549619,19.580152671755727,-4.3893129770992365
4.91,0.20458984375,-1.18408203125,-0.021240234375,-79.19083969465649,18.015267175572518,0.5343511450381679
4.92,0.138916015625,-1.307861328125,-0.037841796875,-78.61068702290076,15.923664122137405,1.6641221374045803
4.93,0.10498046875,-1.3583984375,-0.01953125,-80.47328244274809,12.603053435114504,1.7251908396946565
4.94,0.09716796875,-1.47509765625,-0.035400390625,-66.36641221374046,-2.7557251908396947,3.3206106870229006
4.95,0.221435546875,-1.631591796875,-0.2275390625,-48.74809160305343,13.610687022900763,13.641221374045802
4.96,0.10107421875,-1.650634765625,-0.167236328125,-9.65648854961832,-12.595419847328245,15.297709923664122
4.97,0.035888671875,-1.603759765625,-0.06982421875,5.572519083969466,-14.717557251908397,14.381679389312977
4.98,0.059326171875,-1.606689453125,0.103271484375,-20.221374045801525,1.4198473282442747,15.98473282442748
4.99,0.00732421875,-1.615966796875,0.064697265625,-37.267175572519086,7.786259541984733,13.305343511450381
5.0,-0.055908203125,-1.63916015625,-0.0380859375,-18.46564885496183,-0.183206106870229,8.351145038167939
5.01,-0.081298828125,-1.642333984375,-0.005859375,4.641221374045801,-9.870229007633588,4.801526717557252
5.02,-0.06005859375,-1.639892578125,0.089599609375,6.877862595419847,-9.412213740458014,3.564885496183206
5.03,-0.055908203125,-1.650634765625,0.116455078125,0.8015267175572519,-4.198473282442748,3.1908396946564888
5.04,-0.0966796875,-1.681396484375,0.077392578125,6.312977099236641,-4.603053435114504,1.9236641221374047
5.05,-0.07080078125,-1.68408203125,0.063720703125,18.885496183206108,-8.366412213740459,-4.656488549618321
5.06,-0.0361328125,-1.66650390625,0.095703125,26.137404580152673,-10.091603053435115,-6.290076335877862
5.07,-0.014404296875,-1.649658203125,0.105224609375,25.419847328244273,-6.809160305343512,-6.267175572519084
5.08,0.021240234375,-1.67138671875,0.093994140625,22.48854961832061,-3.6717557251908395,-4.305343511450381
5.09,0.02783203125,-1.671142578125,0.08154296875,23.83969465648855,-1.8015267175572518,-0.8396946564885496
5.1,0.016845703125,-1.648193359375,0.070556640625,28.87786259541985,-1.5572519083969465,4.198473282442748
5.11,0.021484375,-1.610595703125,0.07275390625,35.14503816793893,-1.633587786259542,9.213740458015268
5.12,0.033203125,-1.553466796875,0.066650390625,37.274809160305345,-1.16793893129771,12.389312977099237
5.13,0.059814453125,-1.524169921875,0.051025390625,35.68702290076336,-0.31297709923664124,14.198473282442748
5.14,0.089599609375,-1.533447265625,0.039794921875,36.961832061068705,1.6412213740458015,14.206106870229007
5.15,0.09130859375,-1.5478515625,-0.00048828125,44.908396946564885,1.083969465648855,13.305343511450381
5.16,0.06982421875,-1.53173828125,-0.002685546875,55.091603053435115,-1.6946564885496183,10.106870229007633
5.17,0.051513671875,-1.43798828125,0.02783203125,56.52671755725191,-0.5954198473282443,9.122137404580153
5.18,0.07666015625,-1.3544921875,0.010986328125,57.267175572519086,-1.2213740458015268,12.366412213740459
5.19,0.091064453125,-1.303466796875,0.008544921875,61.74045801526717,-5.9465648854961835,16.671755725190838
5.2,0.15576171875,-1.22216796875,0.00146484375,70.78625954198473,-2.122137404580153,21.137404580152673
5.21,0.150390625,-1.182373046875,0.046875,70.48091603053435,-6.916030534351145,20.72519083969466
5.22,0.14111328125,-1.169921875,0.044677734375,75.06870229007633,-11.687022900763358,21.65648854961832
5.23,0.126953125,-1.073486328125,0.072021484375,76.54961832061069,-11.15267175572519,22.64885496183206
5.24,0.138916015625,-1.033203125,0.09228515625,73.1145038167939,-7.32824427480916,23.786259541984734
5.25,0.124267578125,-0.99853515625,0.07373046875,74.74809160305344,-7.183206106870229,22.908396946564885
5.26,0.0986328125,-0.94189453125,0.094482421875,77.63358778625954,-6.9541984732824424,21.38167938931298
5.27,0.10009765625,-0.859619140625,0.13623046875,72.82442748091603,-3.1526717557251906,14.312977099236642
5.28,0.13232421875,-0.8115234375,0.139892578125,68.27480916030534,-1.5190839694656488,14.213740458015268
5.29,0.1494140625,-0.726806640625,0.131103515625,62.63358778625954,-0.9465648854961832,16.9618320610687
5.3,0.134765625,-0.691162109375,0.142333984375,61.30534351145038,-2.4656488549618323,18.572519083969464
5.31,0.144775390625,-0.65966796875,0.1767578125,53.25190839694657,0.1450381679389313,16.862595419847327
5.32,0.135986328125,-0.62451171875,0.19970703125,41.79389312977099,4.511450381679389,14.091603053435115
5.33,0.16455078125,-0.59716796875,0.18994140625,35.06106870229008,6.137404580152672,12.633587786259541
5.34,0.13916015625,-0.5390625,0.1796875,31.206106870229007,5.824427480916031,9.977099236641221
5.35,0.1328125,-0.495361328125,0.209228515625,24.793893129770993,6.465648854961832,7.106870229007634
5.36,0.154296875,-0.466552734375,0.20849609375,22.923664122137403,4.908396946564886,6.32824427480916
5.37,0.12451171875,-0.399658203125,0.2314453125,19.603053435114504,1.6793893129770991,4.740458015267175
5.38,0.1201171875,-0.37646484375,0.230712890625,14.931297709923664,0.5648854961832062,2.198473282442748
5.39,0.13427734375,-0.34619140625,0.22412109375,10.580152671755725,0.8396946564885496,-1.4274809160305344
5.4,0.13623046875,-0.297119140625,0.237548828125,6.282442748091603,0.32061068702290074,-5.221374045801527
5.41,0.14794921875,-0.258056640625,0.255615234375,-0.9465648854961832,-0.4122137404580153,-9.236641221374045
5.42,0.156494140625,-0.212158203125,0.237548828125,-6.938931297709924,-1.0763358778625953,-12.16793893129771
5.43,0.16650390625,-0.202880859375,0.252685546875,-11.65648854961832,-1.2671755725190839,-12.748091603053435
5.44,0.181884765625,-0.15087890625,0.27099609375,-19.129770992366414,-1.4809160305343512,-11.206106870229007
5.45,0.181640625,-0.143798828125,0.268798828125,-25.541984732824428,0.31297709923664124,-10.030534351145038
5.46,0.173828125,-0.158203125,0.26123046875,-35.93129770992366,0.6335877862595419,-9.099236641221374
5.47,0.175537109375,-0.19287109375,0.23046875,-42.725190839694655,1.0076335877862594,-9.977099236641221
5.48,0.16943359375,-0.238037109375,0.205322265625,-48.50381679389313,0.9007633587786259,-16.17557251908397
5.49,0.19091796875,-0.320556640625,0.1689453125,-52.404580152671755,2.3206106870229006,-23.72519083969466
5.5,0.199951171875,-0.385009765625,0.135498046875,-53.152671755725194,5.137404580152672,-36.152671755725194
5.51,0.202392578125,-0.429443359375,0.1318359375,-53.221374045801525,6.1603053435114505,-44.587786259541986
5.52,0.232666015625,-0.444580078125,0.14892578125,-56.23664122137404,6.732824427480916,-47.62595419847328
5.53,0.24853515625,-0.4580078125,0.14501953125,-61.0,8.145038167938932,-46.74809160305343
5.54,0.2724609375,-0.548095703125,0.11328125,-66.31297709923665,8.17557251908397,-37.61832061068702
5.55,0.31787109375,-0.697265625,0.0546875,-65.5114503816794,6.908396946564886,-33.80152671755725
5.56,0.325927734375,-0.81591796875,0.005126953125,-63.51145038167939,8.916030534351146,-36.396946564885496
5.57,0.3037109375,-0.927978515625,0.010009765625,-61.595419847328245,12.885496183206106,-41.847328244274806
5.58,0.275390625,-0.975830078125,0.0458984375,-60.19083969465649,13.65648854961832,-45.0763358778626
5.59,0.257568359375,-1.00732421875,0.060546875,-59.786259541984734,13.145038167938932,-42.954198473282446
5.6,0.268310546875,-1.02880859375,0.0703125,-58.70992366412214,11.763358778625955,-31.27480916030534
5.61,0.28955078125,-1.076904296875,0.067626953125,-63.18320610687023,10.83969465648855,-21.206106870229007
5.62,0.32421875,-1.13623046875,0.067626953125,-65.57251908396947,12.045801526717558,-9.83206106870229
5.63,0.302001953125,-1.21484375,0.036865234375,-68.0,16.68702290076336,-4.0534351145038165
5.64,0.255615234375,-1.3017578125,0.028076171875,-66.2824427480916,19.61832061068702,-2.900763358778626
5.65,0.197265625,-1.388427734375,0.028076171875,-57.9236641221374,21.221374045801525,-3.435114503816794
5.66,0.150634765625,-1.518798828125,0.010498046875,-52.412213740458014,16.83206106870229,-5.412213740458015
5.67,0.13232421875,-1.5126953125,0.08984375,-63.541984732824424,28.885496183206108,0.6106870229007634
5.68,0.093505859375,-1.472900390625,-0.02392578125,-40.80152671755725,19.206106870229007,6.717557251908397
5.69,0.042236328125,-1.5830078125,0.027587890625,-6.572519083969466,6.519083969465649,16.16030534351145
5.7,-0.031005859375,-1.53173828125,0.11279296875,0.5725190839694656,1.1374045801526718,22.19083969465649
5.71,-0.076904296875,-1.526611328125,0.117919921875,-10.389312977099237,1.1908396946564885,26.3206106870229
5.72,-0.149169921875,-1.603759765625,0.0947265625,-26.03053435114504,-0.8778625954198473,29.595419847328245
5.73,-0.1845703125,-1.677490234375,0.0703125,-26.061068702290076,-3.0839694656488548,28.374045801526716
5.74,-0.1826171875,-1.760498046875,0.03271484375,-11.435114503816793,-5.908396946564886,23.16793893129771
5.75,-0.164794921875,-1.760009765625,0.058837890625,10.709923664122137,-13.98473282442748,9.84732824427481
5.76,-0.1376953125,-1.6923828125,0.10595703125,18.27480916030534,-13.648854961832061,1.099236641221374
5.77,-0.07861328125,-1.64453125,0.15478515625,16.84732824427481,-13.641221374045802,-2.9389312977099236
5.78,-0.056396484375,-1.66943359375,0.12548828125,17.46564885496183,-8.977099236641221,-7.152671755725191
5.79,-0.052001953125,-1.676025390625,0.119140625,22.923664122137403,-8.86259541984733,-14.610687022900763
5.8,-0.0263671875,-1.688720703125,0.105712890625,31.0381679389313,-11.122137404580153,-17.603053435114504
5.81,0.01123046875,-1.6669921875,0.125,37.48854961832061,-11.557251908396946,-19.946564885496183
5.82,0.0869140625,-1.638916015625,0.126953125,43.87786259541985,-12.687022900763358,-15.068702290076336
5.83,0.134033203125,-1.585205078125,0.134033203125,46.94656488549618,-14.221374045801527,-7.213740458015267
5.84,0.14208984375,-1.54931640625,0.125,51.16793893129771,-14.442748091603054,0.9541984732824428
5.85,0.155029296875,-1.529541015625,0.138671875,53.19083969465649,-13.748091603053435,6.709923664122138
5.86,0.1533203125,-1.496337890625,0.11572265625,56.61068702290076,-12.458015267175572,7.763358778625954
5.87,0.15673828125,-1.434326171875,0.11376953125,58.85496183206107,-11.923664122137405,6.1679389312977095
5.88,0.177734375,-1.38623046875,0.101318359375,67.04580152671755,-12.244274809160306,4.877862595419847
5.89,0.180908203125,-1.32763671875,0.095947265625,71.08396946564885,-10.221374045801527,4.549618320610687
5.9,0.169921875,-1.25341796875,0.104248046875,70.46564885496183,-12.427480916030534,5.145038167938932
5.91,0.205810546875,-1.22314453125,0.06640625,78.19083969465649,-10.83969465648855,9.16030534351145
5.92,0.200439453125,-1.1787109375,0.135009765625,80.20610687022901,-12.778625954198473,10.946564885496183
5.93,0.236328125,-1.149658203125,0.04150390625,85.85496183206106,-10.687022900763358,13.17557251908397
5.94,0.185791015625,-1.061279296875,0.119140625,88.63358778625954,-19.076335877862597,11.786259541984732
5.95,0.2041015625,-0.985107421875,0.123291015625,86.09923664122137,-15.877862595419847,12.16793893129771
5.96,0.203369140625,-0.9072265625,0.1455078125,81.98473282442748,-13.0,10.458015267175572
5.97,0.209716796875,-0.854248046875,0.136474609375,79.9618320610687,-9.022900763358779,8.679389312977099
5.98,0.181640625,-0.78662109375,0.156005859375,77.14503816793894,-10.51908396946565,5.732824427480916
5.99,0.186767578125,-0.6904296875,0.15576171875,68.41984732824427,-8.236641221374045,5.740458015267175
6.0,0.185546875,-0.63818359375,0.162841796875,63.229007633587784,-8.740458015267176,7.290076335877862
6.01,0.180908203125,-0.623046875,0.150146484375,62.79389312977099,-10.419847328244275,6.175572519083969
6.02,0.16552734375,-0.5478515625,0.204833984375,56.05343511450382,-6.603053435114504,0.6030534351145038
6.03,0.16015625,-0.46923828125,0.22021484375,44.50381679389313,1.900763358778626,-3.648854961832061
6.04,0.15966796875,-0.389404296875,0.2353515625,32.152671755725194,8.366412213740459,-5.0458015267175576
6.05,0.17529296875,-0.30712890625,0.255859375,18.33587786259542,13.80916030534351,-4.1603053435114505
6.06,0.156005859375,-0.240966796875,0.263671875,4.450381679389313,20.17557251908397,-6.603053435114504
6.07,0.134765625,-0.214111328125,0.230712890625,-8.450381679389313,21.3206106870229,-9.938931297709924
6.08,0.11181640625,-0.204833984375,0.18896484375,-14.84732824427481,17.03053435114504,-17.221374045801525
6.09,0.103759765625,-0.189453125,0.180419921875,-15.419847328244275,13.442748091603054,-21.374045801526716
6.1,0.099853515625,-0.146484375,0.210693359375,-22.366412213740457,9.977099236641221,-23.549618320610687
6.11,0.112060546875,-0.10791015625,0.224609375,-31.72519083969466,9.51908396946565,-30.404580152671755
6.12,0.162353515625,-0.122802734375,0.240478515625,-38.458015267175576,10.282442748091603,-35.045801526717554
6.13,0.202880859375,-0.11767578125,0.24072265625,-42.14503816793893,9.412213740458014,-37.61068702290076
6.14,0.238037109375,-0.1181640625,0.2373046875,-48.12977099236641,8.48091603053435,-37.595419847328245
6.15,0.246826171875,-0.15087890625,0.22607421875,-53.038167938931295,10.01526717557252,-36.6793893129771
6.16,0.230224609375,-0.1767578125,0.2236328125,-63.465648854961835,10.877862595419847,-35.61068702290076
6.17,0.214111328125,-0.25537109375,0.17822265625,-69.22900763358778,10.954198473282442,-32.534351145038165
6.18,0.1708984375,-0.304931640625,0.159912109375,-76.1526717557252,10.442748091603054,-32.770992366412216
6.19,0.158447265625,-0.391357421875,0.1025390625,-79.69465648854961,8.358778625954198,-34.06870229007634
6.2,0.181396484375,-0.51025390625,0.081298828125,-81.41221374045801,4.450381679389313,-36.32824427480916
6.21,0.23583984375,-0.64599609375,0.091064453125,-81.93893129770993,2.16793893129771,-37.56488549618321
6.22,0.273193359375,-0.745849609375,0.08837890625,-82.61832061068702,0.5801526717557252,-36.06870229007634
6.23,0.286376953125,-0.83740234375,0.0927734375,-81.93129770992367,-0.8778625954198473,-31.564885496183205
6.24,0.290771484375,-0.906005859375,0.08203125,-80.58778625954199,-1.8396946564885497,-28.290076335877863
6.25,0.303466796875,-1.00341796875,0.085693359375,-81.09160305343511,-3.068702290076336,-27.27480916030534
6.26,0.296875,-1.091796875,0.075439453125,-81.86259541984732,-3.618320610687023,-26.748091603053435
6.27,0.341064453125,-1.20654296875,0.0849609375,-81.70992366412214,-2.0229007633587788,-22.923664122137403
6.28,0.351806640625,-1.347900390625,0.0830078125,-80.09923664122137,-1.916030534351145,-15.84732824427481
6.29,0.31640625,-1.4326171875,0.06005859375,-75.23664122137404,2.4427480916030535,-9.053435114503817
6.3,0.37646484375,-1.3701171875,0.072509765625,-80.65648854961832,7.694656488549619,-6.068702290076335
6.31,0.277099609375,-1.684326171875,-0.102294921875,-40.81679389312977,-7.6106870229007635,-2.3740458015267176
6.32,0.2626953125,-1.694580078125,-0.039794921875,-0.5190839694656488,-18.900763358778626,-7.435114503816794
6.33,0.278564453125,-1.732666015625,0.102783203125,7.190839694656488,-15.244274809160306,-11.389312977099237
6.34,0.302490234375,-1.716552734375,0.21337890625,-4.66412213740458,-6.755725190839694,-10.221374045801527
6.35,0.319091796875,-1.718505859375,0.130859375,-7.412213740458015,2.282442748091603,-4.0534351145038165
6.36,0.376953125,-1.8720703125,0.1259765625,4.0534351145038165,1.9923664122137406,15.51908396946565
6.37,0.27734375,-1.748291015625,0.102294921875,22.480916030534353,1.8244274809160306,24.603053435114504
6.38,0.259765625,-1.769775390625,0.15966796875,32.534351145038165,-2.7480916030534353,37.48854961832061
6.39,0.2080078125,-1.715087890625,0.205810546875,33.29007633587786,-3.3053435114503817,48.229007633587784
6.4,0.177001953125,-1.64501953125,0.239013671875,31.114503816793892,-1.3358778625954197,57.7557251908397
6.41,0.109375,-1.558837890625,0.224853515625,30.389312977099237,-2.4427480916030535,56.02290076335878
6.42,0.069091796875,-1.55322265625,0.199462890625,37.06870229007634,-2.549618320610687,45.16793893129771
6.43,0.067626953125,-1.549560546875,0.223876953125,40.961832061068705,-0.0916030534351145,27.091603053435115
6.44,0.0478515625,-1.54833984375,0.217529296875,44.01526717557252,2.6412213740458017,7.6183206106870225
6.45,0.040771484375,-1.52294921875,0.1953125,51.458015267175576,3.198473282442748,-4.977099236641221
6.46,0.080322265625,-1.447021484375,0.21728515625,56.9236641221374,1.1297709923664123,-5.190839694656488
6.47,0.119140625,-1.3291015625,0.240966796875,56.6412213740458,2.2900763358778624,1.1526717557251909
6.48,0.138671875,-1.275634765625,0.19189453125,57.43511450381679,3.7709923664122136,10.106870229007633
6.49,0.1708984375,-1.229736328125,0.22412109375,57.18320610687023,5.1679389312977095,24.64885496183206
6.5,0.198486328125,-1.232177734375,0.233154296875,54.152671755725194,6.633587786259542,35.52671755725191
6.51,0.15234375,-1.26123046875,0.150146484375,54.717557251908396,11.145038167938932,40.603053435114504
6.52,0.138916015625,-1.23876953125,0.15380859375,64.6793893129771,11.114503816793894,41.267175572519086
6.53,0.126953125,-1.128173828125,0.1845703125,64.57251908396947,7.061068702290076,36.20610687022901
6.54,0.111083984375,-1.078857421875,0.111572265625,63.52671755725191,8.389312977099237,34.534351145038165
6.55,0.144287109375,-0.990478515625,0.1845703125,62.23664122137404,5.488549618320611,35.68702290076336
6.56,0.1513671875,-0.962646484375,0.197998046875,57.87786259541985,8.381679389312977,35.396946564885496
6.57,0.154296875,-0.90087890625,0.18701171875,57.61832061068702,8.709923664122137,33.31297709923664
6.58,0.135009765625,-0.849853515625,0.182373046875,54.29770992366412,10.687022900763358,27.946564885496183
6.59,0.137451171875,-0.781005859375,0.1875,49.05343511450382,13.099236641221374,22.549618320610687
6.6,0.143798828125,-0.732666015625,0.1904296875,43.62595419847328,14.557251908396946,17.9618320610687
6.61,0.146484375,-0.6748046875,0.212890625,36.13740458015267,13.17557251908397,15.83969465648855
6.62,0.12646484375,-0.64111328125,0.2333984375,29.732824427480917,13.145038167938932,23.068702290076335
6.63,0.095947265625,-0.659912109375,0.177978515625,30.396946564885496,13.648854961832061,27.778625954198475
6.64,0.056884765625,-0.668701171875,0.179443359375,32.099236641221374,5.152671755725191,27.053435114503817
6.65,0.052001953125,-0.673828125,0.159912109375,28.519083969465647,2.6106870229007635,23.091603053435115
6.66,0.071533203125,-0.6513671875,0.16845703125,22.69465648854962,1.8549618320610688,13.793893129770993
6.67,0.094970703125,-0.61181640625,0.156982421875,20.748091603053435,2.7022900763358777,8.34351145038168
6.68,0.095458984375,-0.569580078125,0.157958984375,20.33587786259542,2.648854961832061,4.557251908396947
6.69,0.09619140625,-0.529296875,0.20263671875,18.022900763358777,1.0458015267175573,2.2442748091603053
6.7,0.107421875,-0.490234375,0.21826171875,10.13740458015267,2.618320610687023,0.2900763358778626
6.71,0.1142578125,-0.472900390625,0.21533203125,6.099236641221374,0.9007633587786259,0.26717557251908397
6.72,0.099853515625,-0.474609375,0.212890625,4.885496183206107,-0.8702290076335878,-1.4580152671755726
6.73,0.09130859375,-0.424560546875,0.251220703125,-1.5877862595419847,-3.1068702290076335,-5.351145038167939
6.74,0.091552734375,-0.373291015625,0.292724609375,-12.198473282442748,-2.6412213740458017,-6.1603053435114505
6.75,0.080078125,-0.34228515625,0.266845703125,-24.38167938931298,-1.7251908396946565,-3.931297709923664
6.76,0.0634765625,-0.32177734375,0.292724609375,-33.87022900763359,-2.3893129770992365,-3.099236641221374
6.77,0.0615234375,-0.34033203125,0.29833984375,-43.67175572519084,-1.7328244274809161,-4.229007633587786
6.78,0.05908203125,-0.35888671875,0.287841796875,-50.88549618320611,-1.465648854961832,-6.442748091603053
6.79,0.058349609375,-0.394287109375,0.275146484375,-59.93893129770992,-1.1984732824427482,-8.335877862595419
6.8,0.104736328125,-0.470703125,0.247314453125,-65.2824427480916,-0.9541984732824428,-8.412213740458014
6.81,0.12109375,-0.57958984375,0.239013671875,-69.62595419847328,0.5572519083969466,-9.458015267175572
6.82,0.126953125,-0.70947265625,0.18896484375,-72.45801526717557,2.3893129770992365,-12.854961832061068
6.83,0.13818359375,-0.840576171875,0.16162109375,-74.3587786259542,6.0458015267175576,-18.358778625954198
6.84,0.14453125,-0.980712890625,0.140625,-73.19847328244275,7.229007633587786,-22.30534351145038
6.85,0.125732421875,-1.09228515625,0.114013671875,-69.69465648854961,7.152671755725191,-24.633587786259543
6.86,0.10986328125,-1.178466796875,0.11767578125,-63.25954198473283,3.5877862595419847,-23.68702290076336
6.87,0.094970703125,-1.228515625,0.126220703125,-57.56488549618321,0.1297709923664122,-18.6793893129771
6.88,0.088134765625,-1.235107421875,0.18603515625,-62.00763358778626,2.549618320610687,-11.50381679389313
6.89,0.131591796875,-1.328369140625,0.185546875,-62.36641221374046,1.9465648854961832,0.8320610687022901
6.9,0.1533203125,-1.387451171875,0.10302734375,-45.20610687022901,2.4427480916030535,5.7251908396946565
6.91,0.10888671875,-1.525146484375,0.092041015625,-19.610687022900763,-6.984732824427481,2.7022900763358777
6.92,0.057373046875,-1.53466796875,0.158447265625,-6.847328244274809,-7.526717557251908,-6.709923664122138
6.93,0.0576171875,-1.4755859375,0.208740234375,-3.6946564885496183,-3.6030534351145036,-16.206106870229007
6.94,0.0869140625,-1.3828125,0.24267578125,-6.9541984732824424,1.5038167938931297,-21.045801526717558
6.95,0.102783203125,-1.337646484375,0.2412109375,-8.17557251908397,1.7709923664122138,-17.99236641221374
6.96,0.087158203125,-1.304931640625,0.2421875,-6.404580152671755,-0.648854961832061,-10.969465648854962
6.97,0.08056640625,-1.310302734375,0.29052734375,-8.396946564885496,3.2290076335877864,-2.0076335877862594
6.98,0.087890625,-1.3330078125,0.241943359375,2.801526717557252,-3.5877862595419847,4.114503816793893
6.99,0.06494140625,-1.354248046875,0.242431640625,7.885496183206107,-9.564885496183207,10.450381679389313
7.0,0.144775390625,-1.39111328125,0.29150390625,6.9541984732824424,-4.870229007633588,21.12213740458015
7.01,0.140869140625,-1.390625,0.298583984375,2.6259541984732824,0.45038167938931295,29.18320610687023
7.02,0.123046875,-1.394287109375,0.2783203125,6.320610687022901,3.16793893129771,30.282442748091604
7.03,0.094482421875,-1.403076171875,0.274169921875,14.900763358778626,2.763358778625954,27.564885496183205
7.04,0.052734375,-1.337158203125,0.29248046875,22.412213740458014,3.099236641221374,20.3206106870229
7.05,0.017333984375,-1.256591796875,0.2861328125,24.954198473282442,3.6564885496183206,8.549618320610687
7.06,0.031005859375,-1.203857421875,0.292724609375,25.33587786259542,5.977099236641221,-0.7480916030534351
7.07,0.046875,-1.195556640625,0.280029296875,21.442748091603054,8.763358778625955,-7.236641221374046
7.08,0.072998046875,-1.22021484375,0.2666015625,24.389312977099237,9.572519083969466,-10.34351145038168
7.09,0.097412109375,-1.2392578125,0.220947265625,29.50381679389313,10.267175572519085,-8.82442748091603
7.1,0.109130859375,-1.241943359375,0.251953125,30.0,8.595419847328245,-5.587786259541985
7.11,0.112548828125,-1.251953125,0.225341796875,30.69465648854962,10.442748091603054,4.5038167938931295
7.12,0.11767578125,-1.257080078125,0.213623046875,34.36641221374046,8.893129770992367,11.412213740458014
7.13,0.114013671875,-1.2626953125,0.210205078125,38.786259541984734,7.870229007633588,14.633587786259541
7.14,0.1162109375,-1.24560546875,0.21728515625,42.091603053435115,8.977099236641221,14.618320610687023
7.15,0.0986328125,-1.206298828125,0.2197265625,44.030534351145036,9.335877862595419,12.19083969465649
7.16,0.0810546875,-1.1650390625,0.213623046875,43.030534351145036,9.091603053435115,9.351145038167939
7.17,0.0654296875,-1.104736328125,0.205322265625,44.87022900763359,8.465648854961833,6.709923664122138
7.18,0.070068359375,-1.0703125,0.176513671875,47.0,7.0,5.458015267175573
7.19,0.103271484375,-1.071533203125,0.1904296875,60.99236641221374,9.511450381679388,7.1603053435114505
7.2,0.122314453125,-1.004150390625,0.3271484375,62.87022900763359,6.015267175572519,2.946564885496183
7.21,0.17822265625,-1.074462890625,0.093017578125,68.69465648854961,14.404580152671755,3.145038167938931
7.22,0.030029296875,-0.914306640625,0.35107421875,69.55725190839695,-9.305343511450381,-0.31297709923664124
7.23,0.091552734375,-0.8232421875,0.316162109375,46.31297709923664,8.312977099236642,2.4427480916030535
7.24,0.10595703125,-0.827392578125,0.2978515625,37.9236641221374,9.022900763358779,10.82442748091603
7.25,0.11083984375,-0.845703125,0.256103515625,36.85496183206107,12.381679389312977,12.290076335877863
7.26,0.0693359375,-0.8310546875,0.331298828125,29.786259541984734,10.877862595419847,8.282442748091603
7.27,0.038330078125,-0.81201171875,0.29296875,22.19083969465649,13.099236641221374,6.305343511450381
7.28,0.012939453125,-0.766357421875,0.283447265625,20.83206106870229,10.83969465648855,5.32824427480916
7.29,-0.01513671875,-0.750732421875,0.287109375,20.587786259541986,7.312977099236641,3.145038167938931
7.3,-0.027587890625,-0.72998046875,0.2861328125,17.259541984732824,3.717557251908397,0.3511450381679389
7.31,-0.034423828125,-0.73291015625,0.3095703125,13.488549618320612,-0.4732824427480916,-2.3587786259541983
7.32,-0.045654296875,-0.720947265625,0.301025390625,6.923664122137405,-4.847328244274809,-4.656488549618321
7.33,-0.02490234375,-0.732666015625,0.285400390625,10.068702290076336,-10.206106870229007,-6.106870229007634
7.34,-0.0263671875,-0.720947265625,0.30322265625,6.129770992366412,-11.51908396946565,-10.274809160305344
7.35,-0.05517578125,-0.71337890625,0.329833984375,-0.9389312977099237,-14.67175572519084,-13.213740458015268
7.36,-0.035888671875,-0.728759765625,0.294189453125,-3.3435114503816794,-13.80916030534351,-11.458015267175572
7.37,-0.019287109375,-0.696533203125,0.31787109375,-5.206106870229007,-15.045801526717558,-9.732824427480915
7.38,-0.01123046875,-0.678955078125,0.31396484375,-9.091603053435115,-15.877862595419847,-8.793893129770993
7.39,-0.008056640625,-0.643310546875,0.331298828125,-11.717557251908397,-17.251908396946565,-7.977099236641221
7.4,-0.011962890625,-0.617919921875,0.3310546875,-14.366412213740459,-17.793893129770993,-7.0534351145038165
7.41,-0.00341796875,-0.5986328125,0.327880859375,-16.267175572519083,-17.893129770992367,-7.305343511450381
7.42,-0.0009765625,-0.581298828125,0.340087890625,-18.885496183206108,-17.68702290076336,-9.473282442748092
7.43,0.013427734375,-0.5625,0.357177734375,-24.9618320610687,-16.68702290076336,-10.717557251908397
7.44,0.0078125,-0.51025390625,0.359619140625,-34.06106870229008,-16.0381679389313,-10.618320610687023
7.45,0.01513671875,-0.50390625,0.35986328125,-43.152671755725194,-15.236641221374045,-10.038167938931299
7.46,0.0283203125,-0.518798828125,0.339111328125,-56.25190839694657,-15.740458015267176,-10.221374045801527
7.47,0.0419921875,-0.552978515625,0.312255859375,-66.26717557251908,-14.641221374045802,-12.17557251908397
7.48,0.064208984375,-0.59033203125,0.296630859375,-74.0,-11.916030534351146,-17.396946564885496
7.49,0.071044921875,-0.60498046875,0.2900390625,-81.12977099236642,-10.099236641221374,-24.450381679389313
7.5,0.07568359375,-0.60205078125,0.267333984375,-89.3587786259542,-9.320610687022901,-28.68702290076336
7.51,0.115966796875,-0.64501953125,0.239501953125,-97.45801526717557,-7.366412213740458,-26.16030534351145
7.52,0.161376953125,-0.72119140625,0.2158203125,-105.09160305343511,-2.763358778625954,-20.259541984732824
7.53,0.17724609375,-0.885986328125,0.138916015625,-106.6793893129771,1.015267175572519,-15.404580152671755
7.54,0.14599609375,-1.008056640625,0.086181640625,-108.29770992366412,2.0381679389312977,-15.717557251908397
7.55,0.15087890625,-1.144287109375,0.070556640625,-110.77099236641222,6.00763358778626,-18.68702290076336
7.56,0.1103515625,-1.195556640625,-0.008056640625,-101.52671755725191,5.3816793893129775,-23.770992366412212
7.57,0.089599609375,-1.295654296875,-0.029541015625,-85.38167938931298,0.8931297709923665,-26.52671755725191
7.58,0.129638671875,-1.3193359375,-0.045166015625,-69.34351145038168,-5.625954198473282,-25.35114503816794
7.59,0.16357421875,-1.336669921875,-0.03369140625,-56.732824427480914,-11.13740458015267,-20.236641221374047
7.6,0.19482421875,-1.4443359375,-0.029052734375,-45.41984732824427,-14.251908396946565,-16.81679389312977
7.61,0.2392578125,-1.44970703125,0.044189453125,-49.954198473282446,-5.526717557251908,-18.229007633587788
7.62,0.24169921875,-1.5205078125,-0.025634765625,-41.66412213740458,-0.13740458015267176,-19.580152671755727
7.63,0.19287109375,-1.545654296875,0.0029296875,-22.366412213740457,-7.778625954198473,-26.12213740458015
7.64,0.17529296875,-1.560302734375,0.01171875,-1.282442748091603,-9.709923664122137,-29.267175572519083
7.65,0.14111328125,-1.485107421875,0.092041015625,5.175572519083969,-8.648854961832061,-30.022900763358777
7.66,0.170654296875,-1.41455078125,0.130859375,4.648854961832061,-8.229007633587786,-26.27480916030534
7.67,0.204345703125,-1.35888671875,0.126953125,8.198473282442748,-7.702290076335878,-16.053435114503817
7.68,0.2119140625,-1.306884765625,0.1630859375,12.221374045801527,-8.954198473282442,-4.320610687022901
7.69,0.1943359375,-1.281494140625,0.1845703125,11.549618320610687,-7.6183206106870225,5.061068702290076
7.7,0.183349609375,-1.299072265625,0.180908203125,9.358778625954198,-4.4961832061068705,10.122137404580153
7.71,0.163818359375,-1.333251953125,0.159423828125,11.351145038167939,-2.6259541984732824,10.053435114503817
7.72,0.142333984375,-1.39013671875,0.13671875,17.580152671755727,-1.7557251908396947,5.938931297709924
7.73,0.130859375,-1.373291015625,0.1318359375,23.251908396946565,-1.5419847328244274,-0.4580152671755725
7.74,0.126708984375,-1.341064453125,0.137451171875,27.610687022900763,-1.2290076335877862,-5.519083969465649
7.75,0.1279296875,-1.312744140625,0.14453125,29.412213740458014,-0.17557251908396945,-6.656488549618321
7.76,0.14306640625,-1.27734375,0.157958984375,32.900763358778626,0.0,-6.450381679389313
7.77,0.1513671875,-1.258056640625,0.156005859375,33.30534351145038,4.259541984732825,-4.320610687022901
7.78,0.16845703125,-1.270263671875,0.13720703125,35.48091603053435,4.458015267175573,-1.2900763358778626
7.79,0.140380859375,-1.294189453125,0.104248046875,44.74809160305343,4.427480916030534,-0.8015267175572519
7.8,0.13232421875,-1.24658203125,0.14599609375,45.030534351145036,0.7251908396946565,-1.6564885496183206
7.81,0.14794921875,-1.21728515625,0.10107421875,47.05343511450382,3.7786259541984735,-1.0534351145038168
7.82,0.13330078125,-1.173583984375,0.112548828125,50.595419847328245,-0.24427480916030533,2.198473282442748
7.83,0.162109375,-1.161865234375,0.10009765625,59.33587786259542,-0.48854961832061067,8.076335877862595
7.84,0.23388671875,-1.090576171875,0.136962890625,56.99236641221374,1.9312977099236641,11.206106870229007
7.85,0.1796875,-1.20751953125,0.088623046875,61.51145038167939,-0.37404580152671757,10.885496183206106
7.86,0.14794921875,-1.10302734375,0.16259765625,62.85496183206107,-6.1603053435114505,9.061068702290076
7.87,0.16015625,-1.048095703125,0.169677734375,58.82442748091603,-0.33587786259541985,8.610687022900763
7.88,0.15771484375,-1.050048828125,0.166748046875,61.51908396946565,0.07633587786259542,8.702290076335878
7.89,0.1572265625,-1.005615234375,0.1845703125,64.04580152671755,1.900763358778626,8.427480916030534
7.9,0.149658203125,-0.95458984375,0.218017578125,61.25954198473283,-1.366412213740458,8.854961832061068
7.91,0.14208984375,-0.94189453125,0.21875,55.458015267175576,-1.2442748091603053,9.099236641221374
7.92,0.132568359375,-0.9521484375,0.20947265625,53.11450381679389,-1.8854961832061068,9.076335877862595
7.93,0.11474609375,-0.93310546875,0.20068359375,54.42748091603053,-2.427480916030534,6.8396946564885495
7.94,0.11376953125,-0.9013671875,0.217041015625,55.35114503816794,-4.633587786259542,1.9694656488549618
7.95,0.111328125,-0.863037109375,0.24951171875,53.11450381679389,-5.083969465648855,-2.099236641221374
7.96,0.118896484375,-0.800537109375,0.2822265625,49.37404580152672,-4.00763358778626,-6.519083969465649
7.97,0.154296875,-0.743408203125,0.28369140625,46.80152671755725,-0.6870229007633588,-3.404580152671756
7.98,0.127685546875,-0.6865234375,0.304443359375,43.6793893129771,-0.46564885496183206,1.3053435114503817
7.99,0.115478515625,-0.689453125,0.313720703125,40.603053435114504,-2.312977099236641,6.229007633587786
8.0,0.098388671875,-0.673095703125,0.31396484375,35.93129770992366,-3.5419847328244276,9.038167938931299
8.01,0.087646484375,-0.664306640625,0.3212890625,29.549618320610687,-5.557251908396947,9.763358778625955
8.02,0.099853515625,-0.635986328125,0.325927734375,22.374045801526716,-5.763358778625954,6.244274809160306
8.03,0.12939453125,-0.60791015625,0.333984375,15.16793893129771,-2.969465648854962,6.572519083969466
8.04,0.163330078125,-0.613037109375,0.33642578125,8.0,-0.8778625954198473,7.1603053435114505
8.05,0.1669921875,-0.63623046875,0.3505859375,1.916030534351145,2.7404580152671754,4.740458015267175
8.06,0.140380859375,-0.66259765625,0.33349609375,-6.259541984732825,5.450381679389313,0.9541984732824428
8.07,0.117431640625,-0.6669921875,0.300537109375,-6.0,5.099236641221374,-0.07633587786259542
8.08,0.08251953125,-0.670166015625,0.326171875,-7.106870229007634,0.7022900763358778,-0.4122137404580153
8.09,0.08447265625,-0.64306640625,0.29541015625,-2.450381679389313,-2.045801526717557,2.1374045801526718
8.1,0.075927734375,-0.584716796875,0.352783203125,-2.7404580152671754,-7.702290076335878,2.801526717557252
8.11,0.11181640625,-0.568603515625,0.366455078125,-6.198473282442748,-7.5038167938931295,3.801526717557252
8.12,0.139892578125,-0.567138671875,0.359619140625,-10.236641221374045,-6.67175572519084,4.763358778625954
8.13,0.11083984375,-0.58642578125,0.37060546875,-15.526717557251908,-4.786259541984733,3.2061068702290076
8.14,0.116943359375,-0.615966796875,0.354736328125,-22.366412213740457,-3.045801526717557,1.4045801526717556
8.15,0.10546875,-0.66845703125,0.329833984375,-30.64885496183206,-1.0305343511450382,-0.8091603053435115
8.16,0.104736328125,-0.733154296875,0.284423828125,-33.31297709923664,-0.5343511450381679,-2.0381679389312977
8.17,0.1259765625,-0.783203125,0.2734375,-36.74045801526717,-1.1908396946564885,-5.076335877862595
8.18,0.150390625,-0.81982421875,0.24560546875,-38.152671755725194,0.04580152671755725,-2.267175572519084
8.19,0.15380859375,-0.868896484375,0.235595703125,-34.02290076335878,-3.885496183206107,-0.48091603053435117
8.2,0.13818359375,-0.881103515625,0.25341796875,-34.0,-3.763358778625954,-1.7099236641221374
8.21,0.1279296875,-0.882568359375,0.23583984375,-34.93893129770992,-3.3740458015267176,-1.3358778625954197
8.22,0.181640625,-0.9052734375,0.240478515625,-34.33587786259542,-3.2748091603053435,0.6106870229007634
8.23,0.187255859375,-0.928955078125,0.232421875,-33.770992366412216,-2.0381679389312977,-0.732824427480916
8.24,0.16943359375,-0.95263671875,0.2431640625,-35.030534351145036,-0.4198473282442748,-5.251908396946565
8.25,0.17333984375,-0.956787109375,0.246826171875,-34.82442748091603,0.6717557251908397,-8.83969465648855
8.26,0.162353515625,-0.926025390625,0.242431640625,-34.94656488549618,1.633587786259542,-10.183206106870228
8.27,0.14404296875,-0.90380859375,0.268310546875,-35.43511450381679,2.3053435114503817,-10.389312977099237
8.28,0.154296875,-0.873046875,0.296630859375,-37.396946564885496,3.2290076335877864,-9.068702290076336
8.29,0.15087890625,-0.8349609375,0.311279296875,-39.19847328244275,4.427480916030534,-7.755725190839694
8.3,0.142333984375,-0.825927734375,0.2783203125,-43.97709923664122,5.465648854961832,-6.6183206106870225
8.31,0.14404296875,-0.8447265625,0.252685546875,-45.51908396946565,5.4961832061068705,-6.206106870229007
8.32,0.144287109375,-0.86669921875,0.22705078125,-45.83206106870229,4.931297709923665,-6.778625954198473
8.33,0.1396484375,-0.86767578125,0.207763671875,-45.36641221374046,3.931297709923664,-8.557251908396946
8.34,0.122802734375,-0.864990234375,0.2080078125,-44.36641221374046,2.114503816793893,-10.083969465648854
8.35,0.1171875,-0.850341796875,0.214111328125,-45.404580152671755,2.1755725190839694,-10.435114503816793
8.36,0.140380859375,-0.8505859375,0.2265625,-50.52671755725191,2.4427480916030535,-8.687022900763358
8.37,0.169677734375,-0.84130859375,0.21484375,-58.01526717557252,4.3893129770992365,-2.9923664122137406
8.38,0.229248046875,-0.881591796875,0.182373046875,-71.05343511450381,12.610687022900763,5.564885496183206
8.39,0.193603515625,-1.087646484375,0.058349609375,-59.412213740458014,9.099236641221374,12.290076335877863
8.4,0.111083984375,-1.147216796875,0.080810546875,-51.45038167938932,7.244274809160306,12.50381679389313
8.41,0.055908203125,-1.173583984375,0.078125,-47.16030534351145,4.282442748091603,11.694656488549619
8.42,0.0439453125,-1.15087890625,0.074951171875,-43.13740458015267,-1.5877862595419847,8.67175572519084
8.43,0.072998046875,-1.16259765625,0.063720703125,-43.48854961832061,-1.5190839694656488,11.183206106870228
8.44,0.11669921875,-1.24365234375,0.05810546875,-39.7557251908397,-1.4274809160305344,12.50381679389313
8.45,0.135986328125,-1.339599609375,0.046875,-35.86259541984733,-1.4580152671755726,8.961832061068701
8.46,0.110107421875,-1.38525390625,0.05322265625,-31.80916030534351,-0.07633587786259542,2.732824427480916
8.47,0.087890625,-1.381103515625,0.05712890625,-28.755725190839694,-1.7709923664122138,-4.99236641221374
8.48,0.08935546875,-1.3291015625,0.10595703125,-31.862595419847327,5.450381679389313,-7.2748091603053435
8.49,0.08935546875,-1.321044921875,0.0693359375,-23.091603053435115,1.4427480916030535,-5.358778625954199
8.5,0.06591796875,-1.348388671875,0.05224609375,-6.290076335877862,-3.969465648854962,-4.900763358778626
8.51,0.08984375,-1.370361328125,0.09375,-1.4961832061068703,-4.061068702290076,-4.412213740458015
8.52,0.10205078125,-1.37451171875,0.130859375,-3.9770992366412212,-0.549618320610687,-4.687022900763359
8.53,0.094970703125,-1.37548828125,0.12255859375,-8.564885496183207,0.0,-5.633587786259542
8.54,0.08544921875,-1.380615234375,0.093994140625,-2.633587786259542,1.2442748091603053,-4.755725190839694
8.55,0.079833984375,-1.332275390625,0.100830078125,6.32824427480916,-1.4732824427480915,-3.763358778625954
8.56,0.087646484375,-1.31591796875,0.1318359375,11.717557251908397,-2.4198473282442747,-1.8702290076335877
8.57,0.0947265625,-1.312255859375,0.14697265625,12.541984732824428,-0.6183206106870229,-1.9236641221374047
8.58,0.090576171875,-1.307373046875,0.151611328125,12.01526717557252,1.4580152671755726,-0.8473282442748091
8.59,0.095703125,-1.30859375,0.130615234375,14.083969465648854,1.7633587786259541,-2.7099236641221376
8.6,0.099365234375,-1.292236328125,0.12890625,16.31297709923664,1.297709923664122,-3.7480916030534353
8.61,0.097900390625,-1.296142578125,0.112060546875,17.748091603053435,0.8473282442748091,1.282442748091603
8.62,0.112548828125,-1.28564453125,0.1220703125,24.358778625954198,0.6793893129770993,4.488549618320611
8.63,0.11572265625,-1.31201171875,0.122802734375,27.9618320610687,1.2061068702290076,6.129770992366412
8.64,0.10693359375,-1.273681640625,0.139892578125,30.419847328244273,1.1221374045801527,7.625954198473282
8.65,0.107421875,-1.247802734375,0.111083984375,33.916030534351144,3.50381679389313,10.068702290076336
8.66,0.116455078125,-1.231689453125,0.141357421875,36.603053435114504,0.26717557251908397,11.053435114503817
8.67,0.098876953125,-1.20068359375,0.13037109375,36.54961832061068,0.007633587786259542,9.694656488549619
8.68,0.102783203125,-1.16552734375,0.146484375,38.25954198473283,2.7099236641221376,10.641221374045802
8.69,0.087646484375,-1.14794921875,0.151611328125,39.30534351145038,0.5648854961832062,9.618320610687023
8.7,0.089111328125,-1.151611328125,0.127685546875,39.33587786259542,1.4961832061068703,7.236641221374046
8.71,0.0859375,-1.186767578125,0.13916015625,41.87786259541985,2.2519083969465647,4.793893129770993
8.72,0.107177734375,-1.203857421875,0.0986328125,51.541984732824424,4.480916030534351,3.801526717557252
8.73,0.14990234375,-1.141357421875,0.13330078125,57.48854961832061,8.625954198473282,-1.3053435114503817
8.74,0.081787109375,-1.1826171875,0.07568359375,61.099236641221374,6.9465648854961835,-3.1526717557251906
8.75,0.104248046875,-1.03076171875,0.20947265625,63.267175572519086,-7.343511450381679,-4.854961832061068
8.76,0.122802734375,-1.01171875,0.1845703125,54.954198473282446,-1.7938931297709924,-2.145038167938931
8.77,0.125244140625,-0.98681640625,0.203125,56.045801526717554,0.15267175572519084,3.7938931297709924
8.78,0.131103515625,-0.995361328125,0.212646484375,57.25190839694657,2.885496183206107,6.343511450381679
8.79,0.112548828125,-0.982666015625,0.2451171875,55.29007633587786,-0.6870229007633588,5.183206106870229
8.8,0.0966796875,-0.93310546875,0.25244140625,49.541984732824424,-1.0534351145038168,4.442748091603053
8.81,0.085693359375,-0.896240234375,0.234375,44.98473282442748,-0.05343511450381679,5.450381679389313
8.82,0.103515625,-0.870849609375,0.234130859375,48.9236641221374,-0.3816793893129771,6.816793893129771
8.83,0.1220703125,-0.851318359375,0.256103515625,49.045801526717554,-1.5801526717557253,5.015267175572519
8.84,0.09326171875,-0.854248046875,0.269775390625,44.66412213740458,-1.748091603053435,0.7557251908396947
8.85,0.062255859375,-0.8359375,0.2626953125,42.25190839694657,-2.66412213740458,-1.6030534351145038
8.86,0.071533203125,-0.8037109375,0.25390625,41.47328244274809,-2.732824427480916,-1.8931297709923665
8.87,0.103271484375,-0.7744140625,0.270263671875,41.229007633587784,-4.091603053435114,1.1221374045801527
8.88,0.115478515625,-0.741943359375,0.318115234375,35.961832061068705,-6.251908396946565,4.106870229007634
8.89,0.120361328125,-0.741943359375,0.2724609375,36.43511450381679,-4.740458015267175,5.557251908396947
8.9,0.08349609375,-0.728515625,0.29736328125,39.099236641221374,-9.541984732824428,3.564885496183206
8.91,0.080810546875,-0.692626953125,0.34521484375,30.81679389312977,-7.396946564885496,0.816793893129771
8.92,0.063720703125,-0.677490234375,0.34033203125,25.450381679389313,-7.190839694656488,-1.0076335877862594
8.93,0.06884765625,-0.65576171875,0.334228515625,20.793893129770993,-4.908396946564886,-2.801526717557252
8.94,0.06103515625,-0.6201171875,0.359375,15.725190839694656,-5.793893129770993,-5.862595419847328
8.95,0.0732421875,-0.600341796875,0.365478515625,6.3893129770992365,-5.633587786259542,-7.732824427480916
8.96,0.09375,-0.585693359375,0.350341796875,-1.16793893129771,-4.442748091603053,-6.038167938931298
8.97,0.09912109375,-0.601806640625,0.33203125,-4.0458015267175576,-4.687022900763359,-5.488549618320611
8.98,0.107666015625,-0.594482421875,0.324951171875,-4.679389312977099,-5.793893129770993,-6.038167938931298
8.99,0.115478515625,-0.591064453125,0.33154296875,-8.725190839694656,-6.175572519083969,-6.2748091603053435
9.0,0.123046875,-0.59228515625,0.32861328125,-13.267175572519085,-6.145038167938932,-4.5038167938931295
9.01,0.12890625,-0.599609375,0.330322265625,-17.17557251908397,-6.32824427480916,-3.0763358778625953
9.02,0.127685546875,-0.61572265625,0.3046875,-22.267175572519083,-5.816793893129771,-3.2977099236641223
9.03,0.142333984375,-0.639404296875,0.285400390625,-26.435114503816795,-5.977099236641221,-5.175572519083969
9.04,0.157958984375,-0.645751953125,0.273681640625,-32.01526717557252,-5.732824427480916,-8.84732824427481
9.05,0.159423828125,-0.636962890625,0.261962890625,-35.900763358778626,-2.2213740458015265,-13.129770992366412
9.06,0.16357421875,-0.5966796875,0.273193359375,-39.89312977099237,-1.3282442748091603,-18.068702290076335
9.07,0.175537109375,-0.54541015625,0.27197265625,-45.770992366412216,0.09923664122137404,-21.16793893129771
9.08,0.1865234375,-0.48291015625,0.297119140625,-53.221374045801525,1.6717557251908397,-20.412213740458014
9.09,0.21484375,-0.47119140625,0.2783203125,-65.53435114503817,1.0229007633587786,-16.419847328244273
9.1,0.253173828125,-0.533935546875,0.2421875,-75.6030534351145,4.778625954198473,-11.572519083969466
9.11,0.28369140625,-0.673828125,0.189208984375,-81.73282442748092,7.938931297709924,-4.541984732824427
9.12,0.2158203125,-0.789306640625,0.1396484375,-83.5114503816794,15.19083969465649,-4.900763358778626
9.13,0.13916015625,-0.835693359375,0.112060546875,-85.12977099236642,15.854961832061068,-6.7251908396946565
9.14,0.13037109375,-0.854736328125,0.102783203125,-86.50381679389314,13.374045801526718,-7.526717557251908
9.15,0.142333984375,-0.856201171875,0.083251953125,-87.45801526717557,11.297709923664122,-6.763358778625954
9.16,0.16845703125,-0.90234375,0.0810546875,-88.21374045801527,11.49618320610687,-3.3740458015267176
9.17,0.192138671875,-0.9794921875,0.085693359375,-89.0381679389313,14.01526717557252,2.50381679389313
9.18,0.182373046875,-1.04150390625,0.08349609375,-90.69465648854961,15.778625954198473,8.213740458015268
9.19,0.171142578125,-1.1376953125,0.063720703125,-91.1145038167939,16.68702290076336,13.381679389312977
9.2,0.15966796875,-1.156005859375,0.057861328125,-101.19083969465649,23.641221374045802,14.099236641221374
9.21,0.03173828125,-1.3154296875,-0.05810546875,-86.26717557251908,19.16030534351145,5.893129770992366
9.22,0.02734375,-1.39794921875,-0.060546875,-58.63358778625954,11.229007633587786,-1.8396946564885497
9.23,0.026611328125,-1.3935546875,-0.04736328125,-33.969465648854964,-3.4656488549618323,-11.305343511450381
9.24,0.046875,-1.44677734375,0.036376953125,-24.557251908396946,-7.022900763358779,-14.427480916030534
9.25,0.09228515625,-1.439697265625,0.090087890625,-30.931297709923665,-4.519083969465649,-15.389312977099237
9.26,0.087646484375,-1.402099609375,0.104248046875,-42.16793893129771,1.4122137404580153,-13.465648854961833
9.27,0.074951171875,-1.380615234375,0.046875,-31.46564885496183,-4.2748091603053435,-10.49618320610687
9.28,0.07763671875,-1.355712890625,0.060791015625,-15.893129770992367,-6.435114503816794,-10.488549618320612
9.29,0.102294921875,-1.335693359375,0.09912109375,-7.488549618320611,-7.648854961832061,-12.526717557251908
9.3,0.105712890625,-1.336181640625,0.12646484375,-9.15267175572519,-4.282442748091603,-15.992366412213741
9.31,0.104248046875,-1.3212890625,0.16015625,-16.297709923664122,0.9236641221374046,-15.51908396946565
9.32,0.068359375,-1.31787109375,0.117919921875,-17.984732824427482,1.1297709923664123,-10.557251908396946
9.33,0.06640625,-1.3544921875,0.072021484375,-9.83969465648855,-1.7557251908396947,-3.5877862595419847
9.34,0.07666015625,-1.3720703125,0.09423828125,-2.648854961832061,-3.3969465648854964,-1.9083969465648856
9.35,0.09716796875,-1.3818359375,0.10888671875,-0.9923664122137404,-1.465648854961832,0.2900763358778626
9.36,0.105224609375,-1.409423828125,0.082275390625,-0.549618320610687,0.4732824427480916,-0.31297709923664124
9.37,0.09130859375,-1.4580078125,0.0478515625,2.931297709923664,0.8244274809160306,0.15267175572519084
9.38,0.07666015625,-1.514892578125,0.031982421875,9.732824427480915,-0.5419847328244275,-0.11450381679389313
9.39,0.062255859375,-1.529052734375,0.030517578125,17.259541984732824,-2.282442748091603,-1.0687022900763359
9.4,0.08740234375,-1.489990234375,0.0400390625,23.977099236641223,-2.030534351145038,0.3435114503816794
9.41,0.11279296875,-1.4609375,0.039794921875,29.106870229007633,-4.572519083969466,4.358778625954199
9.42,0.114013671875,-1.4453125,0.039794921875,34.58015267175573,-5.778625954198473,6.99236641221374
9.43,0.107177734375,-1.421875,0.038330078125,39.0,-6.419847328244275,8.870229007633588
9.44,0.1201171875,-1.405029296875,0.027099609375,42.091603053435115,-7.977099236641221,11.51908396946565
9.45,0.12109375,-1.392822265625,0.035888671875,44.14503816793893,-6.717557251908397,14.290076335877863
9.46,0.131103515625,-1.39501953125,0.032470703125,47.099236641221374,-6.198473282442748,14.648854961832061
9.47,0.07861328125,-1.33056640625,0.07177734375,51.06870229007634,-9.877862595419847,8.549618320610687
9.48,0.132568359375,-1.315185546875,-0.0126953125,57.06870229007634,-6.648854961832061,2.0
9.49,0.1455078125,-1.313232421875,0.023193359375,69.73282442748092,-7.030534351145038,-1.0610687022900764
9.5,0.11376953125,-1.20263671875,0.121826171875,67.6412213740458,-13.969465648854962,-4.862595419847328
9.51,0.128662109375,-1.127685546875,0.069580078125,69.86259541984732,-10.885496183206106,-4.908396946564886
9.52,0.11669921875,-1.06494140625,0.13720703125,68.17557251908397,-12.778625954198473,-2.3053435114503817
9.53,0.1591796875,-1.03173828125,0.14501953125,61.25954198473283,-11.114503816793894,1.8702290076335877
9.54,0.140869140625,-0.990234375,0.163330078125,60.19083969465649,-15.106870229007633,2.3969465648854964
9.55,0.109130859375,-0.96044921875,0.16796875,54.908396946564885,-17.587786259541986,-1.7938931297709924
9.56,0.083984375,-0.90576171875,0.1591796875,47.954198473282446,-15.488549618320612,-8.641221374045802
9.57,0.10107421875,-0.863525390625,0.15673828125,45.3587786259542,-11.83206106870229,-12.259541984732824
9.58,0.12353515625,-0.805419921875,0.189208984375,44.954198473282446,-10.16793893129771,-12.526717557251908
9.59,0.125244140625,-0.75048828125,0.22021484375,40.954198473282446,-9.206106870229007,-10.679389312977099
9.6,0.126953125,-0.730712890625,0.253173828125,35.00763358778626,-11.435114503816793,-5.343511450381679
9.61,0.125732421875,-0.673583984375,0.276611328125,27.404580152671755,-10.885496183206106,-1.8091603053435115
9.62,0.131103515625,-0.68115234375,0.2529296875,25.14503816793893,-6.534351145038168,2.564885496183206
9.63,0.115478515625,-0.64404296875,0.232421875,28.51145038167939,-6.015267175572519,0.5038167938931297
9.64,0.0859375,-0.608642578125,0.247802734375,28.213740458015266,-9.969465648854962,-3.633587786259542
9.65,0.08203125,-0.6015625,0.27197265625,23.442748091603054,-9.541984732824428,-5.648854961832061
9.66,0.101806640625,-0.593994140625,0.268798828125,15.84732824427481,-6.404580152671755,-6.916030534351145
9.67,0.11083984375,-0.58837890625,0.260986328125,12.763358778625955,-4.030534351145038,-6.679389312977099
9.68,0.1064453125,-0.561767578125,0.2900390625,8.473282442748092,-4.396946564885496,-7.122137404580153
9.69,0.100341796875,-0.53662109375,0.2978515625,3.6259541984732824,-3.3053435114503817,-5.870229007633588
9.7,0.111083984375,-0.5322265625,0.263916015625,-3.8931297709923665,-0.4198473282442748,-2.7099236641221376
9.71,0.100341796875,-0.51904296875,0.25244140625,1.3969465648854962,-4.297709923664122,-1.0916030534351144
9.72,0.074462890625,-0.5107421875,0.24951171875,5.816793893129771,-8.198473282442748,-2.3740458015267176
9.73,0.121337890625,-0.537353515625,0.26123046875,1.1908396946564885,-9.282442748091603,-2.3740458015267176
9.74,0.126220703125,-0.535400390625,0.2490234375,-0.35877862595419846,-10.091603053435115,-1.0610687022900764
9.75,0.125732421875,-0.546875,0.258544921875,-3.2595419847328246,-11.01526717557252,-0.13740458015267176
9.76,0.156494140625,-0.54052734375,0.23876953125,-8.229007633587786,-11.335877862595419,0.20610687022900764
9.77,0.169677734375,-0.553955078125,0.219970703125,-13.572519083969466,-9.954198473282442,-2.9236641221374047
9.78,0.185302734375,-0.58544921875,0.19287109375,-16.33587786259542,-6.809160305343512,-7.748091603053435
9.79,0.192626953125,-0.602294921875,0.177734375,-18.0381679389313,-4.633587786259542,-13.564885496183207
9.8,0.21435546875,-0.603271484375,0.1787109375,-20.458015267175572,-2.2519083969465647,-18.015267175572518
9.81,0.24365234375,-0.6220703125,0.192626953125,-22.52671755725191,-1.702290076335878,-19.106870229007633
9.82,0.25732421875,-0.58642578125,0.19140625,-26.17557251908397,-1.6946564885496183,-17.053435114503817
9.83,0.245361328125,-0.580322265625,0.21630859375,-32.47328244274809,0.7099236641221374,-15.183206106870228
9.84,0.231689453125,-0.603515625,0.202392578125,-35.3587786259542,2.267175572519084,-14.01526717557252
9.85,0.216064453125,-0.598388671875,0.18701171875,-36.00763358778626,1.0381679389312977,-13.198473282442748
9.86,0.207275390625,-0.58447265625,0.20068359375,-38.587786259541986,-0.26717557251908397,-11.351145038167939
9.87,0.1953125,-0.57275390625,0.211181640625,-43.31297709923664,0.6030534351145038,-8.755725190839694
9.88,0.203857421875,-0.581298828125,0.214111328125,-53.954198473282446,1.633587786259542,-3.114503816793893
9.89,0.24365234375,-0.662841796875,0.18505859375,-60.85496183206107,6.396946564885496,1.1984732824427482
9.9,0.228759765625,-0.78955078125,0.136474609375,-68.86259541984732,12.664122137404581,-1.5801526717557253
9.91,0.2138671875,-0.906982421875,0.096923828125,-73.12977099236642,19.52671755725191,-9.442748091603054
9.92,0.2060546875,-1.00634765625,0.05517578125,-73.6412213740458,23.290076335877863,-18.984732824427482
9.93,0.18701171875,-1.060546875,0.0673828125,-69.06106870229007,21.221374045801525,-23.938931297709924
9.94,0.161376953125,-1.05322265625,0.07421875,-65.93129770992367,18.572519083969464,-23.12213740458015
9.95,0.1572265625,-1.05126953125,0.105224609375,-66.6793893129771,18.396946564885496,-15.65648854961832
9.96,0.25390625,-1.00439453125,0.123046875,-87.96946564885496,28.099236641221374,-4.786259541984733
9.97,0.20556640625,-1.23046875,-0.022705078125,-75.9618320610687,21.236641221374047,3.381679389312977
9.98,0.177001953125,-1.373046875,-0.03369140625,-58.282442748091604,11.931297709923664,7.129770992366412
9.99,0.146484375,-1.380615234375,-0.0458984375,-40.37404580152672,10.954198473282442,3.984732824427481
10.0,0.098388671875,-1.411376953125,-0.020751953125,-23.244274809160306,5.083969465648855,-5.0458015267175576
10.01,0.107666015625,-1.373046875,0.0205078125,-11.022900763358779,-1.7633587786259541,-6.427480916030534
10.02,0.182861328125,-1.38623046875,0.082763671875,-15.389312977099237,0.6870229007633588,-0.5190839694656488
10.03,0.1806640625,-1.355224609375,0.11767578125,-23.213740458015266,3.4427480916030535,5.862595419847328
10.04,0.17919921875,-1.353515625,0.1328125,-38.94656488549618,14.076335877862595,8.923664122137405
10.05,0.174560546875,-1.424072265625,0.079833984375,-36.3206106870229,17.419847328244273,11.045801526717558
10.06,0.130126953125,-1.4931640625,0.011474609375,-18.870229007633586,6.755725190839694,8.702290076335878
10.07,0.09228515625,-1.500244140625,0.03955078125,1.4809160305343512,2.3587786259541983,2.4198473282442747
10.08,0.079833984375,-1.50146484375,0.1162109375,2.954198473282443,2.854961832061069,2.122137404580153
10.09,0.10498046875,-1.4814453125,0.138916015625,-2.0763358778625953,3.4885496183206106,6.305343511450381
10.1,0.13916015625,-1.455810546875,0.131103515625,-5.679389312977099,3.5801526717557253,23.15267175572519
10.11,0.123779296875,-1.41015625,0.095458984375,-1.1068702290076335,0.7557251908396947,31.3206106870229
10.12,0.101318359375,-1.433349609375,0.11474609375,5.267175572519084,-1.0610687022900764,36.717557251908396
10.13,0.086669921875,-1.447021484375,0.124755859375,7.969465648854962,0.42748091603053434,30.427480916030536
10.14,0.052734375,-1.425537109375,0.10205078125,8.007633587786259,3.183206106870229,13.709923664122137
10.15,0.02783203125,-1.418701171875,0.100341796875,7.9465648854961835,5.0534351145038165,-4.870229007633588
10.16,0.03857421875,-1.434814453125,0.089111328125,14.290076335877863,6.0,-15.381679389312977
10.17,0.07080078125,-1.39892578125,0.088134765625,17.931297709923665,5.122137404580153,-16.267175572519083
10.18,0.109619140625,-1.375244140625,0.086669921875,21.885496183206108,3.984732824427481,-11.595419847328245
10.19,0.111328125,-1.34228515625,0.0810546875,25.3206106870229,3.5267175572519083,-1.1603053435114503
10.2,0.123291015625,-1.312744140625,0.076171875,27.793893129770993,3.1526717557251906,4.931297709923665
10.21,0.122802734375,-1.30078125,0.0654296875,29.671755725190838,3.2977099236641223,5.877862595419847
10.22,0.135498046875,-1.30126953125,0.0498046875,31.717557251908396,2.9770992366412212,8.633587786259541
10.23,0.140625,-1.305419921875,0.054443359375,34.9236641221374,2.717557251908397,11.358778625954198
10.24,0.147705078125,-1.281005859375,0.049560546875,39.282442748091604,1.2213740458015268,14.32824427480916
10.25,0.108642578125,-1.274658203125,0.03564453125,44.11450381679389,-3.045801526717557,14.038167938931299
10.26,0.116455078125,-1.23095703125,0.050048828125,48.35114503816794,-4.564885496183206,14.244274809160306
10.27,0.132568359375,-1.17919921875,0.071533203125,50.02290076335878,-6.419847328244275,12.86259541984733
10.28,0.13671875,-1.145751953125,0.056396484375,49.74809160305343,-6.801526717557252,11.290076335877863
10.29,0.1572265625,-1.137939453125,0.03076171875,52.80152671755725,-3.030534351145038,12.427480916030534
10.3,0.188720703125,-1.113037109375,-0.00390625,65.31297709923665,-1.0076335877862594,14.786259541984732
10.31,0.0869140625,-1.097412109375,0.09716796875,62.05343511450382,-9.763358778625955,11.244274809160306
10.32,0.154541015625,-1.035888671875,0.1396484375,65.6793893129771,-11.938931297709924,12.282442748091603
10.33,0.10791015625,-0.97998046875,0.140869140625,60.13740458015267,-12.49618320610687,9.564885496183207
10.34,0.13818359375,-0.96044921875,0.141357421875,58.603053435114504,-8.633587786259541,12.320610687022901
10.35,0.156982421875,-0.900146484375,0.1357421875,58.51908396946565,-7.4961832061068705,14.618320610687023
10.36,0.1689453125,-0.91162109375,0.169921875,58.18320610687023,-9.244274809160306,15.19083969465649
10.37,0.1123046875,-0.901611328125,0.1865234375,50.00763358778626,-6.648854961832061,10.16030534351145
10.38,0.1005859375,-0.89013671875,0.189697265625,45.86259541984733,-5.236641221374046,7.137404580152672
10.39,0.090087890625,-0.842041015625,0.182373046875,49.70229007633588,-6.9541984732824424,6.679389312977099
10.4,0.087890625,-0.76318359375,0.197021484375,50.274809160305345,-7.450381679389313,5.732824427480916
10.41,0.077880859375,-0.71923828125,0.24462890625,47.35114503816794,-8.305343511450381,2.8931297709923665
10.42,0.073486328125,-0.6904296875,0.255859375,41.89312977099237,-7.0534351145038165,-0.46564885496183206
10.43,0.09423828125,-0.6865234375,0.2421875,36.541984732824424,-5.8396946564885495,-4.854961832061068
10.44,0.086669921875,-0.663818359375,0.25927734375,34.50381679389313,-4.572519083969466,-9.442748091603054
10.45,0.097900390625,-0.6611328125,0.27783203125,29.061068702290076,-3.9236641221374047,-12.32824427480916
10.46,0.10888671875,-0.666015625,0.271484375,22.625954198473284,-0.9770992366412213,-12.17557251908397
10.47,0.09716796875,-0.65283203125,0.264892578125,19.87786259541985,-1.3435114503816794,-10.977099236641221
10.48,0.076904296875,-0.619140625,0.284912109375,15.083969465648854,-3.0916030534351147,-10.702290076335878
10.49,0.080322265625,-0.614501953125,0.289306640625,11.083969465648854,-4.549618320610687,-9.061068702290076
10.5,0.0634765625,-0.58837890625,0.302490234375,6.763358778625954,-5.6183206106870225,-8.251908396946565
10.51,0.091796875,-0.5478515625,0.299072265625,5.061068702290076,-7.4961832061068705,-7.908396946564886
10.52,0.080322265625,-0.51025390625,0.314697265625,3.2442748091603053,-9.549618320610687,-6.732824427480916
10.53,0.08642578125,-0.47119140625,0.339599609375,-0.9312977099236641,-9.82442748091603,-6.251908396946565
10.54,0.105224609375,-0.48046875,0.3349609375,-7.061068702290076,-8.664122137404581,-6.748091603053435
10.55,0.102294921875,-0.5,0.318359375,-12.50381679389313,-7.6183206106870225,-8.16030534351145
10.56,0.11767578125,-0.522705078125,0.306640625,-17.946564885496183,-7.061068702290076,-8.618320610687023
10.57,0.13427734375,-0.552734375,0.29248046875,-24.221374045801525,-6.305343511450381,-8.442748091603054
10.58,0.136474609375,-0.584228515625,0.26708984375,-30.396946564885496,-7.687022900763359,-8.946564885496183
10.59,0.1640625,-0.59765625,0.243408203125,-34.908396946564885,-3.969465648854962,-10.954198473282442
10.6,0.18310546875,-0.62548828125,0.240478515625,-39.36641221374046,-1.8931297709923665,-14.206106870229007
10.61,0.20556640625,-0.65185546875,0.214599609375,-41.55725190839695,-0.22900763358778625,-17.87786259541985
10.62,0.216552734375,-0.679931640625,0.233154296875,-45.12213740458015,1.7557251908396947,-21.778625954198475
10.63,0.211669921875,-0.69873046875,0.22216796875,-47.61832061068702,1.9923664122137406,-24.66412213740458
10.64,0.219482421875,-0.693359375,0.205322265625,-48.083969465648856,4.99236641221374,-26.51145038167939
10.65,0.220947265625,-0.690673828125,0.205078125,-48.57251908396947,5.106870229007634,-26.27480916030534
10.66,0.23291015625,-0.696533203125,0.214599609375,-51.80152671755725,4.824427480916031,-23.374045801526716
10.67,0.235107421875,-0.72412109375,0.206298828125,-58.30534351145038,6.488549618320611,-14.198473282442748
10.68,0.231201171875,-0.796875,0.197509765625,-62.969465648854964,7.99236641221374,-8.267175572519085
10.69,0.224365234375,-0.853271484375,0.1513671875,-65.05343511450381,9.404580152671755,-2.8396946564885495
10.7,0.228271484375,-0.9169921875,0.13720703125,-67.70229007633588,12.763358778625955,0.1297709923664122
10.71,0.224609375,-0.99072265625,0.109130859375,-68.94656488549619,12.80916030534351,5.7251908396946565
10.72,0.17578125,-1.028076171875,0.08349609375,-65.23664122137404,11.404580152671755,4.824427480916031
10.73,0.173095703125,-1.06005859375,0.09423828125,-62.717557251908396,9.396946564885496,3.0229007633587788
10.74,0.19921875,-1.051513671875,0.077880859375,-63.343511450381676,10.893129770992367,4.870229007633588
10.75,0.19140625,-1.061767578125,0.10693359375,-70.37404580152672,18.87786259541985,6.770992366412214
10.76,0.148681640625,-1.20751953125,0.08056640625,-72.2442748091603,16.18320610687023,10.068702290076336
10.77,0.149169921875,-1.20849609375,-0.006103515625,-62.412213740458014,17.68702290076336,11.198473282442748
10.78,0.09716796875,-1.33935546875,-0.05810546875,-38.2442748091603,7.015267175572519,5.908396946564886
10.79,0.078857421875,-1.344482421875,-0.000732421875,-25.702290076335878,2.1603053435114505,-3.0763358778625953
10.8,0.086181640625,-1.335205078125,0.03515625,-19.786259541984734,0.40458015267175573,-7.8320610687022905
10.81,0.096435546875,-1.280029296875,0.0849609375,-20.16030534351145,-0.6717557251908397,-12.335877862595419
10.82,0.13623046875,-1.224609375,0.082763671875,-23.748091603053435,1.8702290076335877,-9.213740458015268
10.83,0.126708984375,-1.232421875,0.092041015625,-26.419847328244273,2.984732824427481,-5.633587786259542
10.84,0.12646484375,-1.278076171875,0.07666015625,-26.38167938931298,4.427480916030534,-4.9465648854961835
10.85,0.104736328125,-1.2724609375,0.0595703125,-24.595419847328245,3.5572519083969465,-5.900763358778626
10.86,0.0791015625,-1.264404296875,0.05029296875,-20.328244274809162,1.6412213740458015,-7.458015267175573
10.87,0.09130859375,-1.242431640625,0.0888671875,-22.022900763358777,7.595419847328245,-8.305343511450381
10.88,0.10986328125,-1.24169921875,0.049072265625,-15.091603053435115,3.213740458015267,-5.366412213740458
10.89,0.079345703125,-1.248291015625,0.039306640625,-4.984732824427481,-2.7022900763358777,-3.0916030534351147
10.9,0.104736328125,-1.241943359375,0.09326171875,-3.5572519083969465,-1.8244274809160306,3.519083969465649
10.91,0.123779296875,-1.248291015625,0.118408203125,-8.076335877862595,-1.83206106870229,14.893129770992367
10.92,0.130126953125,-1.268798828125,0.0908203125,-11.610687022900763,2.1526717557251906,28.65648854961832
10.93,0.144287109375,-1.310791015625,0.068603515625,-5.396946564885496,1.9694656488549618,42.54961832061068
10.94,0.14404296875,-1.344482421875,0.07861328125,3.198473282442748,2.786259541984733,53.30534351145038
10.95,0.1162109375,-1.37841796875,0.089599609375,9.618320610687023,5.763358778625954,54.778625954198475
10.96,0.08154296875,-1.337158203125,0.10693359375,10.381679389312977,5.877862595419847,55.213740458015266
10.97,0.032470703125,-1.277099609375,0.1064453125,7.473282442748092,8.625954198473282,53.11450381679389
10.98,0.012939453125,-1.27880859375,0.08154296875,6.175572519083969,8.725190839694656,54.2442748091603
10.99,0.006103515625,-1.297607421875,0.06591796875,7.793893129770993,7.862595419847328,55.152671755725194
11.0,-0.0263671875,-1.340087890625,0.05224609375,10.870229007633588,6.648854961832061,52.725190839694655
11.01,-0.06298828125,-1.365234375,0.036376953125,14.687022900763358,5.557251908396947,44.61068702290076
11.02,-0.069580078125,-1.378173828125,0.027587890625,18.519083969465647,4.0534351145038165,34.2442748091603
11.03,-0.076171875,-1.395751953125,0.02685546875,23.297709923664122,1.8396946564885497,25.85496183206107
11.04,-0.0751953125,-1.40576171875,0.01171875,29.015267175572518,1.8244274809160306,17.732824427480917
11.05,-0.06982421875,-1.391845703125,0.025634765625,34.51908396946565,-0.11450381679389313,8.969465648854962
11.06,-0.0751953125,-1.359375,0.019287109375,38.32824427480916,-2.7022900763358777,1.0305343511450382
11.07,-0.052734375,-1.326904296875,0.037109375,42.908396946564885,-5.435114503816794,-3.877862595419847
11.08,-0.02734375,-1.301025390625,0.049560546875,46.725190839694655,-7.595419847328245,-6.786259541984733
11.09,0.00537109375,-1.282470703125,0.0537109375,49.656488549618324,-6.183206106870229,-7.450381679389313
11.1,0.03857421875,-1.282958984375,0.07421875,58.69465648854962,-4.862595419847328,-5.458015267175573
11.11,0.106201171875,-1.170166015625,0.08251953125,59.534351145038165,-2.1068702290076335,-3.7557251908396947
11.12,0.085205078125,-1.214111328125,0.06591796875,66.23664122137404,-9.129770992366412,-0.9389312977099237
11.13,0.0361328125,-1.157470703125,0.143310546875,62.12213740458015,-15.053435114503817,1.6030534351145038
11.14,0.08203125,-1.16943359375,0.12744140625,56.12977099236641,-8.48091603053435,5.809160305343512
11.15,0.07763671875,-1.161865234375,0.090087890625,63.25190839694657,-9.618320610687023,6.9541984732824424
11.16,0.0419921875,-1.11865234375,0.11962890625,70.21374045801527,-11.961832061068701,4.0458015267175576
11.17,0.03564453125,-1.017578125,0.186767578125,68.29007633587786,-16.87786259541985,1.9236641221374047
11.18,0.0419921875,-0.933837890625,0.205078125,58.14503816793893,-15.748091603053435,2.9923664122137406
11.19,0.076171875,-0.88623046875,0.19287109375,55.0,-14.595419847328245,6.633587786259542
11.2,0.1123046875,-0.8916015625,0.195556640625,53.954198473282446,-9.694656488549619,10.564885496183207
11.21,0.094482421875,-0.896240234375,0.20166015625,55.68702290076336,-7.625954198473282,10.679389312977099
11.22,0.0732421875,-0.884033203125,0.229736328125,52.541984732824424,-5.793893129770993,9.389312977099237
11.23,0.041748046875,-0.866943359375,0.21728515625,48.12213740458015,-6.366412213740458,11.297709923664122
11.24,0.0078125,-0.828369140625,0.204345703125,49.89312977099237,-10.755725190839694,11.114503816793894
11.25,0.010009765625,-0.767578125,0.2509765625,43.67175572519084,-10.648854961832061,11.267175572519085
11.26,0.0361328125,-0.7509765625,0.251953125,41.80916030534351,-12.946564885496183,11.801526717557252
11.27,0.04345703125,-0.714111328125,0.255859375,37.85496183206107,-12.595419847328245,10.312977099236642
11.28,0.05419921875,-0.661376953125,0.276123046875,32.00763358778626,-12.450381679389313,8.297709923664122
11.29,0.0712890625,-0.642578125,0.25146484375,27.137404580152673,-10.412213740458014,8.122137404580153
11.3,0.064453125,-0.616943359375,0.291259765625,20.885496183206108,-9.320610687022901,8.290076335877863
11.31,0.073974609375,-0.62353515625,0.316650390625,10.473282442748092,-5.221374045801527,9.045801526717558
11.32,0.041015625,-0.631591796875,0.2578125,7.572519083969466,-5.5038167938931295,7.8320610687022905
