Time(s),AccX,AccY,AccZ,GyrX,GyrY,GyrZ
0.0,0.0,0.0,0.0,0.0,0.0,0.0
0.01,0.0888671875,-1.020751953125,0.04150390625,28.61832061068702,-35.48854961832061,71.12213740458016
0.02,0.093017578125,-1.01416015625,0.045166015625,-3.7938931297709924,5.412213740458015,49.725190839694655
0.03,0.07958984375,-1.009033203125,0.042724609375,-1.6488549618320612,1.8778625954198473,-0.31297709923664124
0.04,0.083984375,-1.015625,0.0380859375,-1.8702290076335877,0.16030534351145037,-0.42748091603053434
0.05,0.0908203125,-1.019287109375,0.049072265625,-1.7099236641221374,-0.2900763358778626,-0.40458015267175573
0.06,0.087646484375,-1.029052734375,0.04638671875,-1.6793893129770991,-0.1450381679389313,-0.5190839694656488
0.07,0.091064453125,-1.021484375,0.05322265625,-1.6106870229007633,-0.16793893129770993,-0.35877862595419846
0.08,0.083740234375,-1.02197265625,0.04736328125,-1.786259541984733,-0.3053435114503817,-0.366412213740458
0.09,0.08740234375,-1.0107421875,0.04150390625,-1.7328244274809161,-0.13740458015267176,-0.3435114503816794
0.1,0.08544921875,-1.010498046875,0.0478515625,-1.633587786259542,-0.16030534351145037,-0.4198473282442748
0.11,0.092529296875,-1.02001953125,0.0517578125,-1.7328244274809161,-0.12213740458015267,-0.37404580152671757
0.12,0.091552734375,-1.018798828125,0.043701171875,-1.7328244274809161,-0.24427480916030533,-0.3969465648854962
0.13,0.087646484375,-1.01904296875,0.046142578125,-1.7938931297709924,-0.2900763358778626,-0.37404580152671757
0.14,0.08984375,-1.0107421875,0.0458984375,-1.5648854961832062,-0.05343511450381679,-0.46564885496183206
0.15,0.0908203125,-1.00244140625,0.046875,-1.8396946564885497,-0.2824427480916031,-0.25190839694656486
0.16,0.086669921875,-1.015625,0.047119140625,-1.5190839694656488,-0.2824427480916031,-0.22900763358778625
0.17,0.0859375,-1.010986328125,0.05126953125,-1.6412213740458015,-0.07633587786259542,-0.2595419847328244
0.18,0.087890625,-1.01806640625,0.05078125,-1.5572519083969465,-0.4961832061068702,-0.44274809160305345
0.19,0.078857421875,-1.02001953125,0.05419921875,-1.748091603053435,-0.21374045801526717,-0.25190839694656486
0.2,0.0927734375,-1.008056640625,0.051513671875,-1.8854961832061068,-0.4351145038167939,-0.4198473282442748
0.21,0.09326171875,-1.0009765625,0.04443359375,-1.7404580152671756,-0.24427480916030533,-0.4351145038167939
0.22,0.0947265625,-1.01806640625,0.05126953125,-1.618320610687023,-0.21374045801526717,-0.4198473282442748
0.23,0.088623046875,-1.016845703125,0.033447265625,-1.748091603053435,-0.03816793893129771,-0.5801526717557252
0.24,0.08935546875,-1.016357421875,0.046875,-1.5801526717557253,-0.17557251908396945,-0.4961832061068702
0.25,0.092041015625,-1.017333984375,0.049560546875,-1.702290076335878,-0.06870229007633588,-0.3435114503816794
0.26,0.084716796875,-1.015625,0.0458984375,-1.3358778625954197,-0.10687022900763359,-0.4732824427480916
0.27,0.0927734375,-1.0185546875,0.05126953125,-1.786259541984733,-0.2748091603053435,-0.3511450381679389
0.28,0.088134765625,-1.0205078125,0.04931640625,-1.6870229007633588,-0.07633587786259542,-0.3893129770992366
0.29,0.0908203125,-1.017333984375,0.052001953125,-1.7251908396946565,-0.3282442748091603,-0.33587786259541985
0.3,0.09326171875,-1.01416015625,0.0546875,-1.549618320610687,-0.33587786259541985,-0.4580152671755725
0.31,0.08935546875,-1.00830078125,0.031494140625,-2.0076335877862594,-0.29770992366412213,-0.40458015267175573
0.32,0.08837890625,-1.015869140625,0.0517578125,-1.7099236641221374,-0.48091603053435117,-0.37404580152671757
0.33,0.089599609375,-1.009765625,0.05078125,-1.8473282442748091,-0.16030534351145037,-0.3816793893129771
0.34,0.10595703125,-1.0166015625,0.04248046875,-1.6488549618320612,-0.24427480916030533,-0.4580152671755725
0.35,0.092041015625,-1.001953125,0.0478515625,-1.8854961832061068,-0.17557251908396945,-0.42748091603053434
0.36,0.09619140625,-1.013671875,0.0615234375,-1.7251908396946565,-0.2748091603053435,-0.37404580152671757
0.37,0.0888671875,-1.030517578125,0.052001953125,-1.786259541984733,-0.1984732824427481,-0.32061068702290074
0.38,0.085205078125,-1.021728515625,0.062255859375,-1.7557251908396947,-0.2366412213740458,-0.366412213740458
0.39,0.09130859375,-1.013916015625,0.052734375,-1.7633587786259541,-0.2595419847328244,-0.4198473282442748
0.4,0.090576171875,-1.013916015625,0.051025390625,-1.7099236641221374,-0.26717557251908397,-0.2900763358778626
0.41,0.09033203125,-1.0205078125,0.049560546875,-1.6564885496183206,-0.22137404580152673,-0.4732824427480916
0.42,0.092041015625,-1.018310546875,0.053955078125,-1.8473282442748091,-0.26717557251908397,-0.366412213740458
0.43,0.090576171875,-1.031005859375,0.031494140625,-1.6793893129770991,-0.2595419847328244,-0.4961832061068702
0.44,0.08935546875,-1.00439453125,0.0361328125,-1.6717557251908397,-0.3969465648854962,-0.29770992366412213
0.45,0.08740234375,-1.0166015625,0.06298828125,-1.5954198473282444,-0.022900763358778626,-0.35877862595419846
0.46,0.09033203125,-1.014892578125,0.054443359375,-1.6488549618320612,-0.2366412213740458,-0.5572519083969466
0.47,0.09228515625,-1.0244140625,0.0458984375,-1.6946564885496183,-0.31297709923664124,-0.5267175572519084
0.48,0.087158203125,-1.018310546875,0.04443359375,-1.6564885496183206,-0.31297709923664124,-0.45038167938931295
0.49,0.090576171875,-1.01171875,0.056396484375,-1.618320610687023,-0.08396946564885496,-0.3511450381679389
0.5,0.083740234375,-1.0302734375,0.0546875,-1.6488549618320612,-0.5267175572519084,-0.5190839694656488
0.51,0.08935546875,-1.0009765625,0.05810546875,-1.6946564885496183,-0.20610687022900764,-0.5267175572519084
0.52,0.083740234375,-1.017578125,0.053955078125,-1.702290076335878,-0.3893129770992366,-0.3282442748091603
0.53,0.087158203125,-1.00732421875,0.04345703125,-1.8702290076335877,-0.29770992366412213,-0.4351145038167939
0.54,0.09130859375,-1.026123046875,0.040283203125,-1.6793893129770991,-0.22137404580152673,-0.5038167938931297
0.55,0.091552734375,-1.01220703125,0.040283203125,-1.6870229007633588,-0.10687022900763359,-0.366412213740458
0.56,0.09033203125,-1.013671875,0.052001953125,-1.717557251908397,-0.13740458015267176,-0.4732824427480916
0.57,0.104736328125,-1.017822265625,0.051513671875,-1.6946564885496183,-0.1297709923664122,-0.3435114503816794
0.58,0.09228515625,-1.020751953125,0.050048828125,-1.5648854961832062,0.03816793893129771,-0.4580152671755725
0.59,0.09619140625,-1.01318359375,0.03125,-1.7633587786259541,-0.0916030534351145,-0.3893129770992366
0.6,0.089599609375,-1.019287109375,0.050048828125,-1.4961832061068703,-0.24427480916030533,-0.4351145038167939
0.61,0.087646484375,-1.01416015625,0.043701171875,-1.7328244274809161,-0.2748091603053435,-0.32061068702290074
0.62,0.089599609375,-1.01513671875,0.053466796875,-1.6870229007633588,-0.03816793893129771,-0.1984732824427481
0.63,0.085693359375,-1.01708984375,0.05126953125,-1.633587786259542,-0.16793893129770993,-0.4961832061068702
0.64,0.090087890625,-1.002685546875,0.05419921875,-1.8854961832061068,-0.2748091603053435,-0.37404580152671757
0.65,0.092529296875,-1.008056640625,0.061279296875,-1.7938931297709924,0.04580152671755725,-0.25190839694656486
0.66,0.09326171875,-1.019775390625,0.051025390625,-1.5190839694656488,-0.2824427480916031,-0.48091603053435117
0.67,0.09130859375,-1.01611328125,0.061279296875,-1.7633587786259541,-0.16030534351145037,-0.44274809160305345
0.68,0.0908203125,-1.017578125,0.056396484375,-1.6259541984732824,-0.3511450381679389,-0.42748091603053434
0.69,0.092529296875,-1.01611328125,0.04736328125,-1.5648854961832062,-0.24427480916030533,-0.2748091603053435
0.7,0.094482421875,-1.022216796875,0.05126953125,-1.5267175572519085,-0.15267175572519084,-0.45038167938931295
0.71,0.091064453125,-1.019287109375,0.054443359375,-1.3053435114503817,1.8473282442748091,-0.4961832061068702
0.72,0.0869140625,-1.015625,0.04541015625,-1.702290076335878,-0.16030534351145037,-0.3816793893129771
0.73,0.09033203125,-1.001953125,0.033203125,-1.8091603053435115,-0.15267175572519084,-0.4351145038167939
0.74,0.08837890625,-1.01708984375,0.061279296875,-1.7633587786259541,-0.16030534351145037,-0.3511450381679389
0.75,0.09033203125,-1.015625,0.049560546875,-1.6564885496183206,-0.2900763358778626,-0.4198473282442748
0.76,0.08740234375,-1.016357421875,0.053466796875,-1.7099236641221374,-0.183206106870229,-0.48854961832061067
0.77,0.08984375,-1.01611328125,0.050048828125,-1.5725190839694656,-0.09923664122137404,-0.5419847328244275
0.78,0.0927734375,-1.01416015625,0.048095703125,-1.8778625954198473,-0.26717557251908397,-0.5267175572519084
0.79,0.088134765625,-1.0146484375,0.046630859375,-1.717557251908397,-0.1984732824427481,-0.46564885496183206
0.8,0.08642578125,-1.012451171875,0.060546875,-1.633587786259542,-0.08396946564885496,-0.3282442748091603
0.81,0.088623046875,-1.012939453125,0.04833984375,-1.6030534351145038,-0.2748091603053435,-0.31297709923664124
0.82,0.091796875,-1.015869140625,0.034423828125,-1.6564885496183206,-0.48091603053435117,-0.3893129770992366
0.83,0.092041015625,-1.01708984375,0.0478515625,-1.6870229007633588,-0.2366412213740458,-0.3816793893129771
0.84,0.08154296875,-1.011962890625,0.04052734375,-1.7404580152671756,-0.24427480916030533,-0.3969465648854962
0.85,0.0888671875,-1.01220703125,0.04638671875,-1.6946564885496183,-0.20610687022900764,-0.5114503816793893
0.86,0.08349609375,-1.000732421875,0.054443359375,-1.633587786259542,-0.2595419847328244,-0.3816793893129771
0.87,0.09326171875,-1.02001953125,0.072998046875,-1.6870229007633588,-0.13740458015267176,-0.48854961832061067
0.88,0.08984375,-1.01318359375,0.05908203125,-1.6946564885496183,-0.17557251908396945,-0.44274809160305345
0.89,0.0947265625,-1.018310546875,0.04931640625,-1.6412213740458015,-0.2824427480916031,-0.2748091603053435
0.9,0.092041015625,-1.0078125,0.048828125,-1.633587786259542,-0.4122137404580153,-0.4961832061068702
0.91,0.09033203125,-1.0126953125,0.04736328125,-1.8473282442748091,-0.17557251908396945,-0.21374045801526717
0.92,0.0869140625,-1.01416015625,0.049560546875,-1.6870229007633588,-0.46564885496183206,-0.3282442748091603
0.93,0.08984375,-1.00146484375,0.046630859375,-1.748091603053435,-0.1984732824427481,-0.3893129770992366
0.94,0.07958984375,-1.005859375,0.060546875,-1.6564885496183206,1.900763358778626,-0.2748091603053435
0.95,0.089599609375,-1.01806640625,0.05126953125,-1.83206106870229,1.900763358778626,-0.44274809160305345
0.96,0.089599609375,-1.01611328125,0.054443359375,-1.7099236641221374,-0.20610687022900764,-0.3816793893129771
0.97,0.088623046875,-1.01904296875,0.049072265625,-1.3969465648854962,-0.33587786259541985,-0.4122137404580153
0.98,0.083740234375,-1.019287109375,0.04541015625,-1.6106870229007633,-0.19083969465648856,-0.5267175572519084
0.99,0.086669921875,-1.0166015625,0.04052734375,-1.717557251908397,-0.35877862595419846,-0.4580152671755725
1.0,0.090087890625,-1.0185546875,0.03759765625,-1.633587786259542,-0.3969465648854962,-0.4732824427480916
1.01,0.0888671875,-1.01416015625,0.0458984375,-1.7251908396946565,-0.4961832061068702,-0.6335877862595419
1.02,0.08837890625,-1.0263671875,0.039306640625,-1.6641221374045803,-0.183206106870229,-0.3282442748091603
1.03,0.088623046875,-1.031005859375,0.044677734375,-1.6412213740458015,-0.17557251908396945,-0.3435114503816794
1.04,0.09375,-1.01123046875,0.050537109375,-1.8396946564885497,-0.1984732824427481,-0.44274809160305345
1.05,0.0927734375,-1.01513671875,0.054443359375,-1.6259541984732824,-0.31297709923664124,-0.3435114503816794
1.06,0.09033203125,-1.021728515625,0.04296875,-1.7786259541984732,-0.1984732824427481,-0.32061068702290074
1.07,0.091064453125,-1.00244140625,0.048583984375,-1.5725190839694656,-0.21374045801526717,-0.45038167938931295
1.08,0.08984375,-1.004150390625,0.039306640625,-1.6030534351145038,-0.35877862595419846,-0.48091603053435117
1.09,0.09033203125,-1.025390625,0.0546875,-1.7938931297709924,-0.3435114503816794,-0.3511450381679389
1.1,0.093994140625,-1.016845703125,0.054443359375,-1.717557251908397,-0.07633587786259542,-0.3511450381679389
1.11,0.08642578125,-1.010498046875,0.0517578125,-1.5954198473282444,-0.06870229007633588,-0.29770992366412213
1.12,0.091552734375,-1.01611328125,0.047607421875,-1.9312977099236641,-0.37404580152671757,-0.4580152671755725
1.13,0.085693359375,-1.015625,0.0576171875,-1.6641221374045803,-0.1984732824427481,-0.5190839694656488
1.14,0.088134765625,-1.02099609375,0.048828125,-1.450381679389313,-0.25190839694656486,-0.4122137404580153
1.15,0.090576171875,-1.03076171875,0.04296875,-1.702290076335878,-0.3435114503816794,-0.29770992366412213
1.16,0.093994140625,-1.010986328125,0.039306640625,-1.5572519083969465,-0.48091603053435117,-0.4122137404580153
1.17,0.09326171875,-1.01708984375,0.03515625,-1.8396946564885497,1.8396946564885497,-0.3816793893129771
1.18,0.097900390625,-1.0244140625,0.05126953125,-1.8091603053435115,-0.2595419847328244,-0.4122137404580153
1.19,0.085693359375,-1.01904296875,0.05517578125,-1.5419847328244274,-0.17557251908396945,-0.20610687022900764
1.2,0.088623046875,-1.015869140625,0.04443359375,-1.6717557251908397,-0.3893129770992366,-0.40458015267175573
1.21,0.0888671875,-1.017333984375,0.05126953125,-1.7938931297709924,-0.2824427480916031,-0.4351145038167939
1.22,0.08447265625,-1.0126953125,0.04150390625,-1.7251908396946565,-0.2366412213740458,-0.5114503816793893
1.23,0.085205078125,-1.00146484375,0.051025390625,-1.6946564885496183,-0.17557251908396945,-0.5038167938931297
1.24,0.079833984375,-1.0009765625,0.0419921875,-1.717557251908397,-0.19083969465648856,-0.4732824427480916
1.25,0.08837890625,-1.00341796875,0.036865234375,-2.099236641221374,-0.2595419847328244,-0.4351145038167939
1.26,0.088134765625,-1.013916015625,0.04150390625,-1.7786259541984732,-0.1297709923664122,-0.2900763358778626
1.27,0.088623046875,-1.013671875,0.049560546875,-1.6564885496183206,-0.5038167938931297,-0.5038167938931297
1.28,0.09228515625,-1.0146484375,0.041748046875,-1.5877862595419847,-0.31297709923664124,-0.45038167938931295
1.29,0.090087890625,-1.01611328125,0.052001953125,-1.534351145038168,-0.0916030534351145,-0.32061068702290074
1.3,0.10791015625,-1.02392578125,0.048095703125,-1.8244274809160306,-0.19083969465648856,-0.5267175572519084
1.31,0.07861328125,-1.012939453125,0.048095703125,-1.6641221374045803,-0.2595419847328244,-0.5954198473282443
1.32,0.089111328125,-1.012939453125,0.06201171875,-1.5877862595419847,-0.26717557251908397,-0.4580152671755725
1.33,0.09130859375,-1.021728515625,0.03173828125,-0.015267175572519083,-0.3282442748091603,-0.366412213740458
1.34,0.081298828125,-1.014404296875,0.041259765625,-1.549618320610687,-0.16793893129770993,-0.3435114503816794
1.35,0.0908203125,-1.015869140625,0.054931640625,-1.7709923664122138,-0.3282442748091603,-0.4580152671755725
1.36,0.083251953125,-1.017333984375,0.045166015625,-1.8015267175572518,-0.29770992366412213,-0.35877862595419846
1.37,0.093505859375,-1.02880859375,0.0498046875,-1.8931297709923665,-0.366412213740458,-0.32061068702290074
1.38,0.0791015625,-1.017822265625,0.03173828125,-1.9312977099236641,-0.183206106870229,-0.2595419847328244
1.39,0.094482421875,-1.018310546875,0.05517578125,-1.618320610687023,-0.16030534351145037,-0.37404580152671757
1.4,0.09326171875,-1.02001953125,0.0576171875,-1.8091603053435115,-0.1450381679389313,-0.3893129770992366
1.41,0.090087890625,-1.014404296875,0.0537109375,-1.6412213740458015,-0.17557251908396945,-0.37404580152671757
1.42,0.093505859375,-1.017578125,0.049072265625,-1.5801526717557253,-0.030534351145038167,-0.2595419847328244
1.43,0.093505859375,-1.01513671875,0.053466796875,-1.5801526717557253,-0.06870229007633588,-0.4198473282442748
1.44,0.093505859375,-1.017578125,0.0546875,-1.6641221374045803,-0.13740458015267176,-0.366412213740458
1.45,0.0927734375,-1.01513671875,0.046875,-1.6106870229007633,-0.2824427480916031,-0.549618320610687
1.46,0.089599609375,-1.0068359375,0.03662109375,-1.786259541984733,-0.1450381679389313,-0.5267175572519084
1.47,0.0888671875,-1.031005859375,0.032958984375,-1.7404580152671756,-0.1297709923664122,-0.32061068702290074
1.48,0.089599609375,-1.0185546875,0.054443359375,-1.7099236641221374,-0.21374045801526717,-0.4961832061068702
1.49,0.089599609375,-1.01708984375,0.05517578125,-1.6793893129770991,-0.22137404580152673,-0.2366412213740458
1.5,0.087890625,-1.0205078125,0.04931640625,-1.7786259541984732,-0.05343511450381679,-0.24427480916030533
1.51,0.089111328125,-1.018310546875,0.05029296875,-1.6564885496183206,-0.2595419847328244,-0.549618320610687
1.52,0.10693359375,-1.015625,0.05126953125,-1.633587786259542,-0.10687022900763359,-0.44274809160305345
1.53,0.087646484375,-1.01708984375,0.034912109375,-1.549618320610687,-0.16793893129770993,-0.42748091603053434
1.54,0.095703125,-1.019775390625,0.043701171875,-1.7251908396946565,-0.3969465648854962,-0.5267175572519084
1.55,0.093017578125,-1.016357421875,0.054931640625,-1.8702290076335877,-0.11450381679389313,-0.42748091603053434
1.56,0.097412109375,-1.021240234375,0.039306640625,-1.6793893129770991,-0.19083969465648856,-0.5190839694656488
1.57,0.08935546875,-1.010009765625,0.04736328125,-1.5572519083969465,-0.1450381679389313,-0.2900763358778626
1.58,0.0869140625,-1.01806640625,0.048828125,-1.5725190839694656,-0.2366412213740458,-0.46564885496183206
1.59,0.089111328125,-1.02099609375,0.0546875,-1.717557251908397,-0.37404580152671757,-0.31297709923664124
1.6,0.093017578125,-1.009033203125,0.05419921875,-1.9618320610687023,-0.3053435114503817,-0.2748091603053435
1.61,0.09130859375,-1.013427734375,0.032958984375,-1.717557251908397,-0.35877862595419846,-0.3053435114503817
1.62,0.088623046875,-1.013916015625,0.03564453125,-1.549618320610687,-0.09923664122137404,-0.35877862595419846
1.63,0.094482421875,-1.014892578125,0.049560546875,-1.618320610687023,-0.11450381679389313,-0.2366412213740458
1.64,0.0908203125,-1.012939453125,0.04443359375,-1.7786259541984732,-0.48091603053435117,-0.2824427480916031
1.65,0.104248046875,-1.017333984375,0.04345703125,-1.8015267175572518,-0.05343511450381679,-0.4732824427480916
1.66,0.092041015625,-1.018798828125,0.04443359375,-1.900763358778626,-0.16030534351145037,-0.35877862595419846
1.67,0.0791015625,-1.017333984375,0.036865234375,-1.6564885496183206,-0.10687022900763359,-0.48091603053435117
1.68,0.087646484375,-1.000244140625,0.054931640625,-1.816793893129771,-0.22900763358778625,-0.2595419847328244
1.69,0.087158203125,-1.01806640625,0.060302734375,-1.748091603053435,-0.06870229007633588,-0.3893129770992366
1.7,0.08837890625,-1.014404296875,0.052490234375,-1.6564885496183206,-0.2824427480916031,-0.5038167938931297
1.71,0.08837890625,-1.017578125,0.058349609375,-1.5954198473282444,-0.061068702290076333,-0.45038167938931295
1.72,0.08447265625,-1.0146484375,0.054931640625,-1.5648854961832062,-0.2748091603053435,-0.5725190839694656
1.73,0.087890625,-1.001708984375,0.05126953125,-1.5725190839694656,-0.46564885496183206,-0.3435114503816794
1.74,0.082763671875,-1.0166015625,0.05908203125,-1.5725190839694656,-0.3893129770992366,-0.45038167938931295
1.75,0.0908203125,-1.016845703125,0.04541015625,-1.8015267175572518,-0.48091603053435117,-0.366412213740458
1.76,0.089111328125,-1.01708984375,0.05322265625,-1.7557251908396947,-0.22900763358778625,-0.5877862595419847
1.77,0.090576171875,-1.015625,0.049560546875,-1.6946564885496183,-0.19083969465648856,-0.3435114503816794
1.78,0.084228515625,-1.022216796875,0.05517578125,-1.7633587786259541,0.015267175572519083,-0.2366412213740458
1.79,0.0986328125,-1.019775390625,0.05810546875,-1.6259541984732824,-0.25190839694656486,-0.4732824427480916
1.8,0.08251953125,-1.01708984375,0.051513671875,-1.8396946564885497,-0.2900763358778626,-0.48091603053435117
1.81,0.089111328125,-1.014892578125,0.053466796875,-1.8625954198473282,-0.3511450381679389,-0.4122137404580153
1.82,0.089111328125,-1.01318359375,0.050048828125,-1.7099236641221374,-0.22900763358778625,-0.3053435114503817
1.83,0.094482421875,-1.01806640625,0.04345703125,-1.7328244274809161,-0.15267175572519084,-0.33587786259541985
1.84,0.086669921875,-1.01318359375,0.05029296875,-1.83206106870229,-0.37404580152671757,-0.4580152671755725
1.85,0.084716796875,-1.01611328125,0.052001953125,-1.816793893129771,-0.3893129770992366,-0.5572519083969466
1.86,0.089599609375,-1.018310546875,0.03955078125,-1.7251908396946565,-0.08396946564885496,-0.5267175572519084
1.87,0.09228515625,-1.017333984375,0.0458984375,-1.633587786259542,-0.2748091603053435,-0.4122137404580153
1.88,0.087890625,-1.012939453125,0.0517578125,-1.5725190839694656,-0.2900763358778626,-0.5038167938931297
1.89,0.0927734375,-1.00341796875,0.05419921875,-1.8396946564885497,-0.5343511450381679,-0.3053435114503817
1.9,0.093017578125,-1.017822265625,0.046142578125,-1.4885496183206106,-0.15267175572519084,-0.4198473282442748
1.91,0.091064453125,-1.015380859375,0.044921875,-1.748091603053435,-0.2824427480916031,-0.46564885496183206
1.92,0.0888671875,-1.02490234375,0.05419921875,-1.7404580152671756,-0.24427480916030533,-0.3511450381679389
1.93,0.090087890625,-1.01708984375,0.051025390625,-1.7099236641221374,-0.19083969465648856,-0.32061068702290074
1.94,0.09033203125,-1.013671875,0.0400390625,-1.8244274809160306,-0.22900763358778625,-0.4198473282442748
1.95,0.095703125,-1.018310546875,0.050048828125,-1.8778625954198473,-0.35877862595419846,-0.4198473282442748
1.96,0.0888671875,-1.02001953125,0.05810546875,-1.6946564885496183,-0.05343511450381679,-0.37404580152671757
1.97,0.091796875,-1.01171875,0.034423828125,-1.6259541984732824,-0.4122137404580153,-0.33587786259541985
1.98,0.08447265625,-1.016845703125,0.03125,-1.7709923664122138,-0.061068702290076333,-0.4351145038167939
1.99,0.09375,-1.0185546875,0.053466796875,-1.7404580152671756,-0.29770992366412213,-0.3969465648854962
2.0,0.092041015625,-1.012451171875,0.049560546875,-1.83206106870229,-0.3511450381679389,-0.3893129770992366
2.01,0.088134765625,-1.018310546875,0.0478515625,-1.6106870229007633,-0.04580152671755725,-0.25190839694656486
2.02,0.093017578125,-1.017822265625,0.03173828125,-1.6793893129770991,-0.2748091603053435,-0.4122137404580153
2.03,0.08056640625,-1.013671875,0.0361328125,-1.618320610687023,-0.32061068702290074,-0.29770992366412213
2.04,0.09130859375,-1.031005859375,0.031494140625,-1.7938931297709924,-0.25190839694656486,-0.5725190839694656
2.05,0.087158203125,-1.013427734375,0.048828125,-1.748091603053435,-0.3282442748091603,-0.4732824427480916
2.06,0.09423828125,-1.01806640625,0.05029296875,-1.8091603053435115,-0.3816793893129771,-0.3893129770992366
2.07,0.09228515625,-1.015869140625,0.04248046875,-1.6488549618320612,-0.32061068702290074,-0.2824427480916031
2.08,0.10400390625,-1.01904296875,0.05029296875,-1.6259541984732824,-0.32061068702290074,-0.40458015267175573
2.09,0.079345703125,-1.020751953125,0.04345703125,-1.7099236641221374,-0.007633587786259542,-0.3893129770992366
2.1,0.093505859375,-1.015380859375,0.05615234375,-1.8244274809160306,-0.1450381679389313,-0.48854961832061067
2.11,0.09228515625,-1.0126953125,0.047607421875,-1.6488549618320612,-0.2366412213740458,-0.42748091603053434
2.12,0.094970703125,-1.01953125,0.05615234375,-1.717557251908397,-0.3282442748091603,-0.31297709923664124
2.13,0.0888671875,-1.009765625,0.044189453125,-1.7099236641221374,-0.37404580152671757,-0.4961832061068702
2.14,0.08740234375,-1.016845703125,0.05517578125,-1.6259541984732824,-0.3893129770992366,-0.24427480916030533
2.15,0.08935546875,-1.015625,0.0556640625,-1.816793893129771,-0.183206106870229,-0.5572519083969466
2.16,0.09326171875,-1.002685546875,0.0458984375,-1.6946564885496183,-0.4580152671755725,-0.3893129770992366
2.17,0.088623046875,-1.01171875,0.048828125,-1.702290076335878,-0.16793893129770993,-0.26717557251908397
2.18,0.09765625,-1.01708984375,0.0517578125,-1.7633587786259541,-0.13740458015267176,-0.32061068702290074
2.19,0.09619140625,-1.01708984375,0.040771484375,-1.5267175572519085,-0.2595419847328244,-0.48091603053435117
2.2,0.092041015625,-1.0224609375,0.0458984375,-1.633587786259542,-0.25190839694656486,-0.6183206106870229
2.21,0.090087890625,-1.01220703125,0.052490234375,-1.6641221374045803,-0.22137404580152673,-0.3282442748091603
2.22,0.088623046875,-1.01513671875,0.051025390625,-1.4427480916030535,-0.15267175572519084,-0.4732824427480916
2.23,0.087158203125,-1.001953125,0.042724609375,-1.748091603053435,-0.3053435114503817,-0.29770992366412213
2.24,0.090087890625,-1.030029296875,0.05517578125,-1.6870229007633588,-0.19083969465648856,-0.37404580152671757
2.25,0.0859375,-1.01708984375,0.049560546875,-1.6488549618320612,-0.31297709923664124,-0.32061068702290074
2.26,0.088623046875,-1.012939453125,0.05517578125,-1.6488549618320612,-0.10687022900763359,-0.25190839694656486
2.27,0.086669921875,-1.014404296875,0.03955078125,-1.702290076335878,-0.04580152671755725,-0.4122137404580153
2.28,0.09423828125,-1.017578125,0.054931640625,-1.6259541984732824,-0.11450381679389313,-0.21374045801526717
2.29,0.0888671875,-1.010986328125,0.04541015625,-1.6564885496183206,-0.17557251908396945,-0.5267175572519084
2.3,0.079833984375,-1.012451171875,0.047607421875,-1.748091603053435,-0.366412213740458,-0.31297709923664124
2.31,0.0927734375,-1.013671875,0.043212890625,-1.6488549618320612,-0.2748091603053435,-0.26717557251908397
2.32,0.089111328125,-1.015380859375,0.03662109375,-1.7633587786259541,-0.2748091603053435,-0.21374045801526717
2.33,0.091796875,-1.013427734375,0.05029296875,-1.7786259541984732,-0.2366412213740458,-0.48854961832061067
2.34,0.084228515625,-1.01611328125,0.06005859375,-1.6793893129770991,-0.24427480916030533,-0.33587786259541985
2.35,0.081787109375,-1.016357421875,0.044189453125,-1.786259541984733,-0.1984732824427481,-0.3435114503816794
2.36,0.088134765625,-1.01123046875,0.045166015625,-1.6488549618320612,-0.33587786259541985,-0.5725190839694656
2.37,0.090576171875,-1.0166015625,0.052001953125,-1.6412213740458015,-0.29770992366412213,-0.48854961832061067
2.38,0.09033203125,-1.017333984375,0.05224609375,-3.877862595419847,-0.0916030534351145,-0.5572519083969466
2.39,0.09521484375,-1.0107421875,0.048828125,-1.7328244274809161,-0.16030534351145037,-0.4961832061068702
2.4,0.0888671875,-1.0009765625,0.06103515625,-1.5954198473282444,-0.3053435114503817,-0.3511450381679389
2.41,0.087158203125,-1.014404296875,0.047607421875,-1.8091603053435115,-0.2366412213740458,-0.4580152671755725
2.42,0.09130859375,-1.017578125,0.0556640625,-1.816793893129771,-0.22137404580152673,-0.3511450381679389
2.43,0.087646484375,-1.01708984375,0.05224609375,-1.748091603053435,-0.20610687022900764,-0.35877862595419846
2.44,0.092041015625,-1.017333984375,0.044921875,-1.549618320610687,-0.21374045801526717,-0.35877862595419846
2.45,0.093017578125,-1.002685546875,0.047119140625,-1.5648854961832062,-0.31297709923664124,-0.29770992366412213
2.46,0.085205078125,-1.017822265625,0.048828125,-1.5114503816793894,-0.09923664122137404,-0.4198473282442748
2.47,0.09619140625,-1.02001953125,0.05419921875,-1.633587786259542,-0.10687022900763359,-0.3816793893129771
2.48,0.087158203125,-1.013427734375,0.047119140625,-1.6488549618320612,-0.061068702290076333,-0.33587786259541985
2.49,0.09326171875,-1.01220703125,0.04931640625,-1.6259541984732824,-0.3282442748091603,-0.5114503816793893
2.5,0.086181640625,-1.018310546875,0.046630859375,-1.6870229007633588,-0.29770992366412213,-0.2748091603053435
2.51,0.08642578125,-1.02099609375,0.0556640625,-1.7251908396946565,-0.29770992366412213,-0.4351145038167939
2.52,0.091064453125,-1.013671875,0.048583984375,-1.7633587786259541,-0.2900763358778626,-0.48091603053435117
2.53,0.09375,-1.028564453125,0.041015625,-1.633587786259542,-0.19083969465648856,-0.22137404580152673
2.54,0.100830078125,-1.00146484375,0.05712890625,-1.6106870229007633,-0.25190839694656486,-0.37404580152671757
2.55,0.087890625,-1.001953125,0.042724609375,-1.549618320610687,-0.22900763358778625,-0.3893129770992366
2.56,0.09375,-1.0107421875,0.05126953125,-1.8702290076335877,-0.183206106870229,-0.33587786259541985
2.57,0.087890625,-1.01171875,0.048095703125,-1.5954198473282444,-0.15267175572519084,-0.21374045801526717
2.58,0.087890625,-1.010009765625,0.045654296875,-1.7328244274809161,-0.04580152671755725,-0.33587786259541985
2.59,0.09326171875,-1.0146484375,0.052490234375,-1.6870229007633588,-0.25190839694656486,-0.45038167938931295
2.6,0.105224609375,-1.0166015625,0.042236328125,-1.6641221374045803,-0.2748091603053435,-0.4198473282442748
2.61,0.089599609375,-1.017578125,0.04296875,-1.748091603053435,-0.3816793893129771,-0.46564885496183206
2.62,0.0927734375,-1.0185546875,0.038818359375,-1.786259541984733,-0.33587786259541985,-0.5267175572519084
2.63,0.09033203125,-1.010009765625,0.033447265625,-1.5877862595419847,-0.2366412213740458,-0.2748091603053435
2.64,0.083740234375,-1.0224609375,0.057373046875,-1.4427480916030535,-0.2900763358778626,-0.5419847328244275
2.65,0.08642578125,-1.01025390625,0.058349609375,-1.7557251908396947,-0.17557251908396945,-0.46564885496183206
2.66,0.089599609375,-1.017822265625,0.04443359375,-1.8015267175572518,-0.3053435114503817,-0.3511450381679389
2.67,0.103759765625,-1.01904296875,0.048583984375,-1.4961832061068703,-0.183206106870229,-0.4580152671755725
2.68,0.079345703125,-1.006103515625,0.047119140625,-1.8549618320610688,-0.3282442748091603,-0.4961832061068702
2.69,0.092041015625,-1.008544921875,0.061279296875,-1.6412213740458015,-0.31297709923664124,-0.45038167938931295
2.7,0.091552734375,-1.018310546875,0.060546875,-1.7328244274809161,-0.42748091603053434,-0.3282442748091603
2.71,0.08984375,-1.0166015625,0.049072265625,-1.5801526717557253,-0.183206106870229,-0.5877862595419847
2.72,0.09130859375,-1.0078125,0.054443359375,-1.748091603053435,-0.13740458015267176,-0.37404580152671757
2.73,0.091064453125,-1.01513671875,0.054931640625,-1.7099236641221374,-0.2366412213740458,-0.4732824427480916
2.74,0.085693359375,-1.02001953125,0.049560546875,-1.83206106870229,-0.04580152671755725,-0.31297709923664124
2.75,0.08935546875,-1.010498046875,0.060546875,-1.7404580152671756,-0.22137404580152673,-0.5190839694656488
2.76,0.089599609375,-1.0107421875,0.0615234375,-1.5419847328244274,-0.31297709923664124,-0.3435114503816794
2.77,0.0869140625,-1.017333984375,0.04833984375,-1.8091603053435115,-0.29770992366412213,-0.5419847328244275
2.78,0.090087890625,-1.013916015625,0.0537109375,-1.6564885496183206,-0.3053435114503817,-0.45038167938931295
2.79,0.086181640625,-1.0146484375,0.0498046875,-1.8854961832061068,-0.3282442748091603,-0.4198473282442748
2.8,0.080078125,-1.01025390625,0.055908203125,-1.6870229007633588,-0.2900763358778626,-0.5038167938931297
2.81,0.1083984375,-1.03076171875,0.055908203125,-1.8091603053435115,-0.32061068702290074,-0.4122137404580153
2.82,0.08935546875,-1.008544921875,0.0380859375,-1.5572519083969465,-0.2900763358778626,-0.3893129770992366
2.83,0.092041015625,-1.01953125,0.0498046875,-1.7709923664122138,-0.183206106870229,-0.3435114503816794
2.84,0.08984375,-1.0009765625,0.0576171875,-1.7709923664122138,-0.19083969465648856,-0.4732824427480916
2.85,0.089599609375,-1.01025390625,0.060791015625,-1.7786259541984732,-0.21374045801526717,-0.24427480916030533
2.86,0.08984375,-1.019287109375,0.051513671875,-1.8473282442748091,-0.29770992366412213,-0.5114503816793893
2.87,0.093017578125,-1.020751953125,0.044189453125,-1.6946564885496183,-0.1297709923664122,-0.35877862595419846
2.88,0.092041015625,-1.015625,0.04736328125,-1.8549618320610688,-0.26717557251908397,-0.366412213740458
2.89,0.08056640625,-1.0283203125,0.04638671875,-1.8244274809160306,-0.22900763358778625,-0.5419847328244275
2.9,0.091796875,-1.001220703125,0.04833984375,-1.6717557251908397,-0.4198473282442748,-0.48091603053435117
2.91,0.094970703125,-1.01318359375,0.03173828125,-1.717557251908397,-0.1984732824427481,-0.42748091603053434
2.92,0.087158203125,-1.015380859375,0.038818359375,-1.748091603053435,-0.3435114503816794,-0.5038167938931297
2.93,0.09130859375,-1.018310546875,0.04833984375,-1.6641221374045803,-0.1297709923664122,-0.2900763358778626
2.94,0.0888671875,-1.017333984375,0.03857421875,-1.6564885496183206,-0.29770992366412213,-0.3893129770992366
2.95,0.084716796875,-1.015380859375,0.047119140625,-1.6488549618320612,-0.04580152671755725,-0.42748091603053434
2.96,0.08642578125,-1.018310546875,0.045654296875,-1.618320610687023,-0.31297709923664124,-0.48091603053435117
2.97,0.08984375,-1.013916015625,0.045166015625,-1.6030534351145038,-0.22137404580152673,-0.4351145038167939
2.98,0.08837890625,-1.026611328125,0.03515625,-0.030534351145038167,-0.3435114503816794,-0.48854961832061067
2.99,0.092529296875,-1.015869140625,0.045166015625,-1.6793893129770991,-0.16793893129770993,-0.31297709923664124
3.0,0.095947265625,-1.019287109375,0.05126953125,-1.6717557251908397,-0.08396946564885496,-0.5114503816793893
3.01,0.0927734375,-1.01611328125,0.0517578125,-1.6793893129770991,-0.16793893129770993,-0.37404580152671757
3.02,0.10693359375,-1.02001953125,0.049560546875,-1.4274809160305344,-0.26717557251908397,-0.2824427480916031
3.03,0.093505859375,-1.01025390625,0.0458984375,-0.030534351145038167,-0.3053435114503817,-0.4198473282442748
3.04,0.095458984375,-1.01171875,0.044677734375,-1.6564885496183206,-0.2748091603053435,-0.48091603053435117
3.05,0.087646484375,-1.00439453125,0.0322265625,-1.6946564885496183,-0.183206106870229,-0.5954198473282443
3.06,0.092041015625,-1.0224609375,0.036376953125,-1.6030534351145038,-0.2824427480916031,-0.42748091603053434
3.07,0.088134765625,-1.0234375,0.04931640625,-1.6412213740458015,-0.03816793893129771,-0.31297709923664124
3.08,0.08837890625,-1.016357421875,0.051025390625,-1.7328244274809161,-0.2366412213740458,-0.5114503816793893
3.09,0.091796875,-1.022705078125,0.044677734375,-1.6946564885496183,-0.5190839694656488,-0.5190839694656488
3.1,0.0927734375,-1.010009765625,0.044189453125,-1.5954198473282444,-0.183206106870229,-0.42748091603053434
3.11,0.08154296875,-1.014892578125,0.03369140625,-1.717557251908397,-0.32061068702290074,-0.45038167938931295
3.12,0.0888671875,-1.029541015625,0.055908203125,-1.8702290076335877,-0.20610687022900764,-0.3969465648854962
3.13,0.088134765625,-1.01416015625,0.05322265625,-1.5877862595419847,-0.19083969465648856,-0.2824427480916031
3.14,0.08935546875,-1.01513671875,0.050537109375,-1.6106870229007633,-0.3969465648854962,-0.48091603053435117
3.15,0.093017578125,-1.0087890625,0.046142578125,-1.618320610687023,-0.22900763358778625,-0.3816793893129771
3.16,0.08544921875,-1.018798828125,0.0537109375,-1.6641221374045803,-0.40458015267175573,-0.3282442748091603
3.17,0.087890625,-1.014892578125,0.047607421875,-3.8625954198473282,-0.2900763358778626,-0.3053435114503817
3.18,0.091064453125,-1.01513671875,0.052001953125,-1.8244274809160306,-0.25190839694656486,-0.5801526717557252
3.19,0.079833984375,-1.005126953125,0.03662109375,-1.5648854961832062,-0.29770992366412213,-0.29770992366412213
3.2,0.087646484375,-1.015625,0.048583984375,-1.6259541984732824,-0.2595419847328244,-0.5725190839694656
3.21,0.094482421875,-1.0166015625,0.052734375,-1.6870229007633588,-0.030534351145038167,-0.44274809160305345
3.22,0.09033203125,-1.01318359375,0.041748046875,-1.6106870229007633,-0.3282442748091603,-0.42748091603053434
3.23,0.086181640625,-1.013427734375,0.05029296875,-1.7786259541984732,-0.40458015267175573,-0.35877862595419846
3.24,0.08740234375,-1.013916015625,0.04931640625,-1.6412213740458015,-0.31297709923664124,-0.366412213740458
3.25,0.107666015625,-1.01708984375,0.047119140625,-2.0610687022900764,-0.25190839694656486,-0.3816793893129771
3.26,0.088623046875,-1.011474609375,0.0478515625,-1.7251908396946565,-0.08396946564885496,-0.5190839694656488
3.27,0.08935546875,-1.01611328125,0.06201171875,-1.6870229007633588,-0.1450381679389313,-0.549618320610687
3.28,0.0947265625,-1.0185546875,0.053466796875,-1.5801526717557253,-0.22137404580152673,-0.5572519083969466
3.29,0.091796875,-1.01611328125,0.0537109375,-1.6793893129770991,-0.35877862595419846,-0.22900763358778625
3.3,0.0888671875,-1.0068359375,0.045654296875,-1.8244274809160306,-0.31297709923664124,-0.33587786259541985
3.31,0.0927734375,-1.019287109375,0.04248046875,-1.6412213740458015,-0.2900763358778626,-0.45038167938931295
3.32,0.08984375,-1.024169921875,0.04638671875,-1.717557251908397,-0.20610687022900764,-0.37404580152671757
3.33,0.083984375,-1.01806640625,0.06201171875,-1.4885496183206106,-0.3053435114503817,-0.3969465648854962
3.34,0.08837890625,-1.017822265625,0.051513671875,-1.702290076335878,-0.183206106870229,-0.33587786259541985
3.35,0.0888671875,-1.01513671875,0.0595703125,-1.5725190839694656,-0.16793893129770993,-0.3893129770992366
3.36,0.087158203125,-1.01318359375,0.043701171875,-1.6641221374045803,-0.13740458015267176,-0.4122137404580153
3.37,0.093017578125,-1.013427734375,0.049072265625,-1.7328244274809161,-0.3969465648854962,-0.22900763358778625
3.38,0.08544921875,-1.017578125,0.044189453125,-1.549618320610687,-0.3282442748091603,-0.31297709923664124
3.39,0.078125,-1.015869140625,0.047119140625,-1.7251908396946565,-0.16793893129770993,-0.46564885496183206
3.4,0.090576171875,-1.025390625,0.032958984375,-1.5954198473282444,-0.22900763358778625,-0.40458015267175573
3.41,0.091552734375,-1.02978515625,0.037109375,-1.549618320610687,-0.32061068702290074,-0.26717557251908397
3.42,0.0908203125,-1.017578125,0.0498046875,-1.633587786259542,-0.31297709923664124,-0.46564885496183206
3.43,0.0947265625,-1.017333984375,0.05078125,-1.7099236641221374,-0.12213740458015267,-0.366412213740458
3.44,0.09130859375,-1.010498046875,0.045654296875,-1.7328244274809161,-0.2748091603053435,-0.44274809160305345
3.45,0.08984375,-1.021484375,0.056396484375,-1.618320610687023,-0.2824427480916031,-0.3435114503816794
3.46,0.088134765625,-1.001708984375,0.05322265625,-1.6641221374045803,-0.35877862595419846,-0.44274809160305345
3.47,0.091552734375,-1.016357421875,0.053466796875,-1.5572519083969465,-0.2595419847328244,-0.26717557251908397
3.48,0.088623046875,-1.021484375,0.03125,-1.7251908396946565,-0.15267175572519084,-0.37404580152671757
3.49,0.09033203125,-1.018310546875,0.03564453125,-1.8091603053435115,-0.022900763358778626,-0.3969465648854962
3.5,0.087646484375,-1.012939453125,0.04443359375,-1.7709923664122138,-0.15267175572519084,-0.48854961832061067
3.51,0.087646484375,-1.01708984375,0.04931640625,-1.7404580152671756,-0.33587786259541985,-0.6259541984732825
3.52,0.0888671875,-1.02294921875,0.049560546875,-1.9312977099236641,-0.3435114503816794,-0.42748091603053434
3.53,0.0888671875,-1.017822265625,0.056396484375,-1.7099236641221374,-0.22900763358778625,-0.3816793893129771
3.54,0.086669921875,-1.0224609375,0.059814453125,-1.5648854961832062,-0.26717557251908397,-0.3969465648854962
3.55,0.0810546875,-1.013427734375,0.034423828125,-1.549618320610687,-0.15267175572519084,-0.5648854961832062
3.56,0.089599609375,-1.016357421875,0.05224609375,-1.8702290076335877,-0.183206106870229,-0.4580152671755725
3.57,0.087158203125,-1.015625,0.050048828125,-1.618320610687023,-0.4351145038167939,-0.35877862595419846
3.58,0.085205078125,-1.0087890625,0.047119140625,-1.702290076335878,-0.21374045801526717,-0.3435114503816794
3.59,0.088623046875,-1.019287109375,0.050048828125,-1.5801526717557253,-0.3435114503816794,-0.40458015267175573
3.6,0.10693359375,-1.015625,0.049072265625,-1.8015267175572518,-0.20610687022900764,-0.549618320610687
3.61,0.103759765625,-1.029052734375,0.04638671875,-1.534351145038168,-0.20610687022900764,-0.3435114503816794
3.62,0.080078125,-1.0166015625,0.03466796875,-1.786259541984733,-0.13740458015267176,-0.4732824427480916
3.63,0.09130859375,-1.02880859375,0.060791015625,-1.7786259541984732,-0.2824427480916031,-0.2366412213740458
3.64,0.09228515625,-1.013671875,0.04638671875,-1.6946564885496183,-0.22900763358778625,-0.4732824427480916
3.65,0.0869140625,-1.017578125,0.0458984375,-1.7557251908396947,-0.29770992366412213,-0.29770992366412213
3.66,0.088134765625,-1.0146484375,0.05615234375,-1.9236641221374047,-0.16030534351145037,-0.4351145038167939
3.67,0.091064453125,-1.012451171875,0.04931640625,-1.748091603053435,-0.32061068702290074,-0.4732824427480916
3.68,0.088623046875,-1.017822265625,0.0498046875,-1.6717557251908397,-0.183206106870229,-0.6412213740458015
3.69,0.08740234375,-1.004150390625,0.061767578125,-1.5190839694656488,-0.2366412213740458,-0.4732824427480916
3.7,0.093505859375,-1.0166015625,0.05078125,-1.8396946564885497,1.9465648854961832,-0.33587786259541985
3.71,0.086181640625,-1.015380859375,0.05419921875,-1.450381679389313,-0.12213740458015267,-0.4961832061068702
3.72,0.0869140625,-1.01513671875,0.048828125,-1.8091603053435115,-0.2595419847328244,-0.48091603053435117
3.73,0.086669921875,-1.017822265625,0.04736328125,-1.816793893129771,-0.366412213740458,-0.4351145038167939
3.74,0.078857421875,-1.013916015625,0.046142578125,-2.0763358778625953,-0.2595419847328244,-0.3816793893129771
3.75,0.090576171875,-1.01708984375,0.04638671875,-1.6641221374045803,-0.40458015267175573,-0.2748091603053435
3.76,0.092041015625,-1.000244140625,0.031494140625,-1.6106870229007633,-0.31297709923664124,-0.35877862595419846
3.77,0.089599609375,-1.012451171875,0.03369140625,-1.633587786259542,-0.2824427480916031,-0.4580152671755725
3.78,0.08984375,-1.013916015625,0.054931640625,-1.7557251908396947,-0.20610687022900764,-0.45038167938931295
3.79,0.08544921875,-1.01953125,0.048095703125,-1.4809160305343512,-0.2900763358778626,-0.4580152671755725
3.8,0.0849609375,-1.02001953125,0.046630859375,-1.6946564885496183,1.9389312977099236,-0.3282442748091603
3.81,0.09228515625,-1.021728515625,0.04931640625,-1.6412213740458015,-0.24427480916030533,-0.3511450381679389
3.82,0.087646484375,-1.029052734375,0.048095703125,-1.6030534351145038,-0.26717557251908397,-0.46564885496183206
3.83,0.08447265625,-1.005615234375,0.033203125,-1.786259541984733,-0.4198473282442748,-0.4351145038167939
3.84,0.08447265625,-1.018310546875,0.051513671875,-1.5190839694656488,-0.5267175572519084,-0.3282442748091603
3.85,0.09033203125,-1.01806640625,0.045654296875,-1.7251908396946565,-0.45038167938931295,-0.2824427480916031
3.86,0.09375,-1.010498046875,0.052490234375,-1.5648854961832062,-0.40458015267175573,-0.4122137404580153
3.87,0.091552734375,-1.0126953125,0.045654296875,-1.8015267175572518,-0.061068702290076333,-0.3816793893129771
3.88,0.087646484375,-1.015380859375,0.047119140625,-1.7786259541984732,-0.13740458015267176,-0.2824427480916031
3.89,0.0888671875,-1.01416015625,0.04736328125,-1.6793893129770991,-0.2595419847328244,-0.48854961832061067
3.9,0.09423828125,-1.00146484375,0.060791015625,-1.5267175572519085,-0.17557251908396945,-0.33587786259541985
3.91,0.090087890625,-1.031005859375,0.050537109375,-1.7557251908396947,-0.08396946564885496,-0.2595419847328244
3.92,0.091552734375,-1.017333984375,0.052490234375,-1.7709923664122138,-0.3053435114503817,-0.22137404580152673
3.93,0.09765625,-1.01806640625,0.040283203125,-1.7099236641221374,-0.29770992366412213,-0.2824427480916031
3.94,0.090576171875,-1.018798828125,0.048828125,-1.816793893129771,-0.16030534351145037,-0.549618320610687
3.95,0.100341796875,-1.01513671875,0.0419921875,-1.5267175572519085,-0.08396946564885496,-0.48091603053435117
3.96,0.09130859375,-1.0224609375,0.047607421875,-1.7709923664122138,-0.10687022900763359,-0.4198473282442748
3.97,0.091064453125,-1.002685546875,0.06103515625,-1.717557251908397,-0.29770992366412213,-0.29770992366412213
3.98,0.092529296875,-1.03125,0.04736328125,-1.9465648854961832,1.9236641221374047,-0.25190839694656486
3.99,0.0849609375,-1.013427734375,0.04833984375,-1.7709923664122138,-0.1984732824427481,-0.3053435114503817
4.0,0.08642578125,-1.02001953125,0.046875,-1.9236641221374047,-0.09923664122137404,-0.5572519083969466
4.01,0.093994140625,-1.01806640625,0.052978515625,-1.5725190839694656,-0.09923664122137404,-0.16793893129770993
4.02,0.092529296875,-1.015380859375,0.044189453125,-1.5267175572519085,-0.33587786259541985,-0.5267175572519084
4.03,0.08984375,-1.010009765625,0.0498046875,-1.6793893129770991,-0.15267175572519084,-0.32061068702290074
4.04,0.10693359375,-1.028076171875,0.03515625,-1.8091603053435115,-0.22137404580152673,-0.45038167938931295
4.05,0.09033203125,-1.028076171875,0.054931640625,-1.6946564885496183,-0.3893129770992366,-0.3282442748091603
4.06,0.087646484375,-1.014892578125,0.060791015625,-1.6412213740458015,-0.29770992366412213,-0.4198473282442748
4.07,0.085205078125,-1.02099609375,0.042724609375,-1.5419847328244274,-0.25190839694656486,-0.45038167938931295
4.08,0.095458984375,-1.018798828125,0.048828125,-1.7099236641221374,-0.2366412213740458,-0.3969465648854962
4.09,0.087158203125,-1.01708984375,0.0498046875,-2.0076335877862594,-0.3053435114503817,-0.5725190839694656
4.1,0.0888671875,-1.016845703125,0.045654296875,-1.5648854961832062,-0.3511450381679389,-0.3969465648854962
4.11,0.081298828125,-1.03125,0.03125,-1.8091603053435115,-0.183206106870229,-0.5267175572519084
4.12,0.0859375,-1.01708984375,0.054931640625,-1.7786259541984732,-0.16793893129770993,-0.42748091603053434
4.13,0.091064453125,-1.021240234375,0.046630859375,-1.6412213740458015,-0.10687022900763359,-0.40458015267175573
4.14,0.086669921875,-1.02880859375,0.04345703125,-1.7709923664122138,-0.1984732824427481,-0.3053435114503817
4.15,0.099609375,-1.015625,0.05224609375,-1.5801526717557253,-0.22137404580152673,-0.37404580152671757
4.16,0.085693359375,-1.014404296875,0.050048828125,-1.8473282442748091,-0.2595419847328244,-0.09923664122137404
4.17,0.09375,-1.027587890625,0.04736328125,-1.6946564885496183,-0.16793893129770993,-0.366412213740458
4.18,0.0869140625,-1.003662109375,0.05029296875,-1.6564885496183206,-0.183206106870229,-0.4198473282442748
4.19,0.090087890625,-1.015380859375,0.048095703125,-1.6793893129770991,-0.03816793893129771,-0.40458015267175573
4.2,0.093017578125,-1.008544921875,0.05126953125,-1.7633587786259541,-0.31297709923664124,-0.366412213740458
4.21,0.090576171875,-1.0166015625,0.046875,-1.6641221374045803,-0.17557251908396945,-0.29770992366412213
4.22,0.0849609375,-1.017578125,0.047119140625,-1.8854961832061068,-0.16793893129770993,-0.3511450381679389
4.23,0.09375,-1.021484375,0.048095703125,-1.717557251908397,-0.061068702290076333,-0.4198473282442748
4.24,0.1025390625,-1.01611328125,0.043701171875,-1.816793893129771,-0.19083969465648856,-0.3511450381679389
4.25,0.088134765625,-1.005859375,0.06005859375,-1.633587786259542,-0.16793893129770993,-0.25190839694656486
4.26,0.092529296875,-1.01904296875,0.0419921875,-1.6793893129770991,-0.1297709923664122,-0.3816793893129771
4.27,0.09619140625,-1.012939453125,0.03515625,-1.7557251908396947,-0.22137404580152673,-0.5038167938931297
4.28,0.0888671875,-1.023193359375,0.04541015625,-1.618320610687023,-0.366412213740458,-0.24427480916030533
4.29,0.0849609375,-1.015380859375,0.045166015625,-1.8396946564885497,-0.16793893129770993,-0.35877862595419846
4.3,0.090087890625,-1.01513671875,0.04736328125,-1.6259541984732824,-0.3282442748091603,-0.40458015267175573
4.31,0.086669921875,-1.018798828125,0.04052734375,-1.702290076335878,-0.33587786259541985,-0.2595419847328244
4.32,0.092041015625,-1.031005859375,0.0537109375,-1.7328244274809161,-0.1450381679389313,-0.3282442748091603
4.33,0.087890625,-1.01708984375,0.03857421875,-1.6717557251908397,-0.366412213740458,-0.4351145038167939
4.34,0.0859375,-1.002197265625,0.052978515625,-1.5725190839694656,-0.1450381679389313,-0.5114503816793893
4.35,0.08447265625,-1.020751953125,0.0390625,-1.5572519083969465,-0.09923664122137404,-0.5725190839694656
4.36,0.092529296875,-1.014892578125,0.0380859375,-1.8473282442748091,-0.3282442748091603,-0.3893129770992366
4.37,0.09326171875,-1.02197265625,0.04736328125,-1.7251908396946565,-0.24427480916030533,-0.2748091603053435
4.38,0.088134765625,-1.019775390625,0.046630859375,-1.5038167938931297,-0.05343511450381679,-0.4732824427480916
4.39,0.09033203125,-1.0126953125,0.046630859375,-1.7633587786259541,-0.22137404580152673,-0.4961832061068702
4.4,0.10791015625,-1.0283203125,0.041748046875,-1.5801526717557253,-0.33587786259541985,-0.549618320610687
4.41,0.087158203125,-1.030517578125,0.052734375,-1.6412213740458015,-0.04580152671755725,-0.2595419847328244
4.42,0.087890625,-1.02099609375,0.062255859375,-1.5419847328244274,-0.2595419847328244,-0.5190839694656488
4.43,0.08642578125,-1.01318359375,0.0517578125,-1.7404580152671756,-0.19083969465648856,-0.46564885496183206
4.44,0.091064453125,-1.02294921875,0.05517578125,-1.7557251908396947,-0.20610687022900764,-0.33587786259541985
4.45,0.088623046875,-1.014892578125,0.039306640625,-1.7328244274809161,-0.16030534351145037,-0.4351145038167939
4.46,0.087158203125,-1.003173828125,0.04736328125,-1.4961832061068703,-0.3282442748091603,-0.4961832061068702
4.47,0.078369140625,-1.028076171875,0.033203125,-1.6793893129770991,-0.2748091603053435,-0.4122137404580153
4.48,0.089599609375,-1.01220703125,0.034912109375,-1.6259541984732824,-0.06870229007633588,-0.31297709923664124
4.49,0.08935546875,-1.014404296875,0.057861328125,-1.6030534351145038,-0.3053435114503817,-0.32061068702290074
4.5,0.0888671875,-1.014404296875,0.046142578125,-1.7709923664122138,-0.11450381679389313,-0.366412213740458
4.51,0.086181640625,-1.022216796875,0.05078125,-1.900763358778626,-0.11450381679389313,-0.40458015267175573
4.52,0.0927734375,-1.019287109375,0.04736328125,-1.7328244274809161,-0.11450381679389313,-0.29770992366412213
4.53,0.100830078125,-1.016357421875,0.044921875,-1.4274809160305344,-0.19083969465648856,-0.5572519083969466
4.54,0.085693359375,-1.014404296875,0.05078125,-1.6793893129770991,-0.15267175572519084,-0.5419847328244275
4.55,0.0908203125,-1.02978515625,0.040771484375,-1.5419847328244274,-0.22900763358778625,-0.4351145038167939
4.56,0.094970703125,-1.01611328125,0.033203125,-1.3129770992366412,-0.4122137404580153,-0.4580152671755725
4.57,0.088134765625,-1.013916015625,0.05712890625,-1.717557251908397,-0.20610687022900764,-0.4961832061068702
4.58,0.083984375,-1.01611328125,0.045166015625,-1.6717557251908397,-0.3893129770992366,-0.29770992366412213
4.59,0.08642578125,-1.011474609375,0.046630859375,-1.7328244274809161,-0.2595419847328244,-0.5877862595419847
4.6,0.105712890625,-1.01416015625,0.056640625,-1.5419847328244274,-0.11450381679389313,-0.2366412213740458
4.61,0.091064453125,-1.02099609375,0.054443359375,-1.7557251908396947,-0.2366412213740458,-0.3893129770992366
4.62,0.090576171875,-1.014404296875,0.052490234375,-1.816793893129771,-0.4732824427480916,-0.5572519083969466
4.63,0.097412109375,-1.017578125,0.052490234375,-1.7099236641221374,-0.16030534351145037,-0.4580152671755725
4.64,0.090087890625,-1.018798828125,0.04833984375,-1.7404580152671756,-0.3435114503816794,-0.6183206106870229
4.65,0.08203125,-1.017333984375,0.048583984375,-1.633587786259542,-0.09923664122137404,-0.20610687022900764
4.66,0.09521484375,-1.014892578125,0.052490234375,-1.5190839694656488,1.916030534351145,-0.2366412213740458
4.67,0.107421875,-1.000732421875,0.05224609375,-1.786259541984733,-0.3435114503816794,-0.5801526717557252
4.68,0.088623046875,-1.0166015625,0.053466796875,-1.9083969465648856,-0.2900763358778626,-0.3969465648854962
4.69,0.0869140625,-1.022705078125,0.0595703125,-1.7251908396946565,-0.3893129770992366,-0.549618320610687
4.7,0.086181640625,-1.01904296875,0.0439453125,-1.6717557251908397,-0.3282442748091603,-0.4580152671755725
4.71,0.092041015625,-1.01220703125,0.049560546875,-1.717557251908397,-0.2748091603053435,-0.45038167938931295
4.72,0.08544921875,-1.017578125,0.051025390625,-1.6793893129770991,-0.3969465648854962,-0.5190839694656488
4.73,0.086181640625,-1.018798828125,0.05126953125,-1.7404580152671756,-0.183206106870229,-0.37404580152671757
4.74,0.087646484375,-1.002197265625,0.05078125,-1.816793893129771,-0.2824427480916031,-0.3435114503816794
4.75,0.093505859375,-1.0009765625,0.044189453125,-1.5038167938931297,-0.25190839694656486,-0.3282442748091603
4.76,0.10888671875,-1.01708984375,0.05908203125,-1.786259541984733,-0.2824427480916031,-0.46564885496183206
4.77,0.090576171875,-1.027587890625,0.0478515625,-1.8931297709923665,-0.09923664122137404,-0.5038167938931297
4.78,0.089599609375,-1.016845703125,0.049072265625,-1.6030534351145038,-0.33587786259541985,-0.25190839694656486
4.79,0.093505859375,-1.018798828125,0.049560546875,-1.8396946564885497,-0.3511450381679389,-0.3282442748091603
4.8,0.087646484375,-1.0078125,0.0498046875,-1.6946564885496183,-0.2366412213740458,-0.5267175572519084
4.81,0.08837890625,-1.020751953125,0.04443359375,-1.7251908396946565,-0.22137404580152673,-0.35877862595419846
4.82,0.0927734375,-1.021484375,0.06103515625,-1.748091603053435,-0.1450381679389313,-0.21374045801526717
4.83,0.0908203125,-1.000732421875,0.038818359375,-1.8015267175572518,-0.2900763358778626,-0.2748091603053435
4.84,0.09130859375,-1.021240234375,0.037353515625,-1.786259541984733,-0.25190839694656486,-0.4122137404580153
4.85,0.09326171875,-1.013916015625,0.051025390625,-1.7099236641221374,-0.05343511450381679,-0.35877862595419846
4.86,0.093017578125,-1.015625,0.04833984375,-1.9083969465648856,-0.19083969465648856,-0.3816793893129771
4.87,0.0927734375,-1.01611328125,0.0419921875,-1.5954198473282444,-0.2900763358778626,-0.37404580152671757
4.88,0.088134765625,-1.027099609375,0.035888671875,-1.5954198473282444,-0.11450381679389313,-0.32061068702290074
4.89,0.08349609375,-1.01220703125,0.03271484375,-1.8778625954198473,-0.0916030534351145,-0.46564885496183206
4.9,0.09033203125,-1.0009765625,0.05224609375,-1.748091603053435,-0.3282442748091603,-0.6106870229007634
4.91,0.09423828125,-1.01708984375,0.03369140625,-1.5419847328244274,-0.26717557251908397,-0.3435114503816794
4.92,0.0966796875,-1.022216796875,0.052734375,-1.549618320610687,-0.1297709923664122,-0.42748091603053434
4.93,0.088623046875,-1.017333984375,0.05517578125,-1.5038167938931297,-0.3511450381679389,-0.3969465648854962
4.94,0.0869140625,-1.0166015625,0.052001953125,-1.7709923664122138,-0.3893129770992366,-0.3282442748091603
4.95,0.089599609375,-1.0166015625,0.04345703125,-1.702290076335878,-0.09923664122137404,-0.4961832061068702
4.96,0.09375,-1.003173828125,0.048583984375,-1.5190839694656488,-0.16793893129770993,-0.46564885496183206
4.97,0.084716796875,-1.01220703125,0.053466796875,-1.8396946564885497,-0.2595419847328244,-0.35877862595419846
4.98,0.08447265625,-1.01708984375,0.0478515625,-1.6412213740458015,-0.3282442748091603,-0.40458015267175573
4.99,0.087890625,-1.01171875,0.05078125,-1.5954198473282444,-0.25190839694656486,-0.46564885496183206
5.0,0.08935546875,-1.011962890625,0.04638671875,-1.7786259541984732,-0.31297709923664124,-0.4198473282442748
5.01,0.090576171875,-1.017822265625,0.04345703125,-1.7709923664122138,-0.4580152671755725,-0.5343511450381679
5.02,0.1083984375,-1.013671875,0.054931640625,-1.6564885496183206,-0.4122137404580153,-0.44274809160305345
5.03,0.087890625,-1.01611328125,0.044677734375,-1.5725190839694656,-0.20610687022900764,-0.2595419847328244
5.04,0.0927734375,-1.029296875,0.039306640625,-1.7328244274809161,-0.35877862595419846,-0.6183206106870229
5.05,0.088134765625,-1.015625,0.050048828125,-1.5572519083969465,-0.25190839694656486,-0.31297709923664124
5.06,0.084228515625,-1.012939453125,0.053955078125,-1.5038167938931297,1.8473282442748091,-0.4198473282442748
5.07,0.090576171875,-1.01171875,0.053955078125,-1.6488549618320612,-0.26717557251908397,-0.37404580152671757
5.08,0.090087890625,-1.0146484375,0.048095703125,-1.633587786259542,-0.03816793893129771,-0.3816793893129771
5.09,0.10791015625,-1.015380859375,0.047607421875,-1.5267175572519085,-0.21374045801526717,-0.26717557251908397
5.1,0.078125,-1.027099609375,0.0322265625,-1.6717557251908397,-0.3435114503816794,-0.37404580152671757
5.11,0.089599609375,-1.01708984375,0.050537109375,-1.7709923664122138,-0.33587786259541985,-0.2748091603053435
5.12,0.090087890625,-1.018310546875,0.044189453125,-1.6488549618320612,-0.183206106870229,-0.45038167938931295
5.13,0.091552734375,-1.01708984375,0.052734375,-1.5954198473282444,-0.3816793893129771,-0.4580152671755725
5.14,0.091796875,-1.02099609375,0.045654296875,-1.6641221374045803,-0.40458015267175573,-0.3969465648854962
5.15,0.088134765625,-1.015869140625,0.05078125,-1.6412213740458015,-0.2366412213740458,-0.2366412213740458
5.16,0.089599609375,-1.01220703125,0.05859375,-1.786259541984733,-0.3282442748091603,-0.5572519083969466
5.17,0.096923828125,-1.011962890625,0.054931640625,-1.5648854961832062,-1.900763358778626,-0.32061068702290074
5.18,0.09130859375,-1.030517578125,0.0341796875,-1.6412213740458015,-0.2900763358778626,-0.5038167938931297
5.19,0.089111328125,-1.0146484375,0.048828125,-1.748091603053435,-0.2900763358778626,-0.3816793893129771
5.2,0.0830078125,-1.0185546875,0.044189453125,-1.9083969465648856,-0.24427480916030533,-0.3511450381679389
5.21,0.091552734375,-1.01953125,0.05126953125,-1.6946564885496183,-0.16030534351145037,-0.3435114503816794
5.22,0.086669921875,-1.01806640625,0.044189453125,-1.7099236641221374,-0.2900763358778626,-0.4351145038167939
5.23,0.08642578125,-1.018798828125,0.050537109375,-1.618320610687023,-0.183206106870229,-0.549618320610687
5.24,0.09228515625,-1.001953125,0.044189453125,-1.5801526717557253,-0.17557251908396945,-0.44274809160305345
5.25,0.09130859375,-1.00244140625,0.033203125,-1.5572519083969465,-0.25190839694656486,-0.2748091603053435
5.26,0.0849609375,-1.021728515625,0.051513671875,-1.7633587786259541,-0.2824427480916031,-0.3282442748091603
5.27,0.0888671875,-1.018798828125,0.044677734375,-1.450381679389313,-0.29770992366412213,-0.4122137404580153
5.28,0.087646484375,-1.01806640625,0.050048828125,-1.702290076335878,-0.25190839694656486,-0.4198473282442748
5.29,0.084228515625,-1.0166015625,0.044189453125,-1.786259541984733,-0.2900763358778626,-0.5190839694656488
5.3,0.088623046875,-1.0146484375,0.043212890625,-1.717557251908397,-0.29770992366412213,-0.35877862595419846
5.31,0.091552734375,-1.017333984375,0.051513671875,-1.7938931297709924,-0.12213740458015267,-0.3282442748091603
5.32,0.088623046875,-1.00341796875,0.048583984375,-1.633587786259542,-0.33587786259541985,-0.5267175572519084
5.33,0.095458984375,-1.0302734375,0.061767578125,-1.748091603053435,0.061068702290076333,-0.5114503816793893
5.34,0.085693359375,-1.016357421875,0.05126953125,-1.6870229007633588,-0.183206106870229,-0.3893129770992366
5.35,0.090087890625,-1.018798828125,0.052734375,-1.900763358778626,-0.16030534351145037,-0.4351145038167939
5.36,0.089599609375,-1.0146484375,0.052734375,-1.6870229007633588,-0.1450381679389313,-0.44274809160305345
5.37,0.08935546875,-1.015380859375,0.048583984375,-1.9312977099236641,-0.29770992366412213,-0.5190839694656488
5.38,0.092529296875,-1.01416015625,0.051513671875,-1.5954198473282444,-0.17557251908396945,-0.45038167938931295
5.39,0.08984375,-1.000732421875,0.057861328125,-1.8244274809160306,-0.31297709923664124,-0.33587786259541985
5.4,0.09228515625,-1.00439453125,0.052734375,-1.7786259541984732,-0.31297709923664124,-0.2595419847328244
5.41,0.08837890625,-1.013671875,0.03271484375,-1.816793893129771,-0.2748091603053435,-0.5572519083969466
5.42,0.08984375,-1.02099609375,0.05029296875,-1.5801526717557253,-0.32061068702290074,-0.6641221374045801
5.43,0.0869140625,-1.012451171875,0.051513671875,-1.816793893129771,-0.22900763358778625,-0.5648854961832062
5.44,0.088134765625,-1.015869140625,0.04638671875,-1.9083969465648856,-0.33587786259541985,-0.37404580152671757
5.45,0.09033203125,-1.00927734375,0.050537109375,-1.7404580152671756,-0.25190839694656486,-0.33587786259541985
5.46,0.083984375,-1.017578125,0.05908203125,-1.7328244274809161,-0.16030534351145037,-0.5419847328244275
5.47,0.084716796875,-1.001220703125,0.04931640625,-1.786259541984733,-0.2824427480916031,-0.33587786259541985
5.48,0.09130859375,-1.02294921875,0.059814453125,-1.6030534351145038,-1.9083969465648856,-0.42748091603053434
5.49,0.0947265625,-1.023193359375,0.039794921875,-1.6564885496183206,-0.16030534351145037,-0.29770992366412213
5.5,0.0908203125,-1.015869140625,0.05029296875,-1.7786259541984732,-0.2748091603053435,-0.31297709923664124
5.51,0.097412109375,-1.0126953125,0.04638671875,-1.5648854961832062,-0.015267175572519083,-0.366412213740458
5.52,0.107421875,-1.03076171875,0.052978515625,-1.5877862595419847,-0.24427480916030533,-0.3511450381679389
5.53,0.08837890625,-1.0009765625,0.059326171875,-1.7633587786259541,-0.10687022900763359,-0.2595419847328244
5.54,0.091796875,-1.03076171875,0.05224609375,-1.6870229007633588,-0.4198473282442748,-0.40458015267175573
5.55,0.093505859375,-1.0009765625,0.052490234375,-1.5648854961832062,-0.2595419847328244,-0.45038167938931295
5.56,0.087646484375,-1.017822265625,0.037353515625,-1.717557251908397,-0.32061068702290074,-0.48091603053435117
5.57,0.09326171875,-1.020263671875,0.049560546875,-1.9083969465648856,-0.19083969465648856,-0.37404580152671757
5.58,0.094482421875,-1.014892578125,0.050048828125,-1.83206106870229,-0.0916030534351145,-0.4580152671755725
5.59,0.085693359375,-1.000244140625,0.04443359375,-1.9236641221374047,-0.1450381679389313,-0.29770992366412213
5.6,0.078125,-1.01904296875,0.04931640625,-1.7404580152671756,-0.42748091603053434,-0.3435114503816794
5.61,0.088623046875,-1.01611328125,0.05029296875,-1.6717557251908397,-0.2900763358778626,-0.24427480916030533
5.62,0.087646484375,-1.013671875,0.058837890625,-1.5114503816793894,-0.3053435114503817,-0.2748091603053435
5.63,0.09423828125,-1.010986328125,0.041015625,-1.5954198473282444,-0.16030534351145037,-0.2595419847328244
5.64,0.091796875,-1.018310546875,0.052001953125,-1.7328244274809161,-0.16793893129770993,-0.4351145038167939
5.65,0.085693359375,-1.016357421875,0.05224609375,-1.786259541984733,-0.022900763358778626,-0.4580152671755725
5.66,0.092041015625,-1.012939453125,0.050537109375,-1.6946564885496183,-0.1297709923664122,-0.5648854961832062
5.67,0.09033203125,-1.028076171875,0.056396484375,-1.9083969465648856,-0.21374045801526717,-0.31297709923664124
5.68,0.088623046875,-1.00048828125,0.0546875,-1.8091603053435115,-0.2366412213740458,-0.4351145038167939
5.69,0.08984375,-1.009033203125,0.051025390625,-1.6488549618320612,-0.10687022900763359,-0.5343511450381679
5.7,0.086181640625,-1.014892578125,0.054931640625,-1.5725190839694656,-0.3969465648854962,-0.42748091603053434
5.71,0.088134765625,-1.01513671875,0.04931640625,-1.5954198473282444,-0.19083969465648856,-0.6793893129770993
5.72,0.086181640625,-1.015380859375,0.04638671875,-1.6641221374045803,-0.33587786259541985,-0.32061068702290074
5.73,0.091552734375,-1.01416015625,0.04248046875,-1.633587786259542,-0.29770992366412213,-0.3969465648854962
5.74,0.09423828125,-1.027587890625,0.03515625,-1.8702290076335877,-0.31297709923664124,-0.6259541984732825
5.75,0.0908203125,-1.00341796875,0.050048828125,-1.816793893129771,-0.2366412213740458,-0.5267175572519084
5.76,0.091796875,-1.02197265625,0.0478515625,-1.8015267175572518,1.9389312977099236,-0.26717557251908397
5.77,0.0947265625,-1.013427734375,0.0498046875,-1.6488549618320612,-0.05343511450381679,-0.3893129770992366
5.78,0.086669921875,-1.016357421875,0.048095703125,-1.5954198473282444,-0.11450381679389313,-0.45038167938931295
5.79,0.0927734375,-1.01416015625,0.04736328125,-1.8625954198473282,0.061068702290076333,-0.2595419847328244
5.8,0.0927734375,-1.015625,0.0517578125,-1.6870229007633588,-0.20610687022900764,-0.45038167938931295
5.81,0.08642578125,-1.02783203125,0.044189453125,-1.6488549618320612,-0.2900763358778626,-0.16793893129770993
5.82,0.080078125,-1.01416015625,0.03173828125,-1.618320610687023,-0.1450381679389313,-0.3435114503816794
5.83,0.094482421875,-1.02685546875,0.048583984375,-1.6488549618320612,-0.29770992366412213,-0.3893129770992366
5.84,0.08740234375,-1.01806640625,0.05126953125,-1.7557251908396947,-0.2748091603053435,-0.5572519083969466
5.85,0.08984375,-1.0205078125,0.053466796875,-1.6946564885496183,-0.31297709923664124,-0.3435114503816794
5.86,0.08984375,-1.0166015625,0.049072265625,-1.633587786259542,-0.08396946564885496,-0.4198473282442748
5.87,0.103271484375,-1.01513671875,0.05419921875,-1.6030534351145038,-0.16793893129770993,-0.46564885496183206
5.88,0.088134765625,-1.01953125,0.05126953125,-1.6717557251908397,-0.10687022900763359,-0.40458015267175573
5.89,0.078369140625,-1.017822265625,0.04345703125,-1.8473282442748091,-0.16030534351145037,-0.3893129770992366
5.9,0.090087890625,-1.012451171875,0.0380859375,-1.7251908396946565,-0.08396946564885496,-0.2595419847328244
5.91,0.090576171875,-1.01953125,0.03564453125,-1.6106870229007633,-0.1450381679389313,-0.44274809160305345
5.92,0.08740234375,-1.01904296875,0.05712890625,-1.5038167938931297,-0.015267175572519083,-0.48854961832061067
5.93,0.08935546875,-1.012939453125,0.048828125,-1.7404580152671756,-0.32061068702290074,-0.4198473282442748
5.94,0.091552734375,-1.017333984375,0.05029296875,-1.7251908396946565,-0.3435114503816794,-0.4580152671755725
5.95,0.091796875,-1.011474609375,0.05224609375,-1.6259541984732824,-0.32061068702290074,-0.5648854961832062
5.96,0.09130859375,-1.01220703125,0.033203125,-1.6106870229007633,-0.4122137404580153,-0.46564885496183206
5.97,0.078857421875,-1.015625,0.045654296875,-1.6870229007633588,-0.26717557251908397,-0.4961832061068702
5.98,0.088623046875,-1.012939453125,0.044921875,-1.5267175572519085,-0.15267175572519084,-0.5343511450381679
5.99,0.095458984375,-1.01611328125,0.045166015625,-1.6488549618320612,-0.2900763358778626,-0.4580152671755725
6.0,0.09130859375,-1.011474609375,0.0556640625,-1.7557251908396947,-0.2824427480916031,-0.2900763358778626
6.01,0.080810546875,-1.013671875,0.04736328125,-1.7099236641221374,-0.21374045801526717,-0.37404580152671757
6.02,0.108642578125,-1.0185546875,0.054443359375,-1.618320610687023,-0.04580152671755725,-0.4198473282442748
6.03,0.087158203125,-1.012451171875,0.05419921875,-1.7557251908396947,-0.26717557251908397,-0.33587786259541985
6.04,0.093994140625,-1.009033203125,0.046142578125,-1.6106870229007633,-0.29770992366412213,-0.5419847328244275
6.05,0.09130859375,-1.008056640625,0.048828125,-1.7404580152671756,-0.2824427480916031,-0.4351145038167939
6.06,0.09326171875,-1.013671875,0.053466796875,-1.6717557251908397,-0.33587786259541985,-0.48854961832061067
6.07,0.0869140625,-1.013671875,0.055908203125,-1.6564885496183206,-0.07633587786259542,-0.42748091603053434
6.08,0.09130859375,-1.021484375,0.04150390625,-1.7709923664122138,-0.1984732824427481,-0.48091603053435117
6.09,0.08935546875,-1.0166015625,0.05712890625,-1.4732824427480915,-0.42748091603053434,-0.4198473282442748
6.1,0.09033203125,-1.01416015625,0.05078125,-1.6106870229007633,-0.3893129770992366,-0.5190839694656488
6.11,0.085693359375,-1.02978515625,0.047119140625,-1.6259541984732824,-0.33587786259541985,-0.4351145038167939
6.12,0.09375,-1.014892578125,0.034912109375,-1.7557251908396947,-0.10687022900763359,-0.45038167938931295
6.13,0.09033203125,-1.021484375,0.043701171875,-1.6564885496183206,-0.45038167938931295,-0.5572519083969466
6.14,0.093505859375,-1.0166015625,0.05224609375,-1.4427480916030535,-0.3282442748091603,-0.3816793893129771
6.15,0.08642578125,-1.017333984375,0.04736328125,-1.6641221374045803,-0.366412213740458,-0.48854961832061067
6.16,0.087158203125,-1.01953125,0.046875,-1.6412213740458015,-0.29770992366412213,-0.4198473282442748
6.17,0.078125,-1.01513671875,0.059814453125,-1.748091603053435,-0.3435114503816794,-0.4580152671755725
6.18,0.0888671875,-1.013916015625,0.049560546875,-1.7404580152671756,-0.1297709923664122,-0.3282442748091603
6.19,0.08984375,-1.018310546875,0.06005859375,-1.633587786259542,-0.2824427480916031,-0.35877862595419846
6.2,0.087646484375,-1.022705078125,0.051513671875,-1.748091603053435,-0.13740458015267176,-0.42748091603053434
6.21,0.091064453125,-1.013427734375,0.05810546875,-1.6793893129770991,-0.3053435114503817,-0.46564885496183206
6.22,0.092529296875,-1.01708984375,0.057373046875,-1.6870229007633588,-0.40458015267175573,-0.31297709923664124
6.23,0.08935546875,-1.015380859375,0.0498046875,-1.7404580152671756,-0.2900763358778626,-0.25190839694656486
6.24,0.089599609375,-1.00830078125,0.044677734375,-1.5648854961832062,-0.3053435114503817,-0.46564885496183206
6.25,0.080810546875,-1.024658203125,0.050537109375,-1.7633587786259541,-0.22137404580152673,-0.2748091603053435
6.26,0.09375,-1.0166015625,0.04833984375,-1.7404580152671756,-0.16030534351145037,-0.5419847328244275
6.27,0.092041015625,-1.012451171875,0.04736328125,-1.8702290076335877,-0.19083969465648856,-0.40458015267175573
6.28,0.0908203125,-1.019287109375,0.05810546875,-1.7557251908396947,-0.22137404580152673,-0.366412213740458
6.29,0.08984375,-1.02099609375,0.04443359375,-1.6106870229007633,-0.2824427480916031,-0.4961832061068702
6.3,0.0888671875,-1.005859375,0.03564453125,-1.8015267175572518,-0.16793893129770993,-0.5267175572519084
6.31,0.087646484375,-1.000244140625,0.057861328125,-1.5954198473282444,-0.2366412213740458,-0.3893129770992366
6.32,0.091552734375,-1.0283203125,0.045654296875,-1.5954198473282444,-0.21374045801526717,-0.3893129770992366
6.33,0.08740234375,-1.01171875,0.053955078125,-1.717557251908397,-0.3053435114503817,-0.3511450381679389
6.34,0.08984375,-1.013671875,0.048095703125,-1.6564885496183206,-0.3816793893129771,-0.3511450381679389
6.35,0.092529296875,-1.0166015625,0.0576171875,-1.900763358778626,-0.13740458015267176,-0.3893129770992366
6.36,0.0966796875,-1.01904296875,0.045654296875,-1.6030534351145038,-0.2366412213740458,-0.2366412213740458
6.37,0.090576171875,-1.015380859375,0.041015625,-1.4580152671755726,-0.21374045801526717,-0.4732824427480916
6.38,0.07958984375,-1.012451171875,0.032958984375,-1.7709923664122138,-0.22137404580152673,-0.35877862595419846
6.39,0.10693359375,-1.0185546875,0.04296875,-1.5877862595419847,-0.3511450381679389,-0.31297709923664124
6.4,0.09130859375,-1.02734375,0.03173828125,-1.534351145038168,-0.16793893129770993,-0.35877862595419846
6.41,0.091796875,-1.020751953125,0.056640625,-1.8396946564885497,-0.1450381679389313,-0.4580152671755725
6.42,0.09228515625,-1.01806640625,0.042236328125,-1.7328244274809161,-0.1450381679389313,-0.46564885496183206
6.43,0.093505859375,-1.01904296875,0.052734375,-1.5725190839694656,-0.10687022900763359,-0.5114503816793893
6.44,0.08740234375,-1.0126953125,0.046875,-1.83206106870229,-0.1450381679389313,-0.40458015267175573
6.45,0.1025390625,-1.026611328125,0.045654296875,-1.6106870229007633,-0.13740458015267176,-0.3053435114503817
6.46,0.106689453125,-1.018798828125,0.05517578125,-1.8549618320610688,-0.1297709923664122,-0.6183206106870229
6.47,0.091796875,-1.028564453125,0.0322265625,-1.6870229007633588,-0.4580152671755725,-0.4732824427480916
6.48,0.089111328125,-1.0234375,0.042236328125,-1.6259541984732824,-0.16030534351145037,-0.5038167938931297
6.49,0.0908203125,-1.01220703125,0.0458984375,-1.5954198473282444,-0.0916030534351145,-0.31297709923664124
6.5,0.085693359375,-1.0146484375,0.055419921875,-1.6030534351145038,-0.03816793893129771,-0.4732824427480916
6.51,0.092041015625,-1.02099609375,0.048095703125,-1.4427480916030535,-0.0916030534351145,-0.42748091603053434
6.52,0.102783203125,-1.019287109375,0.045654296875,-1.8015267175572518,-0.3435114503816794,-0.3053435114503817
6.53,0.093505859375,-1.017578125,0.06005859375,-0.030534351145038167,-0.2900763358778626,-0.3893129770992366
6.54,0.09033203125,-1.015869140625,0.031982421875,-1.549618320610687,-0.29770992366412213,-0.4122137404580153
6.55,0.08642578125,-1.01806640625,0.0390625,-1.6564885496183206,-0.2366412213740458,-0.3435114503816794
6.56,0.093017578125,-1.014404296875,0.048828125,-1.5954198473282444,-0.15267175572519084,-0.6335877862595419
6.57,0.087646484375,-1.012939453125,0.043212890625,-1.717557251908397,-0.3282442748091603,-0.35877862595419846
6.58,0.0908203125,-1.018310546875,0.0478515625,-1.5877862595419847,-0.2595419847328244,-0.3511450381679389
6.59,0.085693359375,-1.004638671875,0.052490234375,-1.633587786259542,-0.1984732824427481,-0.45038167938931295
6.6,0.079833984375,-1.0166015625,0.04345703125,-1.7099236641221374,-0.061068702290076333,-0.48854961832061067
6.61,0.088623046875,-1.001220703125,0.052001953125,-1.7099236641221374,-0.3816793893129771,-0.4122137404580153
6.62,0.096923828125,-1.02099609375,0.04833984375,-1.7633587786259541,-0.15267175572519084,-0.40458015267175573
6.63,0.0947265625,-1.012939453125,0.04345703125,-1.8702290076335877,-0.2900763358778626,-0.37404580152671757
6.64,0.092041015625,-1.015625,0.044677734375,-1.8091603053435115,-0.1984732824427481,-0.6106870229007634
6.65,0.093994140625,-1.014404296875,0.050537109375,-1.5648854961832062,0.16793893129770993,-0.29770992366412213
6.66,0.078369140625,-1.002685546875,0.04833984375,-1.5877862595419847,-0.2900763358778626,-0.2824427480916031
6.67,0.099853515625,-1.03076171875,0.05029296875,-1.6793893129770991,-0.22900763358778625,-0.3282442748091603
6.68,0.092041015625,-1.02099609375,0.04345703125,-1.786259541984733,-0.1984732824427481,-0.48854961832061067
6.69,0.0859375,-1.01708984375,0.061279296875,-1.8015267175572518,-0.2824427480916031,-0.42748091603053434
6.7,0.092529296875,-1.01953125,0.05078125,-1.5725190839694656,-0.32061068702290074,-0.3435114503816794
6.71,0.093017578125,-1.017578125,0.043701171875,-1.6488549618320612,-0.2748091603053435,-0.5190839694656488
6.72,0.091796875,-1.017578125,0.046875,-1.6946564885496183,-0.07633587786259542,-0.48854961832061067
6.73,0.083740234375,-1.017822265625,0.045654296875,-1.5877862595419847,-0.2900763358778626,-0.40458015267175573
6.74,0.090087890625,-1.016357421875,0.03955078125,-1.7328244274809161,-0.26717557251908397,-0.24427480916030533
6.75,0.09814453125,-1.019287109375,0.03125,-1.7938931297709924,-0.08396946564885496,-0.3435114503816794
6.76,0.093017578125,-1.020751953125,0.056884765625,-1.7099236641221374,0.0916030534351145,-0.40458015267175573
6.77,0.0927734375,-1.01708984375,0.043212890625,-1.5954198473282444,-0.1984732824427481,-0.45038167938931295
6.78,0.08740234375,-1.021728515625,0.0546875,-1.7251908396946565,-0.2595419847328244,-0.4732824427480916
6.79,0.0927734375,-1.0185546875,0.047119140625,-1.6106870229007633,-0.3053435114503817,-0.6106870229007634
6.8,0.09130859375,-1.013671875,0.04833984375,-1.6946564885496183,-0.17557251908396945,-0.549618320610687
6.81,0.087890625,-1.000244140625,0.0341796875,-1.8091603053435115,-0.13740458015267176,-0.4351145038167939
6.82,0.091552734375,-1.003173828125,0.06201171875,-1.633587786259542,-0.2824427480916031,-0.3893129770992366
6.83,0.09228515625,-1.014404296875,0.05126953125,-1.6030534351145038,-0.4198473282442748,-0.32061068702290074
6.84,0.08349609375,-1.01220703125,0.0537109375,-1.8473282442748091,-0.25190839694656486,-0.48091603053435117
6.85,0.086669921875,-1.015869140625,0.052490234375,-1.6488549618320612,-0.37404580152671757,-0.6793893129770993
6.86,0.084716796875,-1.0087890625,0.035400390625,-1.6412213740458015,-0.3435114503816794,-0.33587786259541985
6.87,0.083740234375,-1.0009765625,0.045654296875,-1.5801526717557253,-0.2366412213740458,-0.22900763358778625
6.88,0.091796875,-1.02734375,0.05126953125,-1.6259541984732824,-0.3282442748091603,-0.3816793893129771
6.89,0.0927734375,-1.015625,0.04052734375,-1.702290076335878,-0.17557251908396945,-0.40458015267175573
6.9,0.092041015625,-1.01611328125,0.032470703125,-1.1908396946564885,0.007633587786259542,-0.4580152671755725
6.91,0.088134765625,-1.0166015625,0.056396484375,-1.7709923664122138,-0.17557251908396945,-0.5038167938931297
6.92,0.090576171875,-1.015380859375,0.041259765625,-1.6946564885496183,-0.13740458015267176,-0.3969465648854962
6.93,0.08642578125,-1.017578125,0.05517578125,-1.4580152671755726,-0.33587786259541985,-0.5572519083969466
6.94,0.092041015625,-1.016357421875,0.053466796875,-1.9083969465648856,-0.3969465648854962,-0.3969465648854962
6.95,0.083984375,-1.017578125,0.042236328125,-1.5801526717557253,-0.4580152671755725,-0.3969465648854962
6.96,0.086669921875,-1.00341796875,0.0322265625,-1.7633587786259541,-0.25190839694656486,-0.35877862595419846
6.97,0.085205078125,-1.009033203125,0.040283203125,-1.8015267175572518,-0.05343511450381679,-0.3893129770992366
6.98,0.0888671875,-1.01611328125,0.050537109375,-1.4198473282442747,-0.26717557251908397,-0.4351145038167939
6.99,0.085205078125,-1.016845703125,0.049072265625,-1.6564885496183206,-0.24427480916030533,-0.37404580152671757
7.0,0.095947265625,-1.01513671875,0.04150390625,-1.83206106870229,-0.09923664122137404,-0.46564885496183206
7.01,0.07861328125,-1.018798828125,0.04736328125,-1.6488549618320612,-0.31297709923664124,-0.45038167938931295
7.02,0.10888671875,-1.016357421875,0.04931640625,-1.83206106870229,-0.46564885496183206,-0.26717557251908397
7.03,0.0859375,-1.002685546875,0.050537109375,-1.8473282442748091,-0.2900763358778626,-0.3053435114503817
7.04,0.0888671875,-1.016845703125,0.04296875,-1.6793893129770991,-0.2595419847328244,-0.4198473282442748
7.05,0.094970703125,-1.0166015625,0.052978515625,-1.549618320610687,-0.29770992366412213,-0.45038167938931295
7.06,0.08837890625,-1.016845703125,0.045166015625,-1.6488549618320612,-0.15267175572519084,-0.45038167938931295
7.07,0.08544921875,-1.017578125,0.0478515625,-1.7404580152671756,-0.1297709923664122,-0.46564885496183206
7.08,0.089111328125,-1.015625,0.042724609375,-1.5725190839694656,-0.31297709923664124,-0.366412213740458
7.09,0.085205078125,-1.00830078125,0.054443359375,-1.6946564885496183,-0.09923664122137404,-0.33587786259541985
7.1,0.103759765625,-1.00390625,0.049072265625,-1.6488549618320612,-0.22137404580152673,-0.32061068702290074
7.11,0.09619140625,-1.023681640625,0.0546875,-1.5725190839694656,-0.16030534351145037,-0.2748091603053435
7.12,0.0927734375,-1.012451171875,0.05419921875,-1.816793893129771,-0.17557251908396945,-0.4198473282442748
7.13,0.091552734375,-1.018310546875,0.04638671875,-1.9236641221374047,-0.16793893129770993,-0.4198473282442748
7.14,0.0908203125,-1.016357421875,0.04736328125,-1.7709923664122138,-0.08396946564885496,-0.42748091603053434
7.15,0.085693359375,-1.021728515625,0.04248046875,-1.786259541984733,-0.183206106870229,-0.3053435114503817
7.16,0.088623046875,-1.01806640625,0.05126953125,-1.6793893129770991,-0.24427480916030533,-0.35877862595419846
7.17,0.09033203125,-1.00048828125,0.036865234375,-0.06870229007633588,-0.2366412213740458,-0.3893129770992366
7.18,0.093505859375,-1.03125,0.052001953125,-1.4809160305343512,-0.17557251908396945,-0.4122137404580153
7.19,0.08935546875,-1.015380859375,0.044677734375,-1.6793893129770991,-0.31297709923664124,-0.45038167938931295
7.2,0.086181640625,-1.0166015625,0.045166015625,-1.5801526717557253,-0.40458015267175573,-0.2595419847328244
7.21,0.091552734375,-1.012939453125,0.048095703125,-1.786259541984733,-0.10687022900763359,-0.3511450381679389
7.22,0.107177734375,-1.015869140625,0.04736328125,-1.5801526717557253,-0.06870229007633588,-0.37404580152671757
7.23,0.080810546875,-1.01953125,0.042236328125,-1.748091603053435,-0.22137404580152673,-0.44274809160305345
7.24,0.08837890625,-1.030029296875,0.060546875,-1.702290076335878,-0.061068702290076333,-0.5725190839694656
7.25,0.08642578125,-1.017822265625,0.046630859375,-1.6793893129770991,-0.1984732824427481,-0.366412213740458
7.26,0.09033203125,-1.013427734375,0.044921875,-1.717557251908397,-0.1297709923664122,-0.5877862595419847
7.27,0.089111328125,-1.019775390625,0.050048828125,-1.6641221374045803,-0.030534351145038167,-0.648854961832061
7.28,0.091552734375,-1.007080078125,0.055419921875,-1.8702290076335877,-0.22900763358778625,-0.4580152671755725
7.29,0.08544921875,-1.0126953125,0.049072265625,-1.6870229007633588,-0.16793893129770993,-0.45038167938931295
7.3,0.092041015625,-1.03125,0.050537109375,-1.5877862595419847,-0.061068702290076333,-0.5038167938931297
7.31,0.090087890625,-1.0185546875,0.04638671875,-1.7557251908396947,-0.2824427480916031,-0.35877862595419846
7.32,0.09619140625,-1.015869140625,0.05224609375,-1.7633587786259541,-0.19083969465648856,-0.19083969465648856
7.33,0.094970703125,-1.01708984375,0.04638671875,-1.816793893129771,-0.16030534351145037,-0.48854961832061067
7.34,0.09033203125,-1.0166015625,0.0517578125,-1.7557251908396947,-0.25190839694656486,-0.6259541984732825
7.35,0.08837890625,-1.02099609375,0.0546875,-1.5572519083969465,-0.22137404580152673,-0.31297709923664124
7.36,0.0810546875,-1.01513671875,0.037109375,-1.6564885496183206,-0.030534351145038167,-0.2748091603053435
7.37,0.09228515625,-1.001953125,0.0439453125,-1.7099236641221374,-0.0916030534351145,-0.3893129770992366
7.38,0.08740234375,-1.000732421875,0.057373046875,-1.7709923664122138,-0.03816793893129771,-0.25190839694656486
7.39,0.081298828125,-1.002685546875,0.05029296875,-1.8015267175572518,-0.20610687022900764,-0.2900763358778626
7.4,0.091064453125,-1.01318359375,0.04736328125,-1.8091603053435115,-0.2366412213740458,-0.4961832061068702
7.41,0.08984375,-1.017333984375,0.058349609375,-1.7099236641221374,-0.183206106870229,-0.4961832061068702
7.42,0.088134765625,-1.011474609375,0.047119140625,-1.4198473282442747,-0.33587786259541985,-0.4351145038167939
7.43,0.090087890625,-1.014404296875,0.046142578125,-1.7557251908396947,-0.16793893129770993,-0.20610687022900764
7.44,0.091064453125,-1.012939453125,0.04638671875,-1.6106870229007633,-0.3435114503816794,-0.5190839694656488
7.45,0.1025390625,-1.024658203125,0.050048828125,-1.6870229007633588,-0.1984732824427481,-0.42748091603053434
7.46,0.089599609375,-1.01513671875,0.0478515625,-1.5801526717557253,-0.24427480916030533,-0.48091603053435117
7.47,0.087890625,-1.016357421875,0.04833984375,-1.7328244274809161,-0.24427480916030533,-0.33587786259541985
7.48,0.092529296875,-1.01513671875,0.05029296875,-1.8778625954198473,-0.24427480916030533,-0.6106870229007634
7.49,0.087158203125,-1.02001953125,0.046875,-1.7328244274809161,-0.3053435114503817,-0.5648854961832062
7.5,0.0888671875,-1.01708984375,0.04150390625,-1.717557251908397,-0.2366412213740458,-0.4122137404580153
7.51,0.0908203125,-1.021728515625,0.05224609375,-1.702290076335878,-0.08396946564885496,-0.4198473282442748
7.52,0.090087890625,-1.015869140625,0.04833984375,-1.8396946564885497,-0.2900763358778626,-0.33587786259541985
7.53,0.093994140625,-1.01025390625,0.05859375,-1.8396946564885497,-0.2824427480916031,-0.29770992366412213
7.54,0.08740234375,-1.008056640625,0.047119140625,-1.702290076335878,-0.3435114503816794,-0.42748091603053434
7.55,0.09521484375,-1.017578125,0.05224609375,-1.717557251908397,-0.1450381679389313,-0.4351145038167939
7.56,0.086181640625,-1.015380859375,0.048095703125,-1.717557251908397,-0.3053435114503817,-0.2595419847328244
7.57,0.100341796875,-1.017333984375,0.04345703125,-1.7328244274809161,-0.1984732824427481,-0.31297709923664124
7.58,0.078369140625,-1.015869140625,0.042724609375,-2.0839694656488548,-0.2748091603053435,-0.3969465648854962
7.59,0.079345703125,-1.01513671875,0.0595703125,-1.6870229007633588,-0.11450381679389313,-0.2824427480916031
7.6,0.0888671875,-1.01953125,0.048095703125,-1.549618320610687,-0.25190839694656486,-0.5648854961832062
7.61,0.0888671875,-1.016845703125,0.04443359375,-1.6488549618320612,-0.1450381679389313,-0.549618320610687
7.62,0.093994140625,-1.018310546875,0.046142578125,-1.748091603053435,-0.0916030534351145,-0.40458015267175573
7.63,0.08935546875,-1.017822265625,0.044189453125,-1.6412213740458015,-0.15267175572519084,-0.29770992366412213
7.64,0.08984375,-1.01171875,0.048828125,-1.6564885496183206,-0.4198473282442748,-0.5267175572519084
7.65,0.0888671875,-1.030517578125,0.048828125,-1.7404580152671756,-0.2824427480916031,-0.46564885496183206
7.66,0.088623046875,-1.031005859375,0.05224609375,-1.5648854961832062,-0.183206106870229,-0.46564885496183206
7.67,0.083984375,-1.015869140625,0.055908203125,-1.748091603053435,-0.2748091603053435,-0.3893129770992366
7.68,0.08984375,-1.009521484375,0.061767578125,-1.8244274809160306,-0.2595419847328244,-0.42748091603053434
7.69,0.094482421875,-1.018798828125,0.048828125,-1.8091603053435115,-0.19083969465648856,-0.3969465648854962
7.7,0.08935546875,-1.016357421875,0.0361328125,-2.068702290076336,-0.16793893129770993,-0.44274809160305345
7.71,0.092529296875,-1.018310546875,0.049072265625,-1.618320610687023,-0.16030534351145037,-0.37404580152671757
7.72,0.091064453125,-1.029296875,0.044189453125,-1.6870229007633588,-0.40458015267175573,-0.3053435114503817
7.73,0.088623046875,-1.002685546875,0.046875,-1.9618320610687023,-0.2900763358778626,-0.29770992366412213
7.74,0.0849609375,-1.027099609375,0.045654296875,-1.748091603053435,-0.2366412213740458,-0.3969465648854962
7.75,0.088623046875,-1.01904296875,0.06005859375,-1.9770992366412214,-0.26717557251908397,-0.40458015267175573
7.76,0.08984375,-1.015625,0.0439453125,-1.618320610687023,-0.25190839694656486,-0.3511450381679389
7.77,0.092529296875,-1.012939453125,0.047607421875,-1.6488549618320612,-0.44274809160305345,-0.42748091603053434
7.78,0.081787109375,-1.014892578125,0.047607421875,-1.6641221374045803,-0.1297709923664122,-0.35877862595419846
7.79,0.08642578125,-1.0126953125,0.04150390625,-1.7404580152671756,-0.3053435114503817,-0.3053435114503817
7.8,0.08642578125,-1.01171875,0.061767578125,-1.9770992366412214,-0.2824427480916031,-0.29770992366412213
7.81,0.088623046875,-1.013427734375,0.041015625,-1.633587786259542,-0.3511450381679389,-0.3053435114503817
7.82,0.08740234375,-1.01708984375,0.04541015625,-1.9083969465648856,-0.12213740458015267,-0.32061068702290074
7.83,0.08935546875,-1.022705078125,0.052001953125,-1.6870229007633588,-0.16793893129770993,-0.35877862595419846
7.84,0.091796875,-1.0185546875,0.04833984375,-1.6641221374045803,-0.05343511450381679,-0.3969465648854962
7.85,0.089599609375,-1.021240234375,0.041015625,-1.8091603053435115,-0.1450381679389313,-0.4198473282442748
7.86,0.10693359375,-1.021484375,0.04541015625,-1.5648854961832062,-0.25190839694656486,-0.33587786259541985
7.87,0.0859375,-1.017822265625,0.045654296875,-1.4580152671755726,-0.32061068702290074,-0.5114503816793893
7.88,0.0869140625,-1.025390625,0.057373046875,-1.7633587786259541,-0.37404580152671757,-0.37404580152671757
7.89,0.092041015625,-1.011962890625,0.052978515625,-1.702290076335878,-0.183206106870229,-0.32061068702290074
7.9,0.084228515625,-1.020751953125,0.046630859375,-1.4274809160305344,-0.42748091603053434,-0.31297709923664124
7.91,0.0908203125,-1.020751953125,0.056640625,-1.7557251908396947,-0.32061068702290074,-0.549618320610687
7.92,0.091552734375,-1.01708984375,0.04052734375,-1.7099236641221374,-0.32061068702290074,-0.46564885496183206
7.93,0.088134765625,-1.02001953125,0.05712890625,-1.4732824427480915,-0.19083969465648856,-0.4122137404580153
7.94,0.09228515625,-1.01806640625,0.06201171875,-1.7938931297709924,-0.22900763358778625,-0.35877862595419846
7.95,0.087158203125,-1.0166015625,0.045166015625,-1.8015267175572518,-0.12213740458015267,-0.4961832061068702
7.96,0.092041015625,-1.021728515625,0.046875,-1.8549618320610688,-0.37404580152671757,-0.4198473282442748
7.97,0.092041015625,-1.018798828125,0.0458984375,-1.534351145038168,-0.24427480916030533,-0.45038167938931295
7.98,0.0888671875,-1.017333984375,0.045166015625,-1.618320610687023,-0.1984732824427481,-0.37404580152671757
7.99,0.08984375,-1.020751953125,0.047607421875,-1.5877862595419847,-0.07633587786259542,-0.2748091603053435
8.0,0.087890625,-1.00048828125,0.056640625,-1.9312977099236641,-0.2900763358778626,-0.21374045801526717
8.01,0.087646484375,-1.02001953125,0.044921875,-1.5725190839694656,-0.33587786259541985,-0.5190839694656488
8.02,0.093017578125,-1.01416015625,0.05615234375,-1.6259541984732824,-0.24427480916030533,-0.29770992366412213
8.03,0.090576171875,-1.018310546875,0.051513671875,-1.7404580152671756,-0.24427480916030533,-0.4198473282442748
8.04,0.08935546875,-1.017822265625,0.047119140625,-1.7251908396946565,-0.22900763358778625,-0.3893129770992366
8.05,0.0908203125,-1.0166015625,0.044921875,-1.6412213740458015,-0.10687022900763359,-0.3816793893129771
8.06,0.0791015625,-1.01708984375,0.0439453125,-1.7251908396946565,-0.1984732824427481,-0.25190839694656486
8.07,0.087158203125,-1.020751953125,0.055908203125,-1.6717557251908397,-0.35877862595419846,-0.33587786259541985
8.08,0.09033203125,-1.00439453125,0.04833984375,-1.7633587786259541,-0.09923664122137404,-0.31297709923664124
8.09,0.092529296875,-1.0234375,0.032470703125,-1.5648854961832062,-0.4198473282442748,-0.5114503816793893
8.1,0.0859375,-1.013916015625,0.06103515625,-1.5954198473282444,-0.07633587786259542,-0.5267175572519084
8.11,0.08935546875,-1.015625,0.0537109375,-1.6717557251908397,-0.2900763358778626,-0.4122137404580153
8.12,0.08203125,-1.01611328125,0.059326171875,-1.5954198473282444,-0.3282442748091603,-0.3053435114503817
8.13,0.090576171875,-1.01904296875,0.054443359375,-1.6870229007633588,-0.33587786259541985,-0.44274809160305345
8.14,0.09033203125,-1.002685546875,0.052734375,-1.702290076335878,-0.09923664122137404,-0.42748091603053434
8.15,0.090576171875,-1.00439453125,0.060302734375,-1.618320610687023,-0.09923664122137404,-0.3053435114503817
8.16,0.088134765625,-1.005126953125,0.04638671875,-1.7633587786259541,-0.16793893129770993,-0.45038167938931295
8.17,0.0908203125,-1.01416015625,0.062255859375,-1.7709923664122138,-0.2595419847328244,-0.5725190839694656
8.18,0.089599609375,-1.015869140625,0.048583984375,-1.5801526717557253,-0.33587786259541985,-0.46564885496183206
8.19,0.089111328125,-1.010986328125,0.04248046875,-1.4351145038167938,-0.03816793893129771,-0.4961832061068702
8.2,0.10302734375,-1.0146484375,0.050048828125,-1.6030534351145038,-0.4580152671755725,-0.48854961832061067
8.21,0.09375,-1.03076171875,0.046142578125,-1.5572519083969465,-0.32061068702290074,-0.31297709923664124
8.22,0.089599609375,-1.02001953125,0.047607421875,-1.633587786259542,-0.061068702290076333,-0.37404580152671757
8.23,0.095703125,-1.025634765625,0.044189453125,-1.6793893129770991,-0.16030534351145037,-0.48854961832061067
8.24,0.08740234375,-1.018798828125,0.049072265625,-1.465648854961832,-0.33587786259541985,-0.5419847328244275
8.25,0.08642578125,-1.01904296875,0.047119140625,-1.7328244274809161,-0.2748091603053435,-0.40458015267175573
8.26,0.089599609375,-1.02001953125,0.05078125,-1.5114503816793894,-0.24427480916030533,-0.44274809160305345
8.27,0.089599609375,-1.017822265625,0.058349609375,-1.8473282442748091,-0.1984732824427481,-0.4961832061068702
8.28,0.088134765625,-1.029541015625,0.048828125,-1.7786259541984732,-0.19083969465648856,-0.2366412213740458
8.29,0.096923828125,-1.003173828125,0.052734375,-1.5190839694656488,-1.9312977099236641,-0.42748091603053434
8.3,0.093994140625,-1.001953125,0.03955078125,-1.7786259541984732,-0.42748091603053434,-0.2748091603053435
8.31,0.08349609375,-1.0166015625,0.05029296875,-1.4885496183206106,-0.2366412213740458,-0.46564885496183206
8.32,0.094970703125,-1.01953125,0.045654296875,-1.6793893129770991,-0.32061068702290074,-0.5725190839694656
8.33,0.091064453125,-1.015625,0.050537109375,-1.6946564885496183,-0.22137404580152673,-0.3053435114503817
8.34,0.087646484375,-1.017822265625,0.05322265625,-1.8396946564885497,-0.35877862595419846,-0.33587786259541985
8.35,0.086669921875,-1.016845703125,0.05517578125,-1.618320610687023,-0.1984732824427481,-0.45038167938931295
8.36,0.091064453125,-1.01708984375,0.040771484375,-1.7099236641221374,-0.17557251908396945,-0.4961832061068702
8.37,0.0888671875,-1.02685546875,0.0498046875,-1.717557251908397,-0.4351145038167939,-0.4580152671755725
8.38,0.0947265625,-1.015625,0.058349609375,-1.6412213740458015,-0.2366412213740458,-0.5038167938931297
8.39,0.09375,-1.014892578125,0.049560546875,-1.6488549618320612,-0.2824427480916031,-0.4122137404580153
8.4,0.08984375,-1.0185546875,0.050048828125,-1.6106870229007633,-0.16793893129770993,-0.45038167938931295
8.41,0.093505859375,-1.017333984375,0.055419921875,-1.7099236641221374,-0.1450381679389313,-0.5419847328244275
8.42,0.08349609375,-1.01513671875,0.0478515625,-1.7633587786259541,-0.3435114503816794,-0.46564885496183206
8.43,0.08935546875,-1.017578125,0.04638671875,-1.6564885496183206,-0.2824427480916031,-0.3435114503816794
8.44,0.08984375,-1.014404296875,0.049560546875,-1.7633587786259541,1.9389312977099236,-0.3435114503816794
8.45,0.091552734375,-1.016357421875,0.03564453125,-1.7404580152671756,-0.2824427480916031,-0.26717557251908397
8.46,0.09375,-1.012451171875,0.0537109375,-1.7709923664122138,-0.21374045801526717,-0.45038167938931295
8.47,0.0888671875,-1.017578125,0.042724609375,-1.5954198473282444,-0.16030534351145037,-0.33587786259541985
8.48,0.0869140625,-1.00830078125,0.052978515625,-1.7099236641221374,-0.31297709923664124,-0.366412213740458
8.49,0.093994140625,-1.0048828125,0.050048828125,-1.8702290076335877,-0.24427480916030533,-0.3511450381679389
8.5,0.086181640625,-1.00244140625,0.048095703125,-1.6870229007633588,-0.16793893129770993,-0.2824427480916031
8.51,0.093994140625,-1.031005859375,0.05859375,-1.7099236641221374,-0.2366412213740458,-0.3435114503816794
8.52,0.0908203125,-1.014892578125,0.05615234375,-1.7633587786259541,-0.2748091603053435,-0.3511450381679389
8.53,0.08837890625,-1.017822265625,0.049072265625,-1.4351145038167938,-0.19083969465648856,-0.35877862595419846
8.54,0.08642578125,-1.021728515625,0.048583984375,-1.7404580152671756,-0.25190839694656486,-0.32061068702290074
8.55,0.088623046875,-1.011962890625,0.04443359375,-1.7633587786259541,-0.3282442748091603,-0.3511450381679389
8.56,0.103759765625,-1.02783203125,0.05029296875,-1.6717557251908397,-0.13740458015267176,-0.5954198473282443
8.57,0.079345703125,-1.031005859375,0.055419921875,-1.702290076335878,-0.24427480916030533,-0.3969465648854962
8.58,0.091796875,-1.002197265625,0.052734375,-1.7099236641221374,-0.13740458015267176,-0.3282442748091603
8.59,0.089111328125,-1.015625,0.050048828125,-1.6946564885496183,-0.31297709923664124,-0.4351145038167939
8.6,0.084228515625,-1.024169921875,0.05322265625,-1.6488549618320612,-0.12213740458015267,-0.3816793893129771
8.61,0.090576171875,-1.020751953125,0.04931640625,-1.900763358778626,-0.2900763358778626,-0.33587786259541985
8.62,0.08447265625,-1.013916015625,0.037109375,-1.6412213740458015,-0.09923664122137404,-0.4198473282442748
8.63,0.0869140625,-1.00390625,0.042724609375,-1.6030534351145038,-0.16030534351145037,-0.3435114503816794
8.64,0.089111328125,-1.016357421875,0.045166015625,-2.0,-0.22900763358778625,-0.32061068702290074
8.65,0.086669921875,-1.029296875,0.05029296875,-1.7786259541984732,-0.22137404580152673,-0.32061068702290074
8.66,0.091552734375,-1.01708984375,0.03662109375,-1.7557251908396947,-0.16030534351145037,-0.5038167938931297
8.67,0.094970703125,-1.017578125,0.046630859375,-1.7251908396946565,-0.35877862595419846,-0.366412213740458
8.68,0.090087890625,-1.023681640625,0.049560546875,-1.8244274809160306,-0.04580152671755725,-0.549618320610687
8.69,0.090576171875,-1.01416015625,0.04736328125,-1.7557251908396947,-0.29770992366412213,-0.5877862595419847
8.7,0.0888671875,-1.014404296875,0.063720703125,-1.7404580152671756,-0.16793893129770993,-0.3893129770992366
8.71,0.089111328125,-1.031005859375,0.06201171875,-1.7328244274809161,-0.2748091603053435,-0.33587786259541985
8.72,0.0888671875,-1.013916015625,0.0517578125,-1.5877862595419847,-0.32061068702290074,-0.32061068702290074
8.73,0.086669921875,-1.015625,0.033447265625,-1.7328244274809161,-0.22900763358778625,-0.31297709923664124
8.74,0.088623046875,-1.019775390625,0.054443359375,-1.717557251908397,-0.37404580152671757,-0.6106870229007634
8.75,0.091796875,-1.011962890625,0.045166015625,-1.5725190839694656,-0.1984732824427481,-0.3435114503816794
8.76,0.093505859375,-1.016845703125,0.047607421875,-1.6488549618320612,-0.40458015267175573,-0.3893129770992366
8.77,0.09228515625,-1.017578125,0.048828125,-1.5954198473282444,-0.22137404580152673,-0.45038167938931295
8.78,0.0927734375,-1.01318359375,0.0546875,-1.5114503816793894,-0.12213740458015267,-0.2824427480916031
8.79,0.093505859375,-1.00244140625,0.060546875,-1.5877862595419847,-0.19083969465648856,-0.4122137404580153
8.8,0.090576171875,-1.013671875,0.0546875,-1.8702290076335877,-0.1297709923664122,-0.5801526717557252
8.81,0.09130859375,-1.0146484375,0.047607421875,-1.900763358778626,-0.2900763358778626,-0.48091603053435117
8.82,0.09423828125,-1.014892578125,0.047119140625,-1.4427480916030535,-0.22137404580152673,-0.4580152671755725
8.83,0.08642578125,-1.01513671875,0.048095703125,-1.786259541984733,-0.11450381679389313,-0.3969465648854962
8.84,0.084228515625,-1.010986328125,0.056640625,-1.702290076335878,-0.17557251908396945,-0.2748091603053435
8.85,0.084228515625,-1.001220703125,0.0498046875,-1.5648854961832062,-0.4351145038167939,-0.22137404580152673
8.86,0.093017578125,-1.017578125,0.041259765625,-1.8549618320610688,-0.2748091603053435,-0.3053435114503817
8.87,0.095703125,-1.019287109375,0.03955078125,-1.549618320610687,-0.1450381679389313,-0.5725190839694656
8.88,0.08837890625,-1.011474609375,0.04541015625,-2.0763358778625953,-0.20610687022900764,-0.549618320610687
8.89,0.092529296875,-1.019775390625,0.05078125,-1.7557251908396947,-0.29770992366412213,-0.5267175572519084
8.9,0.08642578125,-1.014892578125,0.05517578125,-1.7251908396946565,-0.3053435114503817,-0.4351145038167939
8.91,0.09130859375,-1.004150390625,0.054443359375,-1.633587786259542,-0.32061068702290074,-0.31297709923664124
8.92,0.078857421875,-1.010009765625,0.036376953125,-1.7328244274809161,-0.40458015267175573,-0.3282442748091603
8.93,0.091552734375,-1.0126953125,0.048583984375,-1.4961832061068703,-0.366412213740458,-0.32061068702290074
8.94,0.09326171875,-1.0126953125,0.046875,-1.717557251908397,-0.2824427480916031,-0.4351145038167939
8.95,0.08984375,-1.014404296875,0.05224609375,-1.7709923664122138,-0.1297709923664122,-0.45038167938931295
8.96,0.087646484375,-1.016845703125,0.0517578125,-1.549618320610687,-0.04580152671755725,-0.3511450381679389
8.97,0.0859375,-1.017333984375,0.04931640625,-1.900763358778626,-0.35877862595419846,-0.26717557251908397
8.98,0.0888671875,-1.0146484375,0.050048828125,-1.6717557251908397,-0.15267175572519084,-0.35877862595419846
8.99,0.084716796875,-1.012939453125,0.046875,-1.6412213740458015,-0.10687022900763359,-0.2900763358778626
9.0,0.0908203125,-1.013427734375,0.049560546875,-1.633587786259542,-0.11450381679389313,-0.3969465648854962
9.01,0.0908203125,-1.018310546875,0.047607421875,-1.702290076335878,-0.21374045801526717,-0.40458015267175573
9.02,0.09033203125,-1.01953125,0.050537109375,-1.7786259541984732,-0.35877862595419846,-0.19083969465648856
9.03,0.095458984375,-1.016357421875,0.049072265625,-1.549618320610687,-0.366412213740458,-0.4351145038167939
9.04,0.084716796875,-1.012451171875,0.04541015625,-1.534351145038168,-0.05343511450381679,-0.31297709923664124
9.05,0.080810546875,-1.00048828125,0.0498046875,-1.9541984732824427,-0.20610687022900764,-0.4198473282442748
9.06,0.08642578125,-1.016845703125,0.048095703125,-1.6488549618320612,-0.2595419847328244,-0.2748091603053435
9.07,0.0927734375,-1.001953125,0.046630859375,-1.6717557251908397,0.061068702290076333,-0.3816793893129771
9.08,0.090576171875,-1.011474609375,0.03955078125,-1.6106870229007633,-0.2366412213740458,-0.5038167938931297
9.09,0.092041015625,-1.018798828125,0.048095703125,-1.8702290076335877,-0.4351145038167939,-0.3053435114503817
9.1,0.087158203125,-1.01904296875,0.046630859375,-1.6717557251908397,-0.4961832061068702,-0.3511450381679389
9.11,0.0859375,-1.02001953125,0.0546875,-1.7709923664122138,-0.2595419847328244,-0.37404580152671757
9.12,0.0888671875,-1.01708984375,0.060302734375,-1.8702290076335877,-0.19083969465648856,-0.37404580152671757
9.13,0.09228515625,-1.001708984375,0.06005859375,-1.633587786259542,-0.32061068702290074,-0.5114503816793893
9.14,0.09033203125,-1.0126953125,0.04296875,-1.8396946564885497,-0.13740458015267176,-0.3511450381679389
9.15,0.088134765625,-1.011474609375,0.04150390625,-1.786259541984733,-0.0916030534351145,-0.40458015267175573
9.16,0.090576171875,-1.01708984375,0.050537109375,-1.6259541984732824,-0.25190839694656486,-0.3969465648854962
9.17,0.085205078125,-1.011474609375,0.05126953125,-1.633587786259542,-0.1984732824427481,-0.45038167938931295
9.18,0.087646484375,-1.01513671875,0.043701171875,-1.6106870229007633,-0.2900763358778626,-0.5572519083969466
9.19,0.101806640625,-1.029296875,0.05029296875,-1.6412213740458015,-0.3053435114503817,-0.5725190839694656
9.2,0.090087890625,-1.03125,0.0595703125,-1.6564885496183206,-0.42748091603053434,-0.4198473282442748
9.21,0.087890625,-1.016845703125,0.048828125,-1.717557251908397,-0.26717557251908397,-0.32061068702290074
9.22,0.09375,-1.01708984375,0.051513671875,-1.6870229007633588,-0.32061068702290074,-0.40458015267175573
9.23,0.087890625,-1.01611328125,0.04150390625,-1.702290076335878,-0.25190839694656486,-0.31297709923664124
9.24,0.08935546875,-1.020751953125,0.053955078125,-1.5038167938931297,-0.2824427480916031,-0.35877862595419846
9.25,0.0888671875,-1.0029296875,0.04541015625,-1.4809160305343512,-0.2900763358778626,-0.366412213740458
9.26,0.08642578125,-1.011474609375,0.05078125,-1.7251908396946565,-0.13740458015267176,-0.3969465648854962
9.27,0.083251953125,-1.015625,0.0537109375,-1.6488549618320612,-0.32061068702290074,-0.2900763358778626
9.28,0.0927734375,-1.01318359375,0.03759765625,-1.8244274809160306,-0.2900763358778626,-0.44274809160305345
9.29,0.091796875,-1.015380859375,0.0458984375,-1.4351145038167938,-0.2366412213740458,-0.37404580152671757
9.3,0.09033203125,-1.01171875,0.044189453125,-1.5954198473282444,-0.21374045801526717,-0.6335877862595419
9.31,0.108154296875,-1.029052734375,0.043212890625,-1.534351145038168,-0.183206106870229,-0.26717557251908397
9.32,0.1025390625,-1.01708984375,0.053466796875,-1.7938931297709924,-0.10687022900763359,-0.42748091603053434
9.33,0.089599609375,-1.0009765625,0.03173828125,-1.465648854961832,-0.17557251908396945,-0.3893129770992366
9.34,0.088623046875,-1.02392578125,0.04931640625,-2.1374045801526718,-0.20610687022900764,-0.5572519083969466
9.35,0.09033203125,-1.01611328125,0.055908203125,-1.6488549618320612,-0.19083969465648856,-0.2824427480916031
9.36,0.08349609375,-1.00732421875,0.046630859375,-1.6412213740458015,-0.2900763358778626,-0.48854961832061067
9.37,0.088134765625,-1.012451171875,0.047119140625,-2.015267175572519,-0.12213740458015267,-0.5267175572519084
9.38,0.104736328125,-1.018310546875,0.04638671875,-1.6488549618320612,-0.21374045801526717,-0.4732824427480916
9.39,0.08740234375,-1.01171875,0.042724609375,-1.5267175572519085,-0.08396946564885496,-0.2824427480916031
9.4,0.096435546875,-1.0283203125,0.03515625,-1.8702290076335877,-0.1450381679389313,-0.3282442748091603
9.41,0.09228515625,-1.02197265625,0.048583984375,-1.7251908396946565,-0.35877862595419846,-0.3893129770992366
9.42,0.089599609375,-1.02099609375,0.04931640625,-1.5877862595419847,-0.33587786259541985,-0.4351145038167939
9.43,0.094482421875,-1.0107421875,0.055908203125,-1.8091603053435115,-0.2748091603053435,-0.5343511450381679
9.44,0.090576171875,-1.020751953125,0.051025390625,-1.6030534351145038,-0.05343511450381679,-0.3816793893129771
9.45,0.09228515625,-1.00830078125,0.040771484375,-1.7938931297709924,-1.9465648854961832,-0.35877862595419846
9.46,0.080322265625,-1.01416015625,0.047607421875,-1.5572519083969465,1.900763358778626,-0.3969465648854962
9.47,0.0927734375,-1.02001953125,0.05078125,-1.7099236641221374,-0.08396946564885496,-0.5801526717557252
9.48,0.08984375,-1.015380859375,0.046875,-1.6564885496183206,-0.17557251908396945,-0.46564885496183206
9.49,0.091796875,-1.017333984375,0.0546875,-1.8244274809160306,-0.2748091603053435,-0.5954198473282443
9.5,0.09375,-1.019287109375,0.0537109375,-1.8778625954198473,-1.9541984732824427,-0.4732824427480916
9.51,0.09130859375,-1.02685546875,0.043701171875,-1.7404580152671756,-0.2748091603053435,-0.16030534351145037
9.52,0.08837890625,-1.01171875,0.04638671875,-1.916030534351145,-0.3282442748091603,-0.29770992366412213
9.53,0.09228515625,-1.009521484375,0.046630859375,-1.5801526717557253,-0.2900763358778626,-0.4732824427480916
9.54,0.081298828125,-1.029541015625,0.06201171875,-1.6793893129770991,-0.2366412213740458,-0.4351145038167939
9.55,0.09130859375,-1.000732421875,0.032958984375,-1.4274809160305344,1.900763358778626,-0.5725190839694656
9.56,0.089599609375,-1.017578125,0.05419921875,-1.8931297709923665,-0.05343511450381679,-0.5038167938931297
9.57,0.088623046875,-1.02197265625,0.047607421875,-1.717557251908397,-0.2824427480916031,-0.4351145038167939
9.58,0.09375,-1.010986328125,0.04833984375,-1.5725190839694656,-0.16793893129770993,-0.4198473282442748
9.59,0.08740234375,-1.010986328125,0.052001953125,-1.8396946564885497,-0.0916030534351145,-0.6183206106870229
9.6,0.091552734375,-1.00146484375,0.062255859375,-1.7633587786259541,-0.2366412213740458,-0.37404580152671757
9.61,0.0888671875,-1.017333984375,0.047119140625,-0.03816793893129771,-0.15267175572519084,-0.31297709923664124
9.62,0.088623046875,-1.009765625,0.053955078125,-1.8244274809160306,-0.3053435114503817,-0.4961832061068702
9.63,0.085693359375,-1.01025390625,0.05810546875,-1.5877862595419847,-0.20610687022900764,-0.4351145038167939
9.64,0.09033203125,-1.0224609375,0.053955078125,-1.5954198473282444,-0.13740458015267176,-0.4580152671755725
9.65,0.09521484375,-1.009033203125,0.055908203125,-1.6564885496183206,-0.3435114503816794,-0.4122137404580153
9.66,0.08984375,-1.015380859375,0.053466796875,-1.7786259541984732,-0.2900763358778626,-0.48854961832061067
9.67,0.09228515625,-1.004150390625,0.035400390625,-1.5877862595419847,-0.20610687022900764,-0.3969465648854962
9.68,0.079345703125,-1.00390625,0.03759765625,-1.8702290076335877,-0.16793893129770993,-0.4961832061068702
9.69,0.09521484375,-1.0107421875,0.05322265625,-1.6564885496183206,-0.15267175572519084,-0.5419847328244275
9.7,0.08984375,-1.019287109375,0.055908203125,-1.5114503816793894,-0.3053435114503817,-0.35877862595419846
9.71,0.091064453125,-1.01904296875,0.04150390625,-1.381679389312977,-0.3969465648854962,-0.37404580152671757
9.72,0.088134765625,-1.0166015625,0.0498046875,-1.7557251908396947,-0.0916030534351145,-0.4198473282442748
9.73,0.088623046875,-1.03076171875,0.0458984375,-1.8244274809160306,-0.33587786259541985,-0.5038167938931297
9.74,0.080322265625,-1.01953125,0.04833984375,-1.6564885496183206,-0.20610687022900764,-0.22900763358778625
9.75,0.09326171875,-1.030029296875,0.04736328125,-1.8091603053435115,-0.2824427480916031,-0.3282442748091603
9.76,0.0927734375,-1.010498046875,0.052978515625,-1.5572519083969465,-0.48854961832061067,-0.3053435114503817
9.77,0.088623046875,-1.02099609375,0.049560546875,-1.5877862595419847,-0.061068702290076333,-0.5190839694656488
9.78,0.08984375,-1.018798828125,0.0380859375,-1.717557251908397,-0.40458015267175573,-0.37404580152671757
9.79,0.089599609375,-1.018798828125,0.044677734375,-1.6412213740458015,-0.45038167938931295,-0.4580152671755725
9.8,0.0927734375,-1.026123046875,0.048095703125,-1.9312977099236641,-0.2595419847328244,-0.3816793893129771
9.81,0.095458984375,-1.029296875,0.033203125,-1.6488549618320612,-0.17557251908396945,-0.45038167938931295
9.82,0.096923828125,-1.013671875,0.0498046875,-1.8396946564885497,-0.31297709923664124,-0.19083969465648856
9.83,0.08984375,-1.0078125,0.046875,-1.5801526717557253,-0.2824427480916031,-0.37404580152671757
9.84,0.08740234375,-1.015625,0.048583984375,-1.8854961832061068,-0.15267175572519084,-0.4732824427480916
9.85,0.0869140625,-1.013916015625,0.043212890625,-1.5419847328244274,-0.25190839694656486,-0.5267175572519084
9.86,0.07861328125,-1.01318359375,0.049560546875,-1.5419847328244274,-0.2748091603053435,-0.3053435114503817
9.87,0.107177734375,-1.029296875,0.052734375,-1.5954198473282444,-0.48091603053435117,-0.6259541984732825
9.88,0.0888671875,-1.0234375,0.050048828125,-1.7099236641221374,-0.4198473282442748,-0.366412213740458
9.89,0.091552734375,-1.015625,0.049560546875,-1.633587786259542,-0.2900763358778626,-0.4732824427480916
9.9,0.09033203125,-1.017578125,0.062255859375,-1.7404580152671756,-0.4122137404580153,-0.2366412213740458
9.91,0.089111328125,-1.01806640625,0.048583984375,-1.8396946564885497,-0.37404580152671757,-0.2748091603053435
9.92,0.093017578125,-1.00927734375,0.041015625,-1.6488549618320612,-0.25190839694656486,-0.33587786259541985
9.93,0.09228515625,-1.01416015625,0.039306640625,-1.6870229007633588,-0.33587786259541985,-0.3816793893129771
9.94,0.078125,-1.017822265625,0.03955078125,-1.83206106870229,1.8931297709923665,-0.6564885496183206
9.95,0.0927734375,-1.029541015625,0.055908203125,-1.5725190839694656,-0.21374045801526717,-0.46564885496183206
9.96,0.095703125,-1.00830078125,0.042724609375,-1.7786259541984732,-0.35877862595419846,-0.3511450381679389
9.97,0.08984375,-1.014892578125,0.034912109375,-1.7251908396946565,-0.03816793893129771,-0.3435114503816794
9.98,0.09130859375,-1.01220703125,0.046875,-1.5725190839694656,-0.19083969465648856,-0.42748091603053434
9.99,0.088623046875,-1.014404296875,0.04345703125,-1.618320610687023,-0.09923664122137404,-0.4198473282442748
10.0,0.081298828125,-1.018798828125,0.05078125,-1.8778625954198473,-0.20610687022900764,-0.25190839694656486
10.01,0.083251953125,-1.02001953125,0.049560546875,-1.7099236641221374,-0.2366412213740458,-0.3969465648854962
10.02,0.07958984375,-1.01171875,0.047119140625,-1.816793893129771,-0.17557251908396945,-0.366412213740458
10.03,0.0908203125,-1.0205078125,0.045654296875,-1.6641221374045803,-0.09923664122137404,-0.5190839694656488
10.04,0.09375,-1.01708984375,0.0361328125,-1.5725190839694656,-0.1297709923664122,-0.4351145038167939
10.05,0.087646484375,-1.0166015625,0.051513671875,-1.7099236641221374,-0.26717557251908397,-0.4961832061068702
10.06,0.08984375,-1.018798828125,0.048828125,-1.7328244274809161,-0.22137404580152673,-0.44274809160305345
10.07,0.0869140625,-1.02099609375,0.0537109375,-1.6412213740458015,-0.3816793893129771,-0.6335877862595419
10.08,0.09423828125,-1.0009765625,0.04052734375,-1.7633587786259541,-0.2748091603053435,-0.5419847328244275
10.09,0.0927734375,-1.003662109375,0.060302734375,-1.6412213740458015,-1.9236641221374047,-0.3969465648854962
10.1,0.09521484375,-1.01513671875,0.0380859375,-1.6106870229007633,-0.19083969465648856,-0.42748091603053434
10.11,0.087890625,-1.018310546875,0.046630859375,-1.6870229007633588,1.9083969465648856,-0.4122137404580153
10.12,0.08203125,-1.0205078125,0.04248046875,-1.6412213740458015,-0.09923664122137404,-0.46564885496183206
10.13,0.087158203125,-1.0185546875,0.050048828125,-1.7633587786259541,-0.2824427480916031,-0.32061068702290074
10.14,0.083740234375,-1.011962890625,0.04931640625,-1.6641221374045803,-0.09923664122137404,-0.5572519083969466
10.15,0.07861328125,-1.0107421875,0.05517578125,-1.8396946564885497,-0.2748091603053435,-0.3282442748091603
10.16,0.09130859375,-1.021728515625,0.05078125,-1.6946564885496183,-0.29770992366412213,-0.4122137404580153
10.17,0.08642578125,-1.00537109375,0.053466796875,-1.7709923664122138,-0.2824427480916031,-0.2595419847328244
10.18,0.089599609375,-1.0107421875,0.033203125,-1.7557251908396947,-0.15267175572519084,-0.40458015267175573
10.19,0.095458984375,-1.026611328125,0.056640625,-1.7328244274809161,-0.48091603053435117,-0.4732824427480916
10.2,0.091064453125,-1.020751953125,0.04296875,-1.6030534351145038,-0.29770992366412213,-0.42748091603053434
10.21,0.088623046875,-1.018310546875,0.040283203125,-1.5725190839694656,-0.183206106870229,-0.3511450381679389
10.22,0.0849609375,-1.005615234375,0.05517578125,-1.7557251908396947,-0.21374045801526717,-0.25190839694656486
10.23,0.08740234375,-1.022216796875,0.043701171875,-1.5190839694656488,-0.3053435114503817,-0.366412213740458
10.24,0.082275390625,-1.00927734375,0.047607421875,-1.8396946564885497,-0.3511450381679389,-0.46564885496183206
10.25,0.0849609375,-1.010498046875,0.051513671875,-1.717557251908397,-0.3435114503816794,-0.48854961832061067
10.26,0.08642578125,-1.0263671875,0.053466796875,-1.618320610687023,-0.1984732824427481,-0.549618320610687
10.27,0.09521484375,-1.024658203125,0.049560546875,-0.05343511450381679,-0.2824427480916031,-0.35877862595419846
10.28,0.080322265625,-1.02978515625,0.048828125,-1.6717557251908397,-0.2595419847328244,-0.2824427480916031
10.29,0.093505859375,-1.022216796875,0.0478515625,-1.7557251908396947,-0.48854961832061067,-0.366412213740458
10.3,0.0888671875,-1.011962890625,0.0439453125,-1.633587786259542,-0.15267175572519084,-0.33587786259541985
10.31,0.088134765625,-1.007568359375,0.048828125,-1.7557251908396947,-0.24427480916030533,-0.5038167938931297
10.32,0.0888671875,-1.017333984375,0.04443359375,-1.6946564885496183,-0.1984732824427481,-0.4198473282442748
10.33,0.090576171875,-1.023681640625,0.045654296875,-1.5190839694656488,-0.2748091603053435,-0.46564885496183206
10.34,0.086181640625,-1.01953125,0.0517578125,-1.4198473282442747,-0.10687022900763359,-0.5190839694656488
10.35,0.085693359375,-1.000732421875,0.04736328125,-1.717557251908397,-0.19083969465648856,-0.5343511450381679
10.36,0.090087890625,-1.004638671875,0.047119140625,-1.8091603053435115,-0.3282442748091603,-0.3816793893129771
10.37,0.086181640625,-1.01708984375,0.052978515625,-1.465648854961832,-0.26717557251908397,-0.17557251908396945
10.38,0.087158203125,-1.0126953125,0.056640625,-1.9465648854961832,-0.2748091603053435,-0.24427480916030533
10.39,0.08837890625,-1.01953125,0.05078125,-1.7251908396946565,-0.32061068702290074,-0.4122137404580153
10.4,0.0966796875,-1.02001953125,0.048828125,-1.5114503816793894,-0.3282442748091603,-0.3969465648854962
10.41,0.084716796875,-1.0166015625,0.048583984375,-1.717557251908397,-0.4961832061068702,-0.3282442748091603
10.42,0.08642578125,-1.00146484375,0.044677734375,-1.7938931297709924,-0.5190839694656488,-0.5114503816793893
10.43,0.0888671875,-1.017333984375,0.04345703125,-1.6870229007633588,-0.33587786259541985,-0.46564885496183206
10.44,0.108642578125,-1.000732421875,0.053466796875,-1.3969465648854962,-0.3893129770992366,-0.4732824427480916
10.45,0.095703125,-1.011962890625,0.056640625,-2.1374045801526718,-0.45038167938931295,-0.549618320610687
10.46,0.084228515625,-1.01171875,0.044189453125,-1.7786259541984732,-0.37404580152671757,-0.37404580152671757
10.47,0.098876953125,-1.008544921875,0.039306640625,-1.6412213740458015,-0.3511450381679389,-0.5572519083969466
10.48,0.0859375,-1.015380859375,0.033203125,-1.618320610687023,-0.4351145038167939,-0.5190839694656488
10.49,0.08349609375,-1.017822265625,0.03125,-1.6488549618320612,-0.2900763358778626,-0.5267175572519084
10.5,0.08837890625,-1.013427734375,0.047119140625,-1.4427480916030535,-0.1297709923664122,-0.35877862595419846
10.51,0.078369140625,-1.011962890625,0.054931640625,-1.8091603053435115,-0.09923664122137404,-0.5190839694656488
10.52,0.091064453125,-1.017333984375,0.05029296875,-1.816793893129771,-0.1450381679389313,-0.24427480916030533
10.53,0.087646484375,-1.02001953125,0.05419921875,-1.5038167938931297,-0.20610687022900764,-0.4580152671755725
10.54,0.091552734375,-1.01953125,0.05908203125,-1.6717557251908397,-0.31297709923664124,-0.4122137404580153
10.55,0.089599609375,-1.015625,0.0478515625,-1.786259541984733,-0.2900763358778626,-0.4580152671755725
10.56,0.0859375,-1.02001953125,0.046142578125,-1.7557251908396947,-0.3511450381679389,-0.5190839694656488
10.57,0.083740234375,-1.016845703125,0.037841796875,-1.8931297709923665,-0.44274809160305345,-0.40458015267175573
10.58,0.086669921875,-1.00341796875,0.034912109375,-1.4274809160305344,-0.3282442748091603,-0.35877862595419846
10.59,0.0888671875,-1.014404296875,0.03271484375,-1.5572519083969465,-0.2595419847328244,-0.44274809160305345
10.6,0.08740234375,-1.0166015625,0.047119140625,-1.6793893129770991,-0.16793893129770993,-0.3053435114503817
10.61,0.09130859375,-1.020751953125,0.049072265625,-1.4427480916030535,-0.2595419847328244,-0.32061068702290074
10.62,0.106689453125,-1.02001953125,0.048095703125,-1.816793893129771,-0.2748091603053435,-0.3893129770992366
10.63,0.09033203125,-1.018798828125,0.04541015625,-1.83206106870229,-0.24427480916030533,-0.22137404580152673
10.64,0.091064453125,-1.006103515625,0.052978515625,-1.786259541984733,-0.19083969465648856,-0.5038167938931297
10.65,0.0927734375,-1.020263671875,0.03515625,-1.7404580152671756,-0.3511450381679389,-0.20610687022900764
10.66,0.0830078125,-1.0126953125,0.034912109375,-1.9465648854961832,-0.2595419847328244,-0.3511450381679389
10.67,0.087890625,-1.0166015625,0.042236328125,-1.6564885496183206,-0.24427480916030533,-0.26717557251908397
10.68,0.086181640625,-1.0107421875,0.039306640625,-1.6106870229007633,-0.06870229007633588,-0.32061068702290074
10.69,0.0927734375,-1.017822265625,0.051513671875,-1.6717557251908397,-1.9541984732824427,-0.29770992366412213
10.7,0.091064453125,-1.0107421875,0.044921875,-1.6717557251908397,-0.22137404580152673,-0.5038167938931297
10.71,0.080078125,-1.017578125,0.047607421875,-1.5190839694656488,-0.3282442748091603,-0.5572519083969466
10.72,0.08984375,-1.016845703125,0.04931640625,-1.5190839694656488,-0.366412213740458,-0.3511450381679389
10.73,0.0947265625,-1.014404296875,0.0576171875,-1.5725190839694656,-0.2366412213740458,-0.4351145038167939
10.74,0.09619140625,-1.01953125,0.060791015625,-1.7251908396946565,-0.45038167938931295,-0.35877862595419846
10.75,0.091064453125,-1.015380859375,0.05029296875,-1.7404580152671756,-0.183206106870229,-0.3893129770992366
10.76,0.092041015625,-1.015625,0.04150390625,-1.717557251908397,-0.20610687022900764,-0.3053435114503817
10.77,0.089111328125,-1.01123046875,0.0458984375,-1.6870229007633588,-0.42748091603053434,-0.35877862595419846
10.78,0.08837890625,-1.02783203125,0.057373046875,-1.702290076335878,-0.3282442748091603,-0.4198473282442748
10.79,0.083251953125,-1.00146484375,0.041748046875,-1.6641221374045803,-0.21374045801526717,-0.35877862595419846
10.8,0.09619140625,-1.0185546875,0.0556640625,-1.549618320610687,-0.32061068702290074,-0.32061068702290074
10.81,0.09228515625,-1.017822265625,0.059326171875,-1.633587786259542,-0.13740458015267176,-0.40458015267175573
10.82,0.089111328125,-1.01318359375,0.0517578125,-1.6717557251908397,-0.3282442748091603,-0.32061068702290074
10.83,0.089599609375,-1.01318359375,0.051513671875,-1.6870229007633588,-0.11450381679389313,-0.31297709923664124
10.84,0.090576171875,-1.015625,0.0458984375,-1.8549618320610688,-0.29770992366412213,-0.44274809160305345
10.85,0.088623046875,-1.002685546875,0.055419921875,-1.7099236641221374,-0.26717557251908397,-0.40458015267175573
10.86,0.088623046875,-1.003173828125,0.03173828125,-1.702290076335878,-0.16030534351145037,-0.4580152671755725
10.87,0.090576171875,-1.015869140625,0.041748046875,-1.6106870229007633,-0.2595419847328244,-0.48091603053435117
10.88,0.087158203125,-1.015380859375,0.04736328125,-1.8396946564885497,-0.2595419847328244,-0.40458015267175573
10.89,0.087890625,-1.012451171875,0.0458984375,-1.4961832061068703,-0.2366412213740458,-0.3511450381679389
10.9,0.088134765625,-1.013916015625,0.047607421875,-1.6870229007633588,-0.40458015267175573,-0.366412213740458
10.91,0.089599609375,-1.015380859375,0.046630859375,-1.8702290076335877,-0.19083969465648856,-0.48854961832061067
10.92,0.091552734375,-1.01513671875,0.0537109375,-1.7251908396946565,-0.1984732824427481,-0.2900763358778626
10.93,0.088623046875,-1.0146484375,0.05810546875,-1.816793893129771,-0.33587786259541985,-0.4732824427480916
10.94,0.080322265625,-1.0166015625,0.05078125,-1.7709923664122138,-0.4961832061068702,-0.48854961832061067
10.95,0.0869140625,-1.0146484375,0.0478515625,-1.8396946564885497,-0.25190839694656486,-0.4961832061068702
10.96,0.088134765625,-1.0146484375,0.048095703125,-1.83206106870229,-0.44274809160305345,-0.4961832061068702
10.97,0.103759765625,-1.013916015625,0.038330078125,-1.717557251908397,-0.25190839694656486,-0.25190839694656486
10.98,0.0927734375,-1.01806640625,0.05126953125,-1.8244274809160306,-0.1984732824427481,-0.5954198473282443
10.99,0.091064453125,-1.015625,0.062255859375,-1.7404580152671756,-0.17557251908396945,-0.45038167938931295
11.0,0.0888671875,-1.009765625,0.05126953125,-1.549618320610687,-0.4580152671755725,-0.5572519083969466
11.01,0.0869140625,-1.019775390625,0.036376953125,-1.8244274809160306,-0.2366412213740458,-0.3893129770992366
11.02,0.093017578125,-1.013671875,0.047607421875,-1.6717557251908397,-0.3969465648854962,-0.4580152671755725
11.03,0.0888671875,-1.01416015625,0.044921875,-1.5954198473282444,-0.0916030534351145,-0.5572519083969466
11.04,0.089599609375,-1.01708984375,0.05322265625,-1.7404580152671756,-0.05343511450381679,-0.26717557251908397
11.05,0.093505859375,-1.0146484375,0.04052734375,-1.7099236641221374,-0.25190839694656486,-0.4351145038167939
