Timestamp,AccX,AccY,AccZ,GyrX,GyrY,GyrZ
0.0,-0.059814453125,0.193115234375,1.04345703125,-1.5877862595419847,-0.1984732824427481,-0.6641221374045801
0.01,-0.053955078125,0.19873046875,1.036376953125,-1.8931297709923665,-0.31297709923664124,-0.45038167938931295
0.02,-0.052734375,0.19189453125,1.033935546875,-1.9312977099236641,-0.21374045801526717,-0.25190839694656486
0.03,-0.054931640625,0.192626953125,1.02783203125,-1.786259541984733,-0.15267175572519084,-0.4351145038167939
0.04,-0.057373046875,0.193359375,1.0283203125,-1.7099236641221374,-0.26717557251908397,-0.3893129770992366
0.05,-0.054443359375,0.19580078125,1.037841796875,-1.7099236641221374,-0.015267175572519083,-0.5877862595419847
0.06,-0.05419921875,0.188720703125,1.032958984375,-1.633587786259542,-0.3816793893129771,-0.549618320610687
0.07,-0.047607421875,0.19580078125,1.041015625,-1.6259541984732824,-0.33587786259541985,-0.4198473282442748
0.08,-0.056884765625,0.1982421875,1.015625,-1.8244274809160306,-0.32061068702290074,-0.5114503816793893
0.09,-0.05322265625,0.19677734375,1.035888671875,-1.6106870229007633,-0.0916030534351145,-0.5190839694656488
0.1,-0.05029296875,0.199462890625,1.030029296875,-1.5877862595419847,-0.0916030534351145,-0.21374045801526717
0.11,-0.05859375,0.19384765625,1.034912109375,-1.5190839694656488,-0.061068702290076333,-0.3282442748091603
0.12,-0.06103515625,0.198974609375,1.037841796875,-1.6793893129770991,-0.2824427480916031,-0.37404580152671757
0.13,-0.074951171875,0.19482421875,1.026611328125,-1.7404580152671756,-0.12213740458015267,-0.46564885496183206
0.14,-0.077880859375,0.195068359375,1.03125,-1.6259541984732824,-0.20610687022900764,-0.44274809160305345
0.15,-0.06005859375,0.191162109375,1.024169921875,-1.7557251908396947,-0.16793893129770993,-0.5801526717557252
0.16,-0.058349609375,0.199951171875,1.04541015625,-1.7404580152671756,-0.1297709923664122,-0.3435114503816794
0.17,-0.053955078125,0.197265625,1.046630859375,-1.6106870229007633,-0.09923664122137404,-0.4351145038167939
0.18,-0.0556640625,0.197021484375,1.039794921875,-1.5725190839694656,-0.31297709923664124,-0.2595419847328244
0.19,-0.058837890625,0.19580078125,1.041748046875,-1.6870229007633588,-0.2824427480916031,-0.32061068702290074
0.2,-0.057861328125,0.197265625,1.03125,-1.5954198473282444,-0.13740458015267176,-0.3893129770992366
0.21,-0.05615234375,0.1953125,1.04052734375,-1.6564885496183206,-0.1450381679389313,-0.5572519083969466
0.22,-0.056884765625,0.190673828125,1.034912109375,-1.5648854961832062,-0.16030534351145037,-0.40458015267175573
0.23,-0.0771484375,0.19970703125,1.03369140625,-1.5801526717557253,-0.1984732824427481,-0.3282442748091603
0.24,-0.0595703125,0.195556640625,1.046142578125,-1.6793893129770991,-0.17557251908396945,-0.33587786259541985
0.25,-0.056884765625,0.19384765625,1.0439453125,-1.7786259541984732,-0.1297709923664122,-0.26717557251908397
0.26,-0.05859375,0.192626953125,1.040771484375,-1.6793893129770991,-0.5190839694656488,-0.32061068702290074
0.27,-0.05615234375,0.197509765625,1.029296875,-1.7251908396946565,-0.183206106870229,-0.3816793893129771
0.28,-0.05615234375,0.19384765625,1.034423828125,-1.6030534351145038,0.03816793893129771,-0.48854961832061067
0.29,-0.06005859375,0.19189453125,1.0322265625,-1.5190839694656488,-0.37404580152671757,-0.37404580152671757
0.3,-0.075927734375,0.1962890625,1.025390625,-1.5572519083969465,-0.1984732824427481,-0.4122137404580153
0.31,-0.05908203125,0.19482421875,1.016357421875,-1.7404580152671756,-0.22137404580152673,-0.44274809160305345
0.32,-0.0595703125,0.196044921875,1.025146484375,-1.6106870229007633,-0.29770992366412213,-0.5648854961832062
0.33,-0.055908203125,0.1962890625,1.04296875,-1.7251908396946565,-0.2748091603053435,-0.48091603053435117
0.34,-0.06005859375,0.197265625,1.03564453125,-1.7786259541984732,-0.13740458015267176,-0.33587786259541985
0.35,-0.0576171875,0.197021484375,1.032958984375,-1.6030534351145038,-0.183206106870229,-0.4580152671755725
0.36,-0.066650390625,0.19140625,1.033935546875,-1.549618320610687,-0.20610687022900764,-0.29770992366412213
0.37,-0.05712890625,0.191162109375,1.03564453125,-1.717557251908397,-0.061068702290076333,-0.5801526717557252
0.38,-0.059326171875,0.195068359375,1.026611328125,-1.5954198473282444,-0.3053435114503817,-0.4732824427480916
0.39,-0.058837890625,0.19287109375,1.0380859375,-1.4961832061068703,-0.22137404580152673,-0.2900763358778626
0.4,-0.060546875,0.193115234375,1.0380859375,-1.6870229007633588,-0.20610687022900764,-0.5038167938931297
0.41,-0.056884765625,0.19873046875,1.035400390625,-1.5267175572519085,-0.2366412213740458,-0.3435114503816794
0.42,-0.061279296875,0.192626953125,1.033447265625,-1.748091603053435,-0.17557251908396945,-0.35877862595419846
0.43,-0.056884765625,0.18896484375,1.034912109375,-1.6106870229007633,-0.22137404580152673,-0.3969465648854962
0.44,-0.05078125,0.1923828125,1.039306640625,-1.5954198473282444,-0.3511450381679389,-0.4732824427480916
0.45,-0.060302734375,0.19482421875,1.02392578125,-1.618320610687023,-0.11450381679389313,-0.5038167938931297
0.46,-0.060302734375,0.19873046875,1.026611328125,-1.7557251908396947,-0.13740458015267176,-0.549618320610687
0.47,-0.06201171875,0.19580078125,1.0302734375,-1.7251908396946565,-0.07633587786259542,-0.4580152671755725
0.48,-0.058837890625,0.200439453125,1.03955078125,-1.618320610687023,-0.10687022900763359,-0.4351145038167939
0.49,-0.05712890625,0.1953125,1.035888671875,-1.6793893129770991,-0.3893129770992366,-0.4122137404580153
0.5,-0.063720703125,0.193359375,1.016357421875,-1.702290076335878,-0.2748091603053435,-0.3969465648854962
0.51,-0.056640625,0.19384765625,1.037353515625,-1.6412213740458015,-0.32061068702290074,-0.4198473282442748
0.52,-0.054443359375,0.1962890625,1.03125,-1.5419847328244274,-0.08396946564885496,-0.366412213740458
0.53,-0.058349609375,0.198486328125,1.026611328125,-1.4961832061068703,0.030534351145038167,-0.1984732824427481
0.54,-0.05712890625,0.1953125,1.02783203125,-1.633587786259542,-0.32061068702290074,-0.3435114503816794
0.55,-0.076171875,0.1962890625,1.032958984375,-1.7633587786259541,-0.0916030534351145,-0.4580152671755725
0.56,-0.056884765625,0.19091796875,1.03955078125,-1.450381679389313,-0.21374045801526717,-0.3969465648854962
0.57,-0.058837890625,0.189208984375,1.04296875,-1.633587786259542,-0.16793893129770993,-0.33587786259541985
0.58,-0.039306640625,0.19580078125,1.032470703125,-1.8702290076335877,2.3740458015267176,-1.8549618320610688
0.59,-0.086181640625,0.17822265625,1.112060546875,-1.8015267175572518,17.862595419847327,-2.053435114503817
0.6,-0.003173828125,0.207763671875,1.037353515625,-2.0610687022900764,27.709923664122137,-6.7251908396946565
0.61,-0.067626953125,0.12646484375,1.1181640625,-1.3358778625954197,16.33587786259542,-14.572519083969466
0.62,-0.267578125,0.070068359375,1.115234375,5.8396946564885495,2.450381679389313,-28.458015267175572
0.63,-0.26220703125,0.240234375,0.91748046875,0.0916030534351145,-11.198473282442748,-28.458015267175572
0.64,0.064453125,0.318115234375,1.019287109375,-1.8625954198473282,-20.106870229007633,-20.03053435114504
0.65,0.140625,0.188720703125,1.187744140625,-1.1755725190839694,-6.709923664122138,-17.3206106870229
0.66,0.393798828125,0.23681640625,1.020751953125,-0.3969465648854962,1.549618320610687,-16.099236641221374
0.67,0.024169921875,0.218017578125,0.956787109375,-0.09923664122137404,1.618320610687023,-11.49618320610687
0.68,-0.042236328125,0.1806640625,1.10546875,-1.9923664122137406,1.2213740458015268,-9.106870229007633
0.69,-0.0390625,0.201171875,1.03369140625,-1.0763358778625953,-1.6030534351145038,-10.938931297709924
0.7,-0.166259765625,0.19580078125,1.028564453125,0.05343511450381679,-5.2748091603053435,-15.664122137404581
0.71,-0.070556640625,-0.041259765625,1.186767578125,8.877862595419847,-14.526717557251908,-40.88549618320611
0.72,-0.123779296875,-0.001953125,1.21826171875,12.786259541984732,-23.251908396946565,-59.17557251908397
0.73,-0.1787109375,0.053955078125,1.148681640625,15.412213740458014,-28.458015267175572,-70.80152671755725
0.74,0.005615234375,0.27197265625,0.974609375,9.938931297709924,-17.82442748091603,-62.63358778625954
0.75,0.07275390625,0.39794921875,0.91796875,0.9083969465648855,-7.763358778625954,-50.396946564885496
0.76,-0.00732421875,0.268798828125,1.067138671875,1.8473282442748091,-7.129770992366412,-35.33587786259542
0.77,-0.022216796875,0.186279296875,1.02685546875,3.1068702290076335,-10.48091603053435,-31.50381679389313
0.78,0.010986328125,0.17431640625,0.984375,4.3816793893129775,-13.511450381679388,-34.030534351145036
0.79,-0.028564453125,0.21484375,0.93505859375,1.9923664122137406,-10.625954198473282,-33.38931297709924
0.8,-0.083984375,0.3056640625,0.96630859375,-0.8320610687022901,-3.5801526717557253,-27.587786259541986
0.81,-0.1201171875,0.339111328125,1.014892578125,-1.7404580152671756,-3.7557251908396947,-16.015267175572518
0.82,-0.07275390625,0.20361328125,1.054931640625,-1.1145038167938932,-4.022900763358779,-11.030534351145038
0.83,-0.014404296875,0.176513671875,1.068603515625,0.7404580152671756,-8.038167938931299,-0.19083969465648856
0.84,-0.1435546875,0.2109375,1.1748046875,3.7786259541984735,-54.00763358778626,2.450381679389313
0.85,-0.164794921875,0.21337890625,1.14013671875,-4.633587786259542,-203.74045801526717,-2.4427480916030535
0.86,-0.127197265625,0.2265625,1.024169921875,-11.702290076335878,-250.13740458015266,-8.48091603053435
0.87,-0.32080078125,0.193603515625,1.5263671875,53.36641221374046,-80.79389312977099,45.87786259541985
0.88,-0.170654296875,0.335693359375,1.234619140625,74.41984732824427,-100.26717557251908,58.213740458015266
0.89,0.008544921875,0.263427734375,1.25439453125,77.72519083969466,-98.44274809160305,64.36641221374046
0.9,-0.07373046875,0.307373046875,0.902587890625,74.38931297709924,-88.61832061068702,69.83206106870229
0.91,0.064208984375,0.28466796875,1.032958984375,76.14503816793894,-87.58015267175573,73.98473282442748
0.92,0.023681640625,0.266357421875,1.310302734375,76.77099236641222,-95.3206106870229,82.27480916030534
0.93,0.181396484375,0.378173828125,1.23193359375,41.63358778625954,-60.20610687022901,65.06870229007633
0.94,0.23046875,0.39892578125,1.06494140625,56.41984732824427,-45.595419847328245,76.83969465648855
0.95,0.22900390625,0.418212890625,1.070556640625,63.12977099236641,-43.49618320610687,87.09923664122137
0.96,0.325439453125,0.3369140625,0.98291015625,68.93129770992367,-29.748091603053435,78.1526717557252
0.97,0.359375,0.28515625,0.909912109375,69.10687022900764,-16.35114503816794,57.61832061068702
0.98,0.27490234375,0.300048828125,0.769287109375,53.44274809160305,-16.51145038167939,38.465648854961835
0.99,0.08544921875,0.42529296875,0.736572265625,26.51145038167939,-26.221374045801525,30.244274809160306
1.0,0.09814453125,0.443603515625,0.684326171875,-5.32824427480916,-32.038167938931295,25.99236641221374
1.01,0.0556640625,0.416015625,0.6123046875,-33.969465648854964,-34.16793893129771,29.564885496183205
1.02,0.06884765625,0.353271484375,0.578125,-65.69465648854961,-30.366412213740457,33.229007633587784
1.03,0.181396484375,0.218505859375,0.58642578125,-90.14503816793894,-16.419847328244273,31.870229007633586
1.04,0.698486328125,-0.37255859375,1.99993896484375,68.82442748091603,97.61832061068702,31.908396946564885
1.05,-0.5615234375,0.16357421875,1.69970703125,-12.49618320610687,66.0,26.33587786259542
1.06,0.0888671875,0.285888671875,1.025390625,0.16793893129770993,32.091603053435115,21.17557251908397
1.07,0.26953125,0.2314453125,0.771240234375,1.0687022900763359,53.57251908396947,13.381679389312977
1.08,0.235107421875,0.23291015625,0.851318359375,-2.0916030534351147,66.61068702290076,9.900763358778626
1.09,0.233154296875,0.22802734375,0.90966796875,-7.404580152671755,79.14503816793894,6.259541984732825
1.1,0.241455078125,0.2333984375,0.8994140625,-11.15267175572519,88.03053435114504,1.1450381679389312
1.11,0.187744140625,0.25244140625,0.9443359375,-19.114503816793892,92.25954198473282,-5.374045801526718
1.12,0.09326171875,0.24267578125,1.185302734375,-48.770992366412216,67.31297709923665,-10.366412213740459
1.13,0.180908203125,0.137451171875,0.928466796875,-59.343511450381676,69.8854961832061,-20.66412213740458
1.14,0.164306640625,0.06884765625,1.058349609375,-64.57251908396947,66.74045801526718,-29.480916030534353
1.15,0.080322265625,0.133056640625,1.12744140625,-64.04580152671755,58.54961832061068,-32.23664122137404
1.16,0.0458984375,0.08544921875,1.034423828125,-63.17557251908397,55.541984732824424,-28.12213740458015
1.17,0.067138671875,0.142578125,1.034912109375,-68.38931297709924,57.32824427480916,-24.709923664122137
1.18,0.0634765625,0.14990234375,0.957763671875,-71.08396946564885,65.79389312977099,-23.244274809160306
1.19,0.025390625,0.231689453125,0.953857421875,-78.78625954198473,78.01526717557252,-20.587786259541986
1.2,0.03515625,0.205078125,0.96868896484375,-55.11450381679389,61.83969465648855,-8.374045801526718
1.21,0.05908203125,0.5,0.90087890625,-20.66412213740458,-21.778625954198475,-10.381679389312977
1.22,1.253173828125,0.8203125,1.99365234375,22.9618320610687,-8.389312977099237,-50.36641221374046
1.23,0.04736328125,0.29638671875,0.96728515625,-9.145038167938932,1.5114503816793894,-48.61068702290076
1.24,0.05224609375,0.176513671875,0.731689453125,-12.572519083969466,3.3893129770992365,-42.38167938931298
1.25,-0.03271484375,0.226318359375,1.30224609375,-7.061068702290076,-8.549618320610687,-30.72519083969466
1.26,0.041015625,0.280517578125,1.02099609375,-9.473282442748092,-4.969465648854962,-36.770992366412216
1.27,0.056884765625,0.122802734375,1.035400390625,-6.312977099236641,-7.183206106870229,-35.25954198473283
1.28,0.146484375,0.162841796875,1.03369140625,-10.709923664122137,-2.2213740458015265,-43.458015267175576
1.29,0.118408203125,0.135009765625,0.992431640625,-12.702290076335878,-2.763358778625954,-50.61832061068702
1.3,0.203857421875,0.128173828125,0.96630859375,-15.335877862595419,-0.1984732824427481,-63.43511450381679
1.31,0.271240234375,0.1103515625,1.269775390625,-12.488549618320612,-10.358778625954198,-77.07633587786259
1.32,0.17138671875,0.353271484375,0.733154296875,-27.35114503816794,21.14503816793893,-70.33587786259542
1.33,-1.507568359375,0.339599609375,0.98291015625,0.8473282442748091,-1.7328244274809161,5.519083969465649
1.34,-0.142578125,0.059814453125,0.91845703125,-4.66412213740458,2.0229007633587788,17.946564885496183
1.35,0.05224609375,0.3486328125,1.2216796875,11.312977099236642,-12.16030534351145,5.129770992366412
1.36,0.151611328125,0.29248046875,0.94921875,-6.931297709923665,21.00763358778626,0.030534351145038167
1.37,0.041015625,0.13037109375,0.951416015625,4.862595419847328,40.3206106870229,-4.244274809160306
1.38,-0.10400390625,0.30908203125,1.135009765625,1.213740458015267,49.37404580152672,1.8473282442748091
1.39,-0.21826171875,0.317626953125,1.292724609375,12.366412213740459,38.69465648854962,24.51145038167939
1.4,-0.143798828125,0.1142578125,1.293701171875,49.23664122137404,24.85496183206107,28.106870229007633
1.41,-0.052001953125,0.201171875,1.3251953125,67.7557251908397,26.65648854961832,21.267175572519083
1.42,-0.120361328125,0.306640625,1.425537109375,94.1145038167939,14.740458015267176,0.33587786259541985
1.43,-0.090087890625,0.254150390625,1.328125,106.85496183206106,-2.8931297709923665,-17.68702290076336
1.44,-0.103759765625,0.236328125,1.25244140625,103.50381679389314,-10.229007633587786,-24.786259541984734
1.45,-0.1201171875,0.3056640625,1.1025390625,86.95419847328245,-17.625954198473284,-26.297709923664122
1.46,-0.082763671875,0.382568359375,1.04443359375,74.2442748091603,-30.206106870229007,-28.31297709923664
1.47,-0.0263671875,0.397216796875,0.975341796875,59.99236641221374,-37.900763358778626,-27.740458015267176
1.48,0.0068359375,0.3671875,1.0078125,46.045801526717554,-43.79389312977099,-22.80916030534351
1.49,-0.00732421875,0.346923828125,1.08056640625,40.99236641221374,-46.404580152671755,-15.587786259541986
1.5,-0.027587890625,0.326416015625,1.126953125,36.42748091603053,-53.29007633587786,-10.114503816793894
1.51,-0.011962890625,0.3232421875,1.060546875,32.85496183206107,-63.12977099236641,-12.007633587786259
1.52,-0.0244140625,0.3330078125,1.052490234375,29.0,-80.99236641221374,-9.068702290076336
1.53,0.003662109375,0.306884765625,1.039794921875,27.633587786259543,-101.34351145038168,-17.99236641221374
1.54,0.547119140625,0.182861328125,0.966552734375,13.389312977099237,-125.54961832061069,-70.50381679389314
1.55,-0.15966796875,0.409423828125,1.19384765625,68.74045801526718,-86.41984732824427,-33.541984732824424
1.56,0.000244140625,0.240966796875,1.073974609375,130.70992366412213,-69.23664122137404,-14.80916030534351
1.57,0.1630859375,0.205322265625,1.147705078125,173.77862595419847,-68.18320610687023,-14.931297709923664
1.58,0.1904296875,0.255615234375,1.092529296875,233.29007633587787,-62.961832061068705,-15.312977099236642
1.59,0.13916015625,0.459228515625,1.069580078125,250.12977099236642,-44.213740458015266,-8.587786259541986
1.6,0.1279296875,0.38037109375,0.98095703125,250.12977099236642,-17.412213740458014,-15.900763358778626
1.61,-0.009521484375,0.69287109375,0.844970703125,250.12977099236642,13.50381679389313,-1.282442748091603
1.62,-0.00634765625,0.718505859375,0.767578125,250.12977099236642,41.67175572519084,23.03053435114504
1.63,0.05126953125,0.66650390625,0.819091796875,250.12977099236642,60.32824427480916,41.7557251908397
1.64,0.13525390625,0.6015625,0.8701171875,250.12977099236642,54.23664122137404,49.45038167938932
1.65,0.15625,0.646240234375,0.854248046875,250.12977099236642,37.80152671755725,59.56488549618321
1.66,0.218017578125,0.703857421875,0.773681640625,250.12977099236642,21.328244274809162,71.00763358778626
1.67,0.187255859375,0.72705078125,0.60986328125,250.12977099236642,10.816793893129772,78.99236641221374
1.68,0.072509765625,0.7216796875,0.46728515625,250.12977099236642,-20.16793893129771,63.58015267175573
1.69,0.068115234375,0.9521484375,0.120361328125,250.12977099236642,-31.893129770992367,43.83206106870229
1.7,0.13427734375,0.89453125,0.26513671875,198.00763358778627,-41.82442748091603,12.732824427480915
1.71,0.27587890625,0.927490234375,0.417236328125,128.05343511450383,-48.12213740458015,-17.053435114503817
1.72,0.2548828125,0.97705078125,0.441650390625,61.343511450381676,-44.83969465648855,-17.450381679389313
1.73,0.246826171875,0.86279296875,0.454833984375,9.366412213740459,-48.52671755725191,-15.053435114503817
1.74,0.22216796875,0.870849609375,0.382080078125,-10.358778625954198,-39.412213740458014,-5.900763358778626
1.75,0.16455078125,0.838134765625,0.43603515625,5.2748091603053435,-29.709923664122137,4.801526717557252
1.76,0.133544921875,0.75390625,0.33349609375,20.259541984732824,-28.053435114503817,11.221374045801527
1.77,0.163818359375,0.749267578125,0.208251953125,25.267175572519083,-21.46564885496183,6.809160305343512
1.78,0.1455078125,0.751953125,0.30126953125,28.702290076335878,-14.17557251908397,-2.0076335877862594
1.79,0.15576171875,0.84033203125,0.365478515625,26.99236641221374,-27.221374045801525,-8.961832061068701
1.8,0.18798828125,0.90966796875,0.28125,25.38167938931298,-35.47328244274809,-4.267175572519084
1.81,0.214599609375,0.826904296875,0.40185546875,35.45038167938932,-51.63358778625954,0.5725190839694656
1.82,0.2373046875,0.82666015625,0.3984375,48.38931297709924,-62.045801526717554,11.687022900763358
1.83,0.18701171875,0.851318359375,0.43115234375,46.70992366412214,-80.55725190839695,28.30534351145038
1.84,0.164306640625,0.81494140625,0.261962890625,36.98473282442748,-95.06870229007633,41.61068702290076
1.85,0.19091796875,0.8291015625,0.226806640625,34.64885496183206,-103.2824427480916,49.47328244274809
1.86,0.2314453125,0.861083984375,0.173095703125,47.00763358778626,-98.96946564885496,64.79389312977099
1.87,0.156982421875,0.80029296875,0.2685546875,70.42748091603053,-92.1526717557252,93.47328244274809
1.88,0.299560546875,0.81884765625,0.34326171875,85.90839694656489,-87.23664122137404,114.3587786259542
1.89,0.396240234375,1.009521484375,0.416015625,74.58778625954199,-117.74045801526718,127.61068702290076
1.9,0.3896484375,1.00341796875,0.30322265625,60.847328244274806,-157.1145038167939,137.1908396946565
1.91,0.284423828125,0.976318359375,0.144287109375,56.54961832061068,-166.65648854961833,151.29770992366412
1.92,0.322265625,0.871337890625,0.1064453125,59.97709923664122,-155.6412213740458,150.59541984732823
1.93,0.370361328125,0.929931640625,0.04052734375,63.229007633587784,-124.58778625954199,148.93129770992365
1.94,0.398681640625,0.958984375,0.158935546875,68.00763358778626,-106.56488549618321,142.31297709923663
1.95,0.447265625,1.00927734375,0.158935546875,75.29007633587786,-100.36641221374046,126.16030534351145
1.96,0.501220703125,0.949951171875,0.189208984375,80.70229007633588,-103.66412213740458,124.29007633587786
1.97,0.55712890625,0.91455078125,0.133544921875,86.74809160305344,-106.2824427480916,120.01526717557252
1.98,0.584716796875,0.88671875,0.098388671875,97.35114503816794,-97.47328244274809,113.06106870229007
1.99,0.512939453125,0.819580078125,0.130859375,107.34351145038168,-81.6030534351145,108.59541984732824
2.0,0.54150390625,0.89208984375,0.121337890625,108.93129770992367,-93.04580152671755,105.87022900763358
2.01,0.517333984375,0.96484375,0.1806640625,107.36641221374046,-111.57251908396947,109.45038167938931
2.02,0.64013671875,0.961669921875,0.20263671875,102.54198473282443,-133.50381679389312,111.91603053435115
2.03,0.541259765625,0.991455078125,0.11962890625,92.73282442748092,-149.0763358778626,119.78625954198473
2.04,0.458740234375,1.0068359375,0.034423828125,82.27480916030534,-142.1679389312977,116.55725190839695
2.05,0.518798828125,0.898681640625,0.00634765625,68.29007633587786,-123.91603053435115,95.13740458015268
2.06,0.572509765625,0.93701171875,0.029296875,53.13740458015267,-121.29770992366412,85.89312977099236
2.07,0.542724609375,0.961669921875,0.01220703125,42.587786259541986,-138.61832061068702,86.0
2.08,0.53369140625,0.8447265625,-0.020751953125,39.038167938931295,-161.82442748091603,95.78625954198473
2.09,0.543212890625,0.803955078125,-0.09375,37.091603053435115,-176.24427480916032,107.06870229007633
2.1,0.508056640625,0.74560546875,-0.267578125,38.93893129770992,-159.1679389312977,111.74045801526718
2.11,0.5498046875,0.5703125,-0.322509765625,38.7557251908397,-120.38931297709924,98.05343511450381
2.12,0.5859375,0.615966796875,-0.301025390625,35.19847328244275,-94.99236641221374,78.74045801526718
2.13,0.590576171875,0.6796875,-0.275390625,30.893129770992367,-87.86259541984732,68.03053435114504
2.14,0.5537109375,0.712890625,-0.211669921875,28.931297709923665,-87.79389312977099,66.61832061068702
2.15,0.62646484375,0.715087890625,-0.201904296875,27.709923664122137,-103.68702290076335,63.465648854961835
2.16,0.62646484375,0.7861328125,-0.27392578125,27.34351145038168,-103.89312977099236,62.969465648854964
2.17,0.629638671875,0.710205078125,-0.244873046875,28.27480916030534,-93.32824427480917,55.458015267175576
2.18,0.718017578125,0.66552734375,-0.32470703125,27.564885496183205,-77.46564885496183,48.6412213740458
2.19,0.69189453125,0.70458984375,-0.347900390625,26.251908396946565,-70.01526717557252,45.267175572519086
2.2,0.659423828125,0.685791015625,-0.354248046875,27.083969465648856,-68.47328244274809,54.29007633587786
2.21,0.669921875,0.638671875,-0.387451171875,31.83969465648855,-79.3587786259542,67.2824427480916
2.22,0.66455078125,0.634765625,-0.400146484375,36.732824427480914,-89.12213740458016,82.12213740458016
2.23,0.679443359375,0.60546875,-0.439453125,42.083969465648856,-93.7175572519084,89.38167938931298
2.24,0.76611328125,0.6357421875,-0.4140625,44.48091603053435,-75.31297709923665,84.34351145038168
2.25,0.70458984375,0.733154296875,-0.329345703125,42.58015267175573,-73.25190839694656,81.96946564885496
2.26,0.694580078125,0.779296875,-0.301513671875,37.69465648854962,-70.8473282442748,82.04580152671755
2.27,0.6923828125,0.796875,-0.25732421875,32.6412213740458,-77.13740458015268,79.03053435114504
2.28,0.67724609375,0.75146484375,-0.326904296875,28.137404580152673,-90.16030534351145,78.48091603053435
2.29,0.732177734375,0.658935546875,-0.402587890625,25.061068702290076,-99.80916030534351,74.2824427480916
2.3,0.773193359375,0.53857421875,-0.4755859375,23.14503816793893,-96.54198473282443,63.99236641221374
2.31,0.706298828125,0.53369140625,-0.50732421875,19.755725190839694,-88.80152671755725,56.6793893129771
2.32,0.608154296875,0.591796875,-0.516357421875,18.106870229007633,-84.33587786259542,59.74045801526717
2.33,0.569091796875,0.55859375,-0.525634765625,18.549618320610687,-81.08396946564885,61.083969465648856
2.34,0.60107421875,0.53466796875,-0.53125,19.80916030534351,-78.04580152671755,56.7557251908397
2.35,0.641357421875,0.5126953125,-0.50927734375,22.549618320610687,-82.29770992366412,51.23664122137404
2.36,0.673095703125,0.4921875,-0.538330078125,26.282442748091604,-85.92366412213741,46.916030534351144
2.37,0.6953125,0.51806640625,-0.59619140625,29.519083969465647,-73.1526717557252,45.2442748091603
2.38,0.7236328125,0.483642578125,-0.595947265625,34.52671755725191,-55.083969465648856,46.25190839694657
2.39,0.715576171875,0.51318359375,-0.62646484375,40.17557251908397,-44.57251908396947,51.88549618320611
2.4,0.66259765625,0.479248046875,-0.590087890625,46.404580152671755,-45.69465648854962,56.412213740458014
2.41,0.65087890625,0.420654296875,-0.572509765625,50.7557251908397,-51.030534351145036,57.18320610687023
2.42,0.648193359375,0.451904296875,-0.6025390625,52.82442748091603,-62.229007633587784,56.396946564885496
2.43,0.669921875,0.443359375,-0.5771484375,53.3587786259542,-62.64885496183206,56.961832061068705
2.44,0.714599609375,0.441650390625,-0.549072265625,51.458015267175576,-60.7557251908397,50.29770992366412
2.45,0.6123046875,0.445556640625,-0.759033203125,36.786259541984734,-48.35114503816794,32.52671755725191
2.46,0.50341796875,0.4443359375,-0.652099609375,25.419847328244273,-25.923664122137403,24.236641221374047
2.47,0.621826171875,0.3447265625,-0.529296875,41.80916030534351,-23.66412213740458,15.65648854961832
2.48,0.6533203125,0.377197265625,-0.603515625,54.404580152671755,-27.870229007633586,10.786259541984732
2.49,0.65380859375,0.419677734375,-0.602783203125,55.62595419847328,-35.7557251908397,14.267175572519085
2.5,0.676513671875,0.416748046875,-0.615478515625,52.20610687022901,-46.900763358778626,17.893129770992367
2.51,0.681884765625,0.40478515625,-0.650146484375,46.48854961832061,-49.64885496183206,23.328244274809162
2.52,0.718994140625,0.382080078125,-0.640380859375,40.33587786259542,-41.61832061068702,20.282442748091604
2.53,0.76611328125,0.378662109375,-0.6005859375,37.091603053435115,-34.32824427480916,15.625954198473282
2.54,0.7685546875,0.42626953125,-0.566650390625,27.82442748091603,-36.7557251908397,8.740458015267176
2.55,0.74853515625,0.451171875,-0.529296875,21.65648854961832,-42.916030534351144,8.816793893129772
2.56,0.735595703125,0.412109375,-0.51123046875,26.6793893129771,-43.52671755725191,5.1603053435114505
2.57,0.655029296875,0.36767578125,-0.419921875,53.14503816793893,-45.87022900763359,-5.8320610687022905
2.58,0.5849609375,0.3828125,-0.50732421875,73.70992366412214,-42.152671755725194,-19.633587786259543
2.59,0.504638671875,0.449462890625,-0.75439453125,70.91603053435115,-26.33587786259542,-35.70229007633588
2.6,0.48779296875,0.45263671875,-0.93212890625,42.76335877862596,-0.4961832061068702,-46.69465648854962
2.61,0.60595703125,0.35400390625,-0.937744140625,-5.595419847328245,6.8320610687022905,-53.82442748091603
2.62,0.609375,0.380615234375,-0.5400390625,10.931297709923664,-14.213740458015268,-26.229007633587788
2.63,0.84228515625,0.291259765625,-0.491455078125,97.77099236641222,-16.34351145038168,-5.99236641221374
2.64,0.788330078125,0.214599609375,-0.626708984375,145.72519083969465,-2.030534351145038,-3.2519083969465647
2.65,0.70947265625,0.265380859375,-0.68212890625,164.26717557251908,-12.877862595419847,-6.3816793893129775
2.66,0.578857421875,0.245361328125,-0.766357421875,162.3587786259542,-25.96946564885496,-11.198473282442748
2.67,0.597412109375,0.198974609375,-0.785400390625,149.04580152671755,-33.52671755725191,-21.541984732824428
2.68,0.63134765625,0.19677734375,-0.760009765625,139.87786259541986,-46.02290076335878,-34.79389312977099
2.69,0.627685546875,0.189208984375,-0.731201171875,142.4885496183206,-36.93893129770992,-41.282442748091604
2.7,0.61279296875,0.202392578125,-0.749267578125,154.74809160305344,-22.778625954198475,-41.0763358778626
2.71,0.519775390625,0.191162109375,-0.775146484375,169.793893129771,-18.625954198473284,-34.70992366412214
2.72,0.4287109375,0.2197265625,-1.086181640625,157.9083969465649,-11.045801526717558,-21.702290076335878
2.73,0.480224609375,0.123046875,-1.10888671875,120.27480916030534,-7.106870229007634,-16.717557251908396
2.74,0.56591796875,0.052001953125,-0.974609375,92.77862595419847,-3.183206106870229,-18.458015267175572
2.75,0.59619140625,0.066650390625,-0.8359375,71.13740458015268,-4.587786259541985,-21.793893129770993
2.76,0.615966796875,0.07373046875,-0.830810546875,58.87786259541985,-3.885496183206107,-25.12213740458015
2.77,0.59375,0.076416015625,-0.80517578125,57.786259541984734,2.145038167938931,-23.16793893129771
2.78,0.56005859375,0.075439453125,-0.79150390625,62.465648854961835,-0.6564885496183206,-15.34351145038168
2.79,0.603271484375,0.04443359375,-0.7939453125,64.17557251908397,-5.488549618320611,-15.595419847328245
2.8,0.595703125,0.03564453125,-0.78369140625,60.908396946564885,-13.763358778625955,-16.404580152671755
2.81,0.556640625,0.056640625,-0.80126953125,54.48091603053435,-24.603053435114504,-17.603053435114504
2.82,0.588134765625,0.071044921875,-0.7958984375,50.961832061068705,-29.80916030534351,-23.129770992366414
2.83,0.575439453125,0.060302734375,-0.784912109375,56.48854961832061,-29.786259541984734,-27.793893129770993
2.84,0.577392578125,0.015625,-0.839599609375,65.78625954198473,-29.0,-30.984732824427482
2.85,0.41552734375,0.08740234375,-1.115478515625,64.38167938931298,-7.122137404580153,-20.755725190839694
2.86,0.4365234375,0.013427734375,-1.050537109375,44.778625954198475,0.12213740458015267,-16.30534351145038
2.87,0.546142578125,-0.032958984375,-0.890380859375,27.671755725190838,4.206106870229007,-19.625954198473284
2.88,0.5693359375,-0.021240234375,-0.80126953125,28.16030534351145,2.267175572519084,-27.83206106870229
2.89,0.607421875,0.017578125,-0.807373046875,31.16793893129771,-2.984732824427481,-32.54961832061068
2.9,0.59521484375,-0.0107421875,-0.85595703125,31.68702290076336,-8.664122137404581,-38.961832061068705
2.91,0.5546875,0.010009765625,-0.84912109375,29.946564885496183,-14.916030534351146,-41.67175572519084
2.92,0.549560546875,0.014892578125,-0.800048828125,31.0,-14.274809160305344,-37.465648854961835
2.93,0.539306640625,0.036376953125,-0.796142578125,34.56488549618321,-12.244274809160306,-33.12213740458015
2.94,0.56005859375,0.04296875,-0.825439453125,34.74809160305343,-8.419847328244275,-26.48854961832061
2.95,0.56982421875,0.02197265625,-0.806396484375,34.98473282442748,-11.229007633587786,-25.72519083969466
2.96,0.54541015625,0.02587890625,-0.80419921875,36.213740458015266,-18.9618320610687,-23.83206106870229
2.97,0.53857421875,-0.005126953125,-0.79833984375,40.38167938931298,-21.419847328244273,-24.206106870229007
2.98,0.544189453125,-0.006591796875,-0.8544921875,44.51908396946565,-19.763358778625953,-24.671755725190838
2.99,0.4765625,0.019775390625,-0.927978515625,44.76335877862596,-17.53435114503817,-21.022900763358777
3.0,0.48193359375,0.01220703125,-0.922607421875,44.93893129770992,-11.236641221374045,-17.404580152671755
3.01,0.484130859375,-0.00927734375,-0.910400390625,42.595419847328245,-17.083969465648856,-14.465648854961833
3.02,0.489013671875,0.02294921875,-0.9091796875,37.282442748091604,-17.923664122137403,-10.129770992366412
3.03,0.516845703125,-0.00634765625,-0.859619140625,31.34351145038168,-24.358778625954198,-8.335877862595419
3.04,0.51025390625,-0.05029296875,-0.83837890625,26.389312977099237,-30.641221374045802,-7.6106870229007635
3.05,0.535888671875,-0.03466796875,-0.874755859375,15.610687022900763,-41.83206106870229,-11.022900763358779
3.06,0.533935546875,-0.0107421875,-0.906982421875,7.847328244274809,-42.961832061068705,-9.816793893129772
3.07,0.529052734375,-0.072509765625,-0.85546875,14.748091603053435,-46.48854961832061,-12.877862595419847
3.08,0.5341796875,-0.1044921875,-0.81396484375,21.80916030534351,-49.56488549618321,-16.12213740458015
3.09,0.472412109375,-0.08447265625,-0.820068359375,30.69465648854962,-57.89312977099237,-13.961832061068701
3.1,0.5380859375,-0.069580078125,-0.8349609375,27.80916030534351,-71.64885496183206,-17.412213740458014
3.11,0.5732421875,-0.057861328125,-0.848388671875,23.076335877862597,-83.36641221374046,-22.061068702290076
3.12,0.387939453125,-0.010009765625,-1.13623046875,1.0,-99.96946564885496,-19.64885496183206
3.13,0.55517578125,-0.037109375,-0.779296875,13.473282442748092,-98.17557251908397,-28.99236641221374
3.14,0.42724609375,-0.083740234375,-0.94091796875,-3.145038167938931,-101.82442748091603,-27.68702290076336
3.15,0.372314453125,-0.022705078125,-0.9658203125,-11.030534351145038,-103.64885496183206,-23.763358778625953
3.16,0.364501953125,-0.02392578125,-0.9423828125,-13.091603053435115,-98.86259541984732,-19.99236641221374
3.17,0.373046875,-0.0458984375,-0.908203125,-16.137404580152673,-95.34351145038168,-19.221374045801525
3.18,0.318359375,-0.060302734375,-0.888427734375,-13.916030534351146,-94.70992366412214,-15.83206106870229
3.19,0.30615234375,-0.062255859375,-0.9072265625,-13.80916030534351,-94.77862595419847,-12.786259541984732
3.2,0.272216796875,-0.059814453125,-0.94873046875,-15.473282442748092,-91.4885496183206,-8.717557251908397
3.21,0.24365234375,-0.026611328125,-1.002685546875,-20.72519083969466,-84.57251908396947,-5.198473282442748
3.22,0.281494140625,-0.032470703125,-0.993408203125,-25.557251908396946,-79.36641221374046,-6.32824427480916
3.23,0.257080078125,-0.0078125,-0.95166015625,-19.587786259541986,-71.54198473282443,-3.648854961832061
3.24,0.2216796875,-0.033203125,-0.903076171875,-9.091603053435115,-66.7175572519084,-0.6106870229007634
3.25,0.280029296875,-0.040771484375,-0.95068359375,-6.916030534351145,-66.29770992366412,-4.091603053435114
3.26,0.28662109375,-0.022705078125,-0.9384765625,-4.984732824427481,-67.06870229007633,-10.435114503816793
3.27,0.247314453125,-0.004638671875,-0.920654296875,-0.10687022900763359,-65.02290076335878,-10.068702290076336
3.28,0.213623046875,-0.010009765625,-1.0107421875,0.7480916030534351,-57.3206106870229,-10.358778625954198
3.29,0.2021484375,-0.013916015625,-0.98681640625,-1.5954198473282444,-48.93893129770992,-10.404580152671755
3.3,0.212158203125,-0.03125,-0.9736328125,-1.4274809160305344,-43.51145038167939,-12.259541984732824
3.31,0.23046875,-0.004150390625,-0.951171875,-1.1450381679389312,-40.778625954198475,-14.13740458015267
3.32,0.201904296875,-0.014404296875,-0.959716796875,-0.37404580152671757,-37.83969465648855,-12.32824427480916
3.33,0.198974609375,-0.005615234375,-0.990966796875,-1.083969465648855,-35.30534351145038,-9.916030534351146
3.34,0.18994140625,0.01708984375,-0.977783203125,-1.3969465648854962,-30.87786259541985,-7.870229007633588
3.35,0.202392578125,-0.00146484375,-0.96044921875,0.1984732824427481,-28.717557251908396,-8.98473282442748
3.36,0.210205078125,-0.005859375,-0.976806640625,-1.4961832061068703,-29.267175572519083,-11.374045801526718
3.37,0.170654296875,-0.011474609375,-0.931884765625,1.2442748091603053,-24.595419847328245,-9.297709923664122
3.38,0.179443359375,-0.015380859375,-0.9755859375,1.549618320610687,-24.977099236641223,-10.80916030534351
3.39,0.20166015625,-0.029052734375,-0.962890625,0.3816793893129771,-27.671755725190838,-12.702290076335878
3.4,0.201416015625,0.000732421875,-0.98193359375,2.2977099236641223,-25.81679389312977,-14.580152671755725
3.41,0.201171875,-0.003173828125,-0.95751953125,4.00763358778626,-23.977099236641223,-16.923664122137403
3.42,0.187744140625,-0.0107421875,-0.982666015625,9.412213740458014,-21.885496183206108,-17.47328244274809
3.43,0.174072265625,0.013916015625,-0.980224609375,9.442748091603054,-22.80916030534351,-19.328244274809162
3.44,0.19677734375,-0.018310546875,-0.928466796875,10.786259541984732,-24.84732824427481,-19.68702290076336
3.45,0.17236328125,-0.019287109375,-0.92626953125,11.83969465648855,-28.671755725190838,-17.977099236641223
3.46,0.202392578125,-0.000244140625,-0.9755859375,9.534351145038167,-29.610687022900763,-16.6793893129771
3.47,0.135986328125,-0.011474609375,-0.958740234375,10.244274809160306,-30.671755725190838,-13.625954198473282
3.48,0.16259765625,0.02392578125,-0.99169921875,6.557251908396947,-29.587786259541986,-10.381679389312977
3.49,0.185791015625,0.01953125,-0.901611328125,13.305343511450381,-27.717557251908396,-5.038167938931298
3.5,0.246826171875,-0.01171875,-0.9287109375,24.213740458015266,-26.15267175572519,-5.404580152671755
3.51,0.254150390625,-0.052490234375,-0.976806640625,24.908396946564885,-24.923664122137403,-13.587786259541986
3.52,0.172607421875,0.016845703125,-1.090087890625,19.129770992366414,-16.0381679389313,-10.34351145038168
3.53,0.1015625,0.017333984375,-1.1123046875,5.412213740458015,-14.48091603053435,-5.320610687022901
3.54,0.098388671875,0.009521484375,-1.109619140625,-7.0,-9.870229007633588,-5.32824427480916
3.55,0.005859375,-0.037353515625,-1.08251953125,-11.49618320610687,-3.6030534351145036,4.67175572519084
3.56,-0.005126953125,-0.0625,-0.99365234375,-10.01526717557252,-3.6030534351145036,6.206106870229007
3.57,0.10595703125,-0.011474609375,-1.0234375,-15.198473282442748,-3.3206106870229006,-1.2366412213740459
3.58,0.076171875,-0.047119140625,-1.024658203125,-19.366412213740457,-6.793893129770993,-5.320610687022901
3.59,0.093505859375,-0.0390625,-0.992919921875,-21.633587786259543,-12.19083969465649,-5.106870229007634
3.6,0.0244140625,-0.012939453125,-0.979248046875,-20.282442748091604,-17.14503816793893,-3.7709923664122136
3.61,0.05810546875,-0.05712890625,-0.94189453125,-18.99236641221374,-14.625954198473282,1.16793893129771
3.62,0.018310546875,-0.051513671875,-0.8818359375,-15.801526717557252,-9.083969465648854,4.66412213740458
3.63,0.06591796875,-0.043212890625,-0.900146484375,-12.32824427480916,-8.01526717557252,2.49618320610687
3.64,0.09423828125,-0.048828125,-0.9560546875,-13.48091603053435,-11.50381679389313,-0.32061068702290074
3.65,0.037109375,0.011962890625,-0.970703125,-11.183206106870228,-11.0,2.6259541984732824
3.66,0.015869140625,0.0390625,-0.97900390625,-6.587786259541985,-6.541984732824427,6.641221374045801
3.67,0.12255859375,-0.056884765625,-0.940185546875,-2.1603053435114505,-6.030534351145038,2.2595419847328246
3.68,0.127685546875,-0.036376953125,-0.952880859375,-0.5801526717557252,-7.435114503816794,-2.717557251908397
3.69,0.143310546875,-0.059814453125,-0.922119140625,-1.717557251908397,-9.938931297709924,-6.00763358778626
3.7,0.12548828125,-0.052490234375,-0.898193359375,1.083969465648855,-15.511450381679388,-9.793893129770993
3.71,0.092529296875,-0.048583984375,-0.930908203125,3.9770992366412212,-16.885496183206108,-15.587786259541986
3.72,0.046875,-0.02783203125,-0.93603515625,6.351145038167939,-14.900763358778626,-10.725190839694656
3.73,0.06103515625,-0.0341796875,-0.958984375,7.5038167938931295,-14.099236641221374,-8.290076335877863
3.74,0.052490234375,-0.03369140625,-0.968994140625,7.8320610687022905,-13.0,-6.183206106870229
3.75,0.060791015625,-0.0087890625,-0.965576171875,7.465648854961832,-10.961832061068701,-4.778625954198473
3.76,0.03369140625,-0.027587890625,-0.9697265625,7.66412213740458,-10.679389312977099,-2.786259541984733
3.77,0.05615234375,-0.0224609375,-0.93798828125,7.435114503816794,-10.610687022900763,-2.6564885496183206
3.78,0.057861328125,-0.050537109375,-0.956787109375,7.114503816793893,-9.641221374045802,-3.0763358778625953
3.79,0.069580078125,-0.057861328125,-0.967041015625,5.366412213740458,-7.175572519083969,-4.824427480916031
3.8,0.0673828125,-0.040771484375,-0.972900390625,4.213740458015267,-6.297709923664122,-7.412213740458015
3.81,0.043212890625,-0.02978515625,-1.00048828125,2.1603053435114505,-5.748091603053435,-6.717557251908397
3.82,0.073486328125,-0.050537109375,-0.966796875,2.3435114503816794,-1.2290076335877862,-8.076335877862595
3.83,0.069091796875,-0.061767578125,-0.961181640625,3.8702290076335877,0.07633587786259542,-10.748091603053435
3.84,0.045166015625,-0.060546875,-0.96484375,5.984732824427481,-1.7328244274809161,-11.198473282442748
3.85,0.043701171875,-0.04443359375,-0.96142578125,7.717557251908397,-4.900763358778626,-9.67175572519084
3.86,0.031982421875,-0.037109375,-0.955810546875,7.67175572519084,-6.068702290076335,-7.99236641221374
3.87,0.0556640625,-0.039794921875,-0.97998046875,7.022900763358779,-4.175572519083969,-7.778625954198473
3.88,0.044189453125,-0.04541015625,-0.9833984375,5.580152671755725,-1.1068702290076335,-6.916030534351145
3.89,0.03369140625,-0.054931640625,-0.931396484375,7.137404580152672,-0.9770992366412213,-5.129770992366412
3.9,0.041748046875,-0.048583984375,-0.95751953125,7.450381679389313,-1.083969465648855,-4.465648854961832
3.91,0.039306640625,-0.047119140625,-0.95703125,7.129770992366412,0.16030534351145037,-4.633587786259542
3.92,0.046630859375,-0.0556640625,-0.960205078125,6.778625954198473,-0.2824427480916031,-4.458015267175573
3.93,0.0546875,-0.047607421875,-0.9677734375,5.251908396946565,0.1450381679389313,-4.183206106870229
3.94,0.02001953125,-0.0263671875,-0.96875,4.519083969465649,1.9312977099236641,-2.786259541984733
3.95,0.045166015625,-0.0654296875,-0.9580078125,4.236641221374046,3.2213740458015265,-2.3282442748091605
3.96,0.029296875,-0.073486328125,-0.945556640625,5.0,2.6564885496183206,-0.07633587786259542
3.97,0.046630859375,-0.07666015625,-0.951416015625,5.114503816793893,1.8931297709923665,-2.3740458015267176
3.98,0.060546875,-0.0654296875,-0.96875,4.648854961832061,1.3129770992366412,-2.0381679389312977
3.99,0.0439453125,-0.057861328125,-0.9892578125,3.969465648854962,1.6641221374045803,-1.8549618320610688
4.0,0.045654296875,-0.07568359375,-0.980712890625,4.396946564885496,1.7099236641221374,-2.549618320610687
4.01,0.045654296875,-0.073486328125,-0.976318359375,2.83206106870229,1.2900763358778626,-3.1297709923664123
4.02,0.06591796875,-0.047119140625,-0.98046875,1.0229007633587786,3.114503816793893,-5.427480916030534
4.03,0.039794921875,-0.057373046875,-0.98046875,-0.35877862595419846,3.595419847328244,-6.190839694656488
4.04,0.0556640625,-0.062255859375,-0.978515625,-0.3816793893129771,4.015267175572519,-5.9465648854961835
4.05,0.062744140625,-0.06787109375,-0.961669921875,-0.6183206106870229,4.633587786259542,-5.694656488549619
4.06,0.06689453125,-0.080810546875,-0.97607421875,-0.3969465648854962,5.015267175572519,-4.229007633587786
4.07,0.06689453125,-0.06689453125,-0.970458984375,-0.22137404580152673,4.938931297709924,-2.9083969465648853
4.08,0.087646484375,-0.092529296875,-0.98291015625,-0.8702290076335878,5.122137404580153,-2.854961832061069
4.09,0.06787109375,-0.052734375,-0.97900390625,-1.6564885496183206,4.465648854961832,-2.33587786259542
4.1,0.070068359375,-0.06787109375,-0.97509765625,-2.3282442748091605,3.0839694656488548,-3.5267175572519083
4.11,0.05322265625,-0.05322265625,-0.973876953125,-2.8091603053435112,1.5038167938931297,-4.66412213740458
4.12,0.08447265625,-0.09326171875,-0.990478515625,-3.5114503816793894,1.099236641221374,-6.091603053435114
4.13,0.05517578125,-0.056396484375,-0.97265625,-2.8396946564885495,0.44274809160305345,-5.511450381679389
4.14,0.04638671875,-0.06005859375,-0.981689453125,-2.66412213740458,0.5877862595419847,-4.33587786259542
4.15,0.064208984375,-0.039306640625,-0.996826171875,-3.1068702290076335,1.4122137404580153,-3.3740458015267176
4.16,0.062255859375,-0.03515625,-0.988037109375,-3.9770992366412212,3.015267175572519,-2.3435114503816794
4.17,0.064208984375,-0.069091796875,-0.990234375,-4.106870229007634,3.2977099236641223,-2.7938931297709924
4.18,0.075927734375,-0.0556640625,-0.98095703125,-4.572519083969466,2.7938931297709924,-3.595419847328244
4.19,0.05859375,-0.047607421875,-0.990234375,-5.961832061068702,3.7557251908396947,-2.50381679389313
4.2,0.06298828125,-0.04931640625,-0.984130859375,-5.442748091603053,3.564885496183206,-2.66412213740458
4.21,0.0751953125,-0.053955078125,-0.97900390625,-4.633587786259542,3.2977099236641223,-2.030534351145038
4.22,0.0625,-0.048828125,-0.98193359375,-4.259541984732825,3.1603053435114505,-1.3282442748091603
4.23,0.049560546875,-0.05224609375,-0.976806640625,-3.8244274809160306,2.0916030534351147,-1.3129770992366412
4.24,0.049560546875,-0.05517578125,-0.97607421875,-3.4427480916030535,1.2900763358778626,-1.633587786259542
4.25,0.051513671875,-0.048095703125,-0.9755859375,-2.7022900763358777,0.8702290076335878,-1.4045801526717556
4.26,0.066162109375,-0.0498046875,-0.9765625,-2.3740458015267176,0.3053435114503817,-0.8549618320610687
4.27,0.067138671875,-0.054931640625,-0.979736328125,-2.5877862595419847,0.5267175572519084,-0.10687022900763359
4.28,0.073486328125,-0.046875,-0.984130859375,-2.1068702290076335,1.7557251908396947,0.6793893129770993
4.29,0.08056640625,-0.069091796875,-0.973876953125,-2.3893129770992365,1.900763358778626,-0.42748091603053434
4.3,0.07080078125,-0.050537109375,-0.972900390625,-2.4580152671755724,1.8244274809160306,0.10687022900763359
4.31,0.0771484375,-0.054443359375,-0.970947265625,-3.877862595419847,0.6030534351145038,-0.2748091603053435
4.32,0.070556640625,-0.03759765625,-0.986572265625,-3.1755725190839694,0.7404580152671756,-0.35877862595419846
4.33,0.08642578125,-0.043212890625,-0.977294921875,-1.8778625954198473,1.2061068702290076,-0.2748091603053435
4.34,0.051025390625,-0.07568359375,-0.971923828125,-2.1068702290076335,-0.5572519083969466,-1.251908396946565
4.35,0.075439453125,-0.055419921875,-0.970458984375,-1.4732824427480915,-1.549618320610687,-2.0839694656488548
4.36,0.07958984375,-0.05029296875,-0.970703125,-1.0076335877862594,-2.8702290076335877,-3.236641221374046
4.37,0.0859375,-0.051025390625,-0.988525390625,-2.572519083969466,-2.854961832061069,-4.938931297709924
4.38,0.091796875,-0.054931640625,-0.986083984375,-4.206106870229007,-2.145038167938931,-7.549618320610687
4.39,0.08642578125,-0.046630859375,-1.0205078125,-7.748091603053435,-0.35877862595419846,-9.16793893129771
4.4,0.07958984375,-0.05517578125,-0.962158203125,-9.145038167938932,0.25190839694656486,-9.473282442748092
4.41,0.07080078125,-0.052490234375,-0.986328125,-8.51908396946565,-0.0916030534351145,-8.969465648854962
4.42,0.055908203125,-0.068115234375,-0.962158203125,-8.442748091603054,-0.7404580152671756,-6.633587786259542
4.43,0.06591796875,-0.07373046875,-0.958984375,-3.8244274809160306,-2.648854961832061,-5.541984732824427
4.44,0.0791015625,-0.057861328125,-0.96630859375,-3.7938931297709924,-3.2061068702290076,-5.442748091603053
4.45,0.074462890625,-0.060791015625,-0.97900390625,-5.206106870229007,-2.2748091603053435,-6.511450381679389
4.46,0.071044921875,-0.05078125,-0.955078125,-7.152671755725191,-0.022900763358778626,-6.1603053435114505
4.47,0.059326171875,-0.06787109375,-0.938232421875,-5.6183206106870225,-3.1526717557251906,-5.099236641221374
4.48,0.05615234375,-0.0693359375,-0.942626953125,-3.7251908396946565,-3.2290076335877864,-3.49618320610687
4.49,0.066650390625,-0.060302734375,-0.943359375,-1.83206106870229,-3.4732824427480917,-3.2748091603053435
4.5,0.073486328125,-0.0498046875,-0.961669921875,-1.6106870229007633,-3.4580152671755724,-3.50381679389313
4.51,0.0693359375,-0.039794921875,-0.977783203125,-2.122137404580153,-3.8244274809160306,-3.7786259541984735
4.52,0.068359375,-0.03662109375,-0.970703125,-2.4580152671755724,-2.877862595419847,-2.946564885496183
4.53,0.056640625,-0.04736328125,-0.968017578125,-2.3053435114503817,-2.732824427480916,-2.33587786259542
4.54,0.054931640625,-0.0615234375,-0.9638671875,-2.236641221374046,-3.1755725190839694,-3.33587786259542
4.55,0.049072265625,-0.0361328125,-0.969970703125,-2.0763358778625953,-2.099236641221374,-1.702290076335878
4.56,0.06884765625,-0.064208984375,-0.950439453125,-0.648854961832061,-2.145038167938931,-1.5267175572519085
4.57,0.074951171875,-0.05615234375,-0.9580078125,-0.2595419847328244,-2.2977099236641223,-2.145038167938931
4.58,0.069580078125,-0.04443359375,-0.969970703125,-0.5648854961832062,-2.801526717557252,-3.2442748091603053
4.59,0.077392578125,-0.051025390625,-0.976806640625,0.13740458015267176,-4.32824427480916,-5.740458015267175
4.6,0.044677734375,-0.02783203125,-1.005859375,-0.061068702290076333,-3.9389312977099236,-5.0458015267175576
4.61,0.060302734375,-0.02685546875,-0.976318359375,-4.8396946564885495,-2.0076335877862594,-5.67175572519084
4.62,0.056884765625,-0.0634765625,-0.959716796875,-5.015267175572519,-0.9083969465648855,-6.198473282442748
4.63,0.06591796875,-0.0703125,-0.949951171875,-4.702290076335878,-0.1297709923664122,-5.679389312977099
4.64,0.052490234375,-0.05322265625,-0.95263671875,-5.793893129770993,0.5190839694656488,-4.076335877862595
4.65,0.049072265625,-0.042236328125,-0.96728515625,-3.9236641221374047,1.633587786259542,-3.854961832061069
4.66,0.06298828125,-0.03955078125,-0.971923828125,-4.129770992366412,3.8702290076335877,-1.297709923664122
4.67,0.06787109375,-0.04638671875,-0.984130859375,-4.511450381679389,1.618320610687023,-1.7251908396946565
4.68,0.064208984375,-0.04248046875,-0.983642578125,-5.396946564885496,1.5572519083969465,-1.6259541984732824
4.69,0.083984375,-0.033935546875,-0.973876953125,-6.748091603053435,3.030534351145038,-1.6641221374045803
4.7,0.08740234375,-0.02734375,-0.986572265625,-8.587786259541986,5.358778625954199,-1.1755725190839694
4.71,0.087646484375,-0.02099609375,-0.97705078125,-7.847328244274809,7.770992366412214,0.2595419847328244
4.72,0.0673828125,-0.015869140625,-0.9755859375,-10.091603053435115,9.236641221374045,2.2061068702290076
4.73,0.0712890625,-0.024658203125,-0.965576171875,-8.709923664122137,9.206106870229007,3.1755725190839694
4.74,0.072998046875,-0.034423828125,-0.9619140625,-7.0534351145038165,7.633587786259542,2.633587786259542
4.75,0.067626953125,-0.033935546875,-0.9541015625,-5.648854961832061,5.877862595419847,1.5114503816793894
4.76,0.066650390625,-0.039306640625,-0.962646484375,-4.908396946564886,4.419847328244275,0.29770992366412213
4.77,0.083984375,-0.043701171875,-0.98388671875,-4.679389312977099,3.053435114503817,-1.1297709923664123
4.78,0.08740234375,-0.04541015625,-0.969482421875,-4.473282442748092,2.099236641221374,-2.5801526717557253
4.79,0.083251953125,-0.04345703125,-0.96044921875,-5.251908396946565,1.6259541984732824,-3.9083969465648853
4.8,0.084228515625,-0.04150390625,-0.960205078125,-6.244274809160306,0.8244274809160306,-5.687022900763359
4.81,0.08837890625,-0.0576171875,-0.970703125,-6.931297709923665,0.17557251908396945,-7.091603053435114
4.82,0.08935546875,-0.05419921875,-0.97412109375,-7.1679389312977095,-0.0916030534351145,-8.312977099236642
4.83,0.092529296875,-0.035400390625,-0.98193359375,-7.66412213740458,0.48091603053435117,-7.923664122137405
4.84,0.0859375,-0.031494140625,-0.95849609375,-7.4961832061068705,1.6030534351145038,-8.145038167938932
4.85,0.080078125,-0.040283203125,-0.964111328125,-7.038167938931298,1.4427480916030535,-7.702290076335878
4.86,0.06201171875,-0.02099609375,-0.97705078125,-6.32824427480916,1.5801526717557253,-6.282442748091603
4.87,0.06591796875,-0.009521484375,-0.973388671875,-5.549618320610687,1.6488549618320612,-5.129770992366412
4.88,0.0546875,0.008056640625,-0.97900390625,-5.030534351145038,1.381679389312977,-3.053435114503817
4.89,0.053955078125,0.013427734375,-0.970458984375,-4.816793893129771,1.213740458015267,-1.0610687022900764
4.9,0.066162109375,0.000732421875,-0.973388671875,-3.954198473282443,1.8244274809160306,0.13740458015267176
4.91,0.07861328125,-0.01806640625,-0.95849609375,-3.381679389312977,1.6259541984732824,0.3053435114503817
4.92,0.078857421875,-0.01953125,-0.967041015625,-1.6030534351145038,1.0916030534351144,0.5877862595419847
4.93,0.0771484375,-0.044189453125,-0.95458984375,-0.3969465648854962,0.6946564885496184,0.06870229007633588
4.94,0.07958984375,-0.028564453125,-0.966064453125,0.3053435114503817,0.015267175572519083,-0.37404580152671757
4.95,0.086181640625,-0.01806640625,-0.977294921875,0.21374045801526717,-0.19083969465648856,-0.8244274809160306
4.96,0.076171875,-0.0185546875,-0.9775390625,-0.4961832061068702,-0.31297709923664124,-0.05343511450381679
4.97,0.091796875,-0.0244140625,-0.98193359375,-1.0,-0.13740458015267176,-0.04580152671755725
4.98,0.08447265625,-0.026611328125,-0.97412109375,-1.4045801526717556,0.2824427480916031,-0.44274809160305345
4.99,0.071533203125,-0.017822265625,-0.9560546875,-1.8396946564885497,0.06870229007633588,-0.4580152671755725
5.0,0.07958984375,-0.03759765625,-0.958740234375,-1.366412213740458,-0.40458015267175573,-1.2061068702290076
5.01,0.088623046875,-0.034423828125,-0.98046875,-1.5572519083969465,-0.549618320610687,-1.5725190839694656
5.02,0.068115234375,-0.021240234375,-0.96484375,-1.3511450381679388,-0.7557251908396947,-0.6335877862595419
5.03,0.0712890625,-0.032958984375,-0.9677734375,-0.8320610687022901,-0.9312977099236641,-0.7633587786259542
5.04,0.091796875,-0.0439453125,-0.98291015625,-0.3511450381679389,-1.0076335877862594,-1.4427480916030535
5.05,0.07177734375,-0.01220703125,-0.971923828125,0.7404580152671756,-0.24427480916030533,-0.7404580152671756
5.06,0.073486328125,-0.030029296875,-0.98486328125,0.5877862595419847,-0.022900763358778626,-0.8244274809160306
5.07,0.09326171875,-0.012939453125,-0.9775390625,1.0458015267175573,0.24427480916030533,-1.1908396946564885
5.08,0.07275390625,-0.017578125,-0.975830078125,1.366412213740458,-0.4122137404580153,-0.7633587786259542
5.09,0.074462890625,-0.026123046875,-0.97265625,2.1374045801526718,-1.7633587786259541,-1.0
5.1,0.085693359375,-0.030029296875,-0.98388671875,1.381679389312977,-1.4274809160305344,-1.816793893129771
5.11,0.0751953125,-0.02783203125,-0.972900390625,0.7251908396946565,-1.0763358778625953,-1.6488549618320612
5.12,0.082275390625,-0.038330078125,-0.965576171875,0.5725190839694656,-1.2671755725190839,-1.6030534351145038
5.13,0.08203125,-0.031494140625,-0.96337890625,0.6259541984732825,-1.5038167938931297,-1.6870229007633588
5.14,0.0634765625,-0.031982421875,-0.9775390625,1.0534351145038168,-1.6106870229007633,-1.3969465648854962
5.15,0.06787109375,-0.024169921875,-0.966552734375,1.618320610687023,-2.0839694656488548,-0.7786259541984732
5.16,0.069091796875,-0.02392578125,-0.980224609375,2.1297709923664123,-1.9694656488549618,-0.7251908396946565
5.17,0.07470703125,-0.0302734375,-0.959228515625,2.145038167938931,-1.717557251908397,-0.5190839694656488
5.18,0.0869140625,-0.03369140625,-0.96044921875,2.099236641221374,-1.702290076335878,-0.8015267175572519
5.19,0.08056640625,-0.033935546875,-0.95947265625,1.7557251908396947,-1.465648854961832,-0.9847328244274809
5.2,0.085693359375,-0.04541015625,-0.95654296875,0.4198473282442748,-2.0763358778625953,-2.0763358778625953
5.21,0.0830078125,-0.043701171875,-0.96240234375,0.45038167938931295,-1.7938931297709924,-2.435114503816794
5.22,0.0830078125,-0.042724609375,-0.966552734375,0.9389312977099237,-2.3282442748091605,-3.0229007633587788
5.23,0.076171875,-0.0283203125,-0.981201171875,0.8625954198473282,-3.2519083969465647,-3.213740458015267
5.24,0.087646484375,-0.04296875,-0.970458984375,-0.31297709923664124,-3.404580152671756,-2.9923664122137406
5.25,0.062255859375,-0.026123046875,-0.99609375,-0.3511450381679389,-1.8473282442748091,-1.6870229007633588
5.26,0.07421875,-0.050048828125,-0.982421875,-1.251908396946565,-1.2595419847328244,-0.8625954198473282
5.27,0.06689453125,-0.04443359375,-0.9638671875,-1.6793893129770991,-0.3053435114503817,-0.030534351145038167
5.28,0.063720703125,-0.04443359375,-0.9560546875,-1.1297709923664123,0.5725190839694656,0.8625954198473282
5.29,0.085205078125,-0.056884765625,-0.9541015625,-0.16793893129770993,0.10687022900763359,0.4580152671755725
5.3,0.079345703125,-0.051513671875,-0.960205078125,0.25190839694656486,0.030534351145038167,-0.1450381679389313
5.31,0.091064453125,-0.049560546875,-0.963134765625,-0.2595419847328244,-0.5114503816793893,-0.6793893129770993
5.32,0.085693359375,-0.0439453125,-0.984130859375,-0.5954198473282443,-1.083969465648855,-1.1908396946564885
5.33,0.07275390625,-0.03662109375,-0.975341796875,-1.213740458015267,-1.7557251908396947,-1.5038167938931297
5.34,0.079345703125,-0.052734375,-0.969482421875,-1.4427480916030535,-1.5648854961832062,-2.267175572519084
5.35,0.086181640625,-0.055419921875,-0.963134765625,-1.3740458015267176,-1.6946564885496183,-2.519083969465649
5.36,0.064697265625,-0.048095703125,-0.96337890625,-1.1068702290076335,-2.1755725190839694,-2.564885496183206
5.37,0.067138671875,-0.0439453125,-0.977783203125,-1.0458015267175573,-2.2290076335877864,-2.8625954198473282
5.38,0.081787109375,-0.039794921875,-0.977783203125,-1.2595419847328244,-1.6488549618320612,-2.8625954198473282
5.39,0.060791015625,-0.039794921875,-0.977783203125,-1.366412213740458,-1.1908396946564885,-2.33587786259542
5.4,0.0732421875,-0.04541015625,-1.00244140625,-1.3587786259541985,-1.381679389312977,-1.4885496183206106
5.41,0.0654296875,-0.03662109375,-0.987548828125,-1.8931297709923665,-1.4274809160305344,-1.6946564885496183
5.42,0.0693359375,-0.0302734375,-0.994140625,-2.7786259541984735,-0.7938931297709924,-1.9694656488549618
5.43,0.0703125,-0.03125,-0.96533203125,-2.9083969465648853,-1.3129770992366412,-2.0763358778625953
5.44,0.061767578125,-0.02978515625,-0.97607421875,-2.7709923664122136,-1.2061068702290076,-1.7251908396946565
5.45,0.066650390625,-0.031494140625,-0.96337890625,-2.236641221374046,-0.7938931297709924,-1.2061068702290076
5.46,0.05908203125,-0.031494140625,-0.9755859375,-2.099236641221374,-0.22900763358778625,-0.7862595419847328
5.47,0.0615234375,-0.018310546875,-0.977294921875,-1.83206106870229,0.7938931297709924,0.6259541984732825
5.48,0.065185546875,-0.0244140625,-0.980224609375,-1.7099236641221374,1.7251908396946565,1.1450381679389312
5.49,0.06689453125,-0.022705078125,-0.975341796875,-1.366412213740458,2.015267175572519,1.465648854961832
5.5,0.064697265625,-0.034912109375,-0.974853515625,-0.816793893129771,1.534351145038168,1.0229007633587786
5.51,0.065673828125,-0.035888671875,-0.968994140625,-0.45038167938931295,0.42748091603053434,0.9923664122137404
5.52,0.068359375,-0.038330078125,-0.98095703125,-0.3282442748091603,-0.3282442748091603,0.32061068702290074
5.53,0.080810546875,-0.03564453125,-0.991943359375,-0.5572519083969466,-1.1450381679389312,-0.549618320610687
5.54,0.085205078125,-0.031982421875,-0.991455078125,-1.5038167938931297,-1.1068702290076335,-1.1221374045801527
5.55,0.074951171875,-0.02783203125,-1.006103515625,-2.6564885496183206,-0.1297709923664122,-1.282442748091603
5.56,0.067626953125,-0.030029296875,-0.984375,-4.122137404580153,-1.8778625954198473,-1.015267175572519
5.57,0.071044921875,-0.04248046875,-0.9755859375,-4.816793893129771,0.648854961832061,-0.4198473282442748
5.58,0.064453125,-0.0400390625,-0.95361328125,-4.679389312977099,1.381679389312977,0.1450381679389313
5.59,0.058837890625,-0.05078125,-0.949951171875,-4.015267175572519,1.2671755725190839,0.2748091603053435
5.6,0.06201171875,-0.05322265625,-0.957275390625,-2.7480916030534353,0.549618320610687,0.6870229007633588
5.61,0.061767578125,-0.044921875,-0.967529296875,-2.2595419847328246,0.37404580152671757,0.6412213740458015
5.62,0.05908203125,-0.045654296875,-0.972412109375,-2.549618320610687,-0.0916030534351145,0.5648854961832062
5.63,0.066162109375,-0.03857421875,-0.978759765625,-3.6793893129770994,0.2366412213740458,0.6717557251908397
5.64,0.071044921875,-0.0439453125,-0.97314453125,-4.534351145038168,0.3282442748091603,0.5648854961832062
5.65,0.064697265625,-0.049072265625,-0.968017578125,-4.694656488549619,0.6946564885496184,0.16030534351145037
5.66,0.068603515625,-0.052001953125,-0.954345703125,-4.251908396946565,1.0,1.8931297709923665
5.67,0.062255859375,-0.05810546875,-0.948486328125,-3.7557251908396947,-0.20610687022900764,-0.4732824427480916
5.68,0.0498046875,-0.048583984375,-0.947021484375,-2.931297709923664,-0.9312977099236641,0.21374045801526717
5.69,0.062744140625,-0.047607421875,-0.964111328125,-2.480916030534351,-1.2748091603053435,0.06870229007633588
5.7,0.072265625,-0.06103515625,-0.971435546875,-2.7404580152671754,-1.2595419847328244,-0.05343511450381679
5.71,0.050537109375,-0.038818359375,-0.96337890625,-2.687022900763359,-0.9847328244274809,0.7404580152671756
5.72,0.067626953125,-0.062255859375,-0.962646484375,-2.732824427480916,-1.3740458015267176,0.5038167938931297
5.73,0.070068359375,-0.03955078125,-0.962890625,-2.2442748091603053,-0.8931297709923665,0.09923664122137404
5.74,0.0654296875,-0.037353515625,-0.96240234375,-1.1374045801526718,-0.9923664122137404,-1.9465648854961832
5.75,0.066162109375,-0.041748046875,-0.96484375,0.5954198473282443,-1.916030534351145,-0.7404580152671756
5.76,0.0712890625,-0.0380859375,-0.96533203125,1.8091603053435115,-2.198473282442748,-1.2595419847328244
5.77,0.0693359375,-0.02490234375,-0.97265625,1.6717557251908397,-1.83206106870229,-1.3053435114503817
5.78,0.068359375,-0.0205078125,-0.9833984375,0.816793893129771,-1.1145038167938932,-0.16793893129770993
5.79,0.069091796875,-0.0185546875,-1.001708984375,-0.6641221374045801,-0.2366412213740458,1.2595419847328244
5.8,0.093017578125,-0.0224609375,-0.995361328125,-1.7251908396946565,1.16793893129771,1.4961832061068703
5.81,0.0908203125,-0.027587890625,-0.9970703125,-2.351145038167939,1.7786259541984732,1.083969465648855
5.82,0.081787109375,-0.02880859375,-0.97314453125,-1.9770992366412214,1.5419847328244274,0.8549618320610687
5.83,0.080078125,-0.033203125,-0.978515625,-1.5267175572519085,1.183206106870229,0.6030534351145038
5.84,0.0869140625,-0.0283203125,-0.976806640625,-1.4198473282442747,0.48854961832061067,-1.9236641221374047
5.85,0.083251953125,-0.0302734375,-0.972412109375,-1.5725190839694656,0.29770992366412213,-0.6030534351145038
5.86,0.078369140625,-0.03759765625,-0.96435546875,-1.9923664122137406,0.2748091603053435,-1.015267175572519
5.87,0.067626953125,-0.041015625,-0.966552734375,-2.351145038167939,0.03816793893129771,-0.4351145038167939
5.88,0.071044921875,-0.03662109375,-0.957275390625,-2.8931297709923665,0.40458015267175573,-0.16030534351145037
5.89,0.072265625,-0.0498046875,-0.942138671875,-3.1374045801526718,1.0229007633587786,0.26717557251908397
5.9,0.07861328125,-0.05810546875,-0.951171875,-2.4656488549618323,1.015267175572519,0.4732824427480916
5.91,0.0703125,-0.046875,-0.9599609375,-1.6259541984732824,1.4198473282442747,0.816793893129771
5.92,0.077880859375,-0.04296875,-0.9560546875,-0.732824427480916,1.1297709923664123,0.7251908396946565
5.93,0.082763671875,-0.03271484375,-0.9716796875,-0.2900763358778626,0.6641221374045801,0.022900763358778626
5.94,0.08837890625,-0.029052734375,-0.98046875,-0.5572519083969466,0.3282442748091603,-0.8320610687022901
5.95,0.08740234375,-0.0458984375,-0.98681640625,-1.0229007633587786,-0.46564885496183206,-1.7633587786259541
5.96,0.083984375,-0.01953125,-0.998046875,-1.8473282442748091,-1.0763358778625953,-2.49618320610687
5.97,0.087890625,-0.016845703125,-0.972900390625,-3.0381679389312977,-1.0,-3.099236641221374
5.98,0.083251953125,-0.017333984375,-0.998291015625,-4.244274809160306,-0.4580152671755725,-3.6106870229007635
5.99,0.0869140625,-0.03271484375,-0.96435546875,-4.1679389312977095,-0.33587786259541985,-3.717557251908397
6.0,0.069580078125,-0.03515625,-0.96630859375,-3.5267175572519083,-0.549618320610687,-2.885496183206107
6.01,0.06591796875,-0.030517578125,-0.986083984375,-2.572519083969466,-0.6335877862595419,-2.50381679389313
6.02,0.05517578125,-0.017578125,-0.972412109375,-2.213740458015267,-0.8931297709923665,-1.748091603053435
6.03,0.0478515625,-0.022705078125,-0.968994140625,-2.1526717557251906,-0.7557251908396947,-1.0687022900763359
6.04,0.070556640625,-0.02197265625,-0.983154296875,-2.6412213740458017,-0.33587786259541985,-0.7786259541984732
6.05,0.06201171875,-0.02392578125,-0.98193359375,-3.0763358778625953,-0.1450381679389313,-0.7557251908396947
6.06,0.072265625,-0.031982421875,-0.972900390625,-2.854961832061069,-0.7175572519083969,-1.2061068702290076
6.07,0.078125,-0.024169921875,-0.967529296875,-2.480916030534351,-1.0305343511450382,-1.748091603053435
6.08,0.072265625,-0.0263671875,-0.96630859375,-2.267175572519084,-1.4732824427480915,-2.2290076335877864
6.09,0.067626953125,-0.037109375,-0.966796875,-2.312977099236641,-1.4732824427480915,-2.0076335877862594
6.1,0.07470703125,-0.041015625,-0.967041015625,-2.3053435114503817,-1.450381679389313,-2.1755725190839694
6.11,0.07177734375,-0.030517578125,-0.95947265625,-2.7786259541984735,-0.9923664122137404,-2.5114503816793894
6.12,0.06787109375,-0.0322265625,-0.953369140625,-2.7022900763358777,-1.0610687022900764,-2.7022900763358777
6.13,0.072265625,-0.032958984375,-0.976806640625,-2.4732824427480917,-1.4427480916030535,-2.931297709923664
6.14,0.072021484375,-0.025634765625,-0.97509765625,-1.8854961832061068,-1.8091603053435115,-2.8702290076335877
6.15,0.076904296875,-0.02490234375,-0.989990234375,-1.0076335877862594,-1.7251908396946565,-2.763358778625954
6.16,0.0615234375,-0.0234375,-0.977294921875,-0.7480916030534351,-1.3282442748091603,-2.435114503816794
6.17,0.0693359375,-0.023193359375,-0.97216796875,-1.2442748091603053,-1.0229007633587786,-1.6412213740458015
6.18,0.05029296875,-0.029296875,-0.978759765625,-1.4809160305343512,-0.8549618320610687,-1.297709923664122
6.19,0.069091796875,-0.03125,-0.984375,-2.2977099236641223,-0.648854961832061,-0.8702290076335878
6.2,0.070068359375,-0.019287109375,-0.976806640625,-2.8091603053435112,-0.42748091603053434,-0.6793893129770993
6.21,0.06494140625,-0.03759765625,-0.981201171875,-3.8473282442748094,-0.1450381679389313,-1.297709923664122
6.22,0.079345703125,-0.032470703125,-0.969482421875,-3.8396946564885495,-0.3282442748091603,-1.099236641221374
6.23,0.080078125,-0.037841796875,-0.995361328125,-3.0610687022900764,-0.7709923664122137,-1.7709923664122138
6.24,0.071044921875,-0.02880859375,-0.97998046875,-3.1374045801526718,-0.8625954198473282,-1.7328244274809161
6.25,0.0615234375,-0.03662109375,-0.9677734375,-3.3740458015267176,-1.0610687022900764,-1.3893129770992367
6.26,0.0673828125,-0.02978515625,-0.968994140625,-3.480916030534351,-0.6259541984732825,-1.1603053435114503
6.27,0.067138671875,-0.028564453125,-0.96630859375,-3.816793893129771,-0.32061068702290074,-1.1221374045801527
6.28,0.065673828125,-0.032958984375,-0.9716796875,-3.0610687022900764,-0.13740458015267176,-1.083969465648855
6.29,0.082275390625,-0.048828125,-0.977294921875,-2.854961832061069,-0.5114503816793893,-1.6106870229007633
6.3,0.051025390625,-0.021240234375,-0.949462890625,-2.2519083969465647,-0.2900763358778626,-0.2595419847328244
6.31,0.05908203125,-0.03564453125,-0.966552734375,-3.885496183206107,-1.16793893129771,-0.11450381679389313
6.32,0.070556640625,-0.03515625,-0.955322265625,-1.6717557251908397,-0.8473282442748091,-0.48091603053435117
6.33,0.07763671875,-0.042724609375,-0.958740234375,-1.6488549618320612,-0.366412213740458,-0.6183206106870229
6.34,0.06591796875,-0.039794921875,-0.956787109375,-1.2290076335877862,-0.46564885496183206,-0.42748091603053434
6.35,0.052734375,-0.039306640625,-0.958251953125,-0.7022900763358778,-0.7022900763358778,-0.5648854961832062
6.36,0.0732421875,-0.044189453125,-0.9765625,-0.3282442748091603,-1.0610687022900764,-1.0687022900763359
6.37,0.063232421875,-0.0458984375,-0.974365234375,-0.1984732824427481,-1.6641221374045803,-1.0763358778625953
6.38,0.060791015625,-0.018798828125,-0.983642578125,0.24427480916030533,-2.0610687022900764,-1.1068702290076335
6.39,0.078369140625,-0.033203125,-0.982421875,-0.37404580152671757,-1.4732824427480915,-1.8244274809160306
6.4,0.076416015625,-0.025146484375,-0.976318359375,-0.8625954198473282,-0.9007633587786259,-1.7557251908396947
6.41,0.072021484375,-0.0322265625,-0.973388671875,-1.3587786259541985,-0.5801526717557252,-1.7709923664122138
6.42,0.068115234375,-0.036376953125,-0.966064453125,-0.8625954198473282,-0.6412213740458015,-1.3511450381679388
6.43,0.052001953125,-0.03662109375,-0.97998046875,-0.7786259541984732,-0.42748091603053434,-1.1526717557251909
6.44,0.072265625,-0.022705078125,-0.974609375,-1.0381679389312977,-0.33587786259541985,-1.16793893129771
6.45,0.073974609375,-0.01904296875,-0.977294921875,-1.5038167938931297,-0.12213740458015267,-1.099236641221374
6.46,0.07763671875,-0.01953125,-0.98046875,-2.2519083969465647,-0.07633587786259542,-1.0
6.47,0.075439453125,-0.025390625,-0.978515625,-2.816793893129771,0.31297709923664124,-1.0916030534351144
6.48,0.070556640625,-0.02880859375,-0.969970703125,-2.8473282442748094,0.8702290076335878,-0.4122137404580153
6.49,0.071044921875,-0.0302734375,-0.958984375,-1.900763358778626,1.0687022900763359,-0.6030534351145038
6.5,0.057861328125,-0.025146484375,-0.9677734375,-1.3282442748091603,0.6870229007633588,-0.366412213740458
6.51,0.076904296875,-0.0234375,-0.962158203125,-0.4961832061068702,-0.4122137404580153,-0.2595419847328244
6.52,0.06640625,-0.016845703125,-0.9697265625,-0.5572519083969466,-0.183206106870229,-0.48854961832061067
6.53,0.064697265625,-0.025146484375,-0.971435546875,-0.9770992366412213,-0.22900763358778625,-0.2748091603053435
6.54,0.068115234375,-0.025146484375,-0.974609375,-1.282442748091603,-0.40458015267175573,0.04580152671755725
6.55,0.0703125,-0.0263671875,-0.984619140625,-0.06870229007633588,0.48091603053435117,0.1297709923664122
6.56,0.06591796875,-0.030029296875,-0.977294921875,-2.366412213740458,0.7175572519083969,1.1908396946564885
6.57,0.064453125,-0.02685546875,-0.974609375,-2.1374045801526718,0.9236641221374046,1.2366412213740459
6.58,0.07861328125,-0.028564453125,-0.98828125,-2.5343511450381677,1.083969465648855,0.9007633587786259
6.59,0.068603515625,-0.02197265625,-0.976806640625,-2.595419847328244,1.3053435114503817,0.7633587786259542
6.6,0.0732421875,-0.0234375,-0.971435546875,-2.6717557251908395,0.7099236641221374,0.7709923664122137
6.61,0.072265625,-0.030517578125,-0.967529296875,-2.4656488549618323,0.4198473282442748,0.0916030534351145
6.62,0.073486328125,-0.044921875,-0.983642578125,-3.030534351145038,0.42748091603053434,-0.6641221374045801
6.63,0.078857421875,-0.026123046875,-0.978759765625,-3.1908396946564888,0.8931297709923665,-0.9312977099236641
6.64,0.076171875,-0.033203125,-0.968017578125,-2.6946564885496183,0.7022900763358778,-1.3511450381679388
6.65,0.076416015625,-0.025390625,-0.966796875,-1.8473282442748091,0.37404580152671757,-1.816793893129771
6.66,0.0693359375,-0.02587890625,-0.968505859375,-1.4732824427480915,-0.35877862595419846,-2.1755725190839694
6.67,0.072021484375,-0.025146484375,-0.9873046875,-1.8015267175572518,-1.0229007633587786,-3.0076335877862594
6.68,0.060302734375,-0.0263671875,-0.973388671875,-2.045801526717557,-0.5267175572519084,-2.7709923664122136
6.69,0.060302734375,-0.029052734375,-0.9814453125,-1.7786259541984732,-0.8778625954198473,-1.8702290076335877
6.7,0.055908203125,-0.020263671875,-0.971923828125,-2.4885496183206106,-0.4732824427480916,-0.9847328244274809
6.71,0.06298828125,-0.020751953125,-0.996826171875,-3.16793893129771,0.4351145038167939,-0.4732824427480916
6.72,0.066650390625,-0.02783203125,-0.97802734375,-3.1374045801526718,0.2900763358778626,0.03816793893129771
6.73,0.067138671875,-0.033203125,-0.957275390625,-2.2290076335877864,-0.1984732824427481,-0.1984732824427481
6.74,0.072265625,-0.031494140625,-0.972412109375,-1.7786259541984732,-0.48091603053435117,-0.48854961832061067
6.75,0.074951171875,-0.03271484375,-0.97119140625,-1.6259541984732824,-0.7099236641221374,-0.5572519083969466
6.76,0.063720703125,-0.024658203125,-0.972412109375,-2.3435114503816794,-0.35877862595419846,-0.7175572519083969
6.77,0.062744140625,-0.0166015625,-0.969970703125,-3.2519083969465647,0.732824427480916,-0.6870229007633588
6.78,0.072265625,-0.045166015625,-0.968505859375,-3.519083969465649,1.2900763358778626,-0.33587786259541985
6.79,0.06005859375,-0.026123046875,-0.955078125,-3.030534351145038,1.3511450381679388,0.37404580152671757
6.8,0.06396484375,-0.030517578125,-0.9599609375,-2.33587786259542,0.6106870229007634,0.21374045801526717
6.81,0.065185546875,-0.03515625,-0.954345703125,-1.6564885496183206,0.007633587786259542,-0.11450381679389313
6.82,0.067138671875,-0.033203125,-0.967529296875,-1.213740458015267,-0.31297709923664124,-0.8702290076335878
6.83,0.065185546875,-0.0283203125,-0.972412109375,-1.1755725190839694,-0.7404580152671756,-0.9236641221374046
6.84,0.072509765625,-0.02294921875,-0.976806640625,-0.030534351145038167,-0.6335877862595419,-0.8244274809160306
6.85,0.0732421875,-0.01806640625,-0.968994140625,-2.633587786259542,-0.25190839694656486,-1.015267175572519
6.86,0.066162109375,-0.029541015625,-0.9736328125,-3.030534351145038,-0.2748091603053435,-0.8778625954198473
6.87,0.069091796875,-0.02880859375,-0.976806640625,-2.7099236641221376,-0.48854961832061067,-0.6259541984732825
6.88,0.066650390625,-0.0234375,-0.9765625,-2.1526717557251906,-0.42748091603053434,-0.6183206106870229
6.89,0.05908203125,-0.02490234375,-0.967529296875,-1.748091603053435,-0.7862595419847328,-0.4580152671755725
6.9,0.064208984375,-0.030517578125,-0.968017578125,-1.0916030534351144,-0.9618320610687023,-0.7480916030534351
6.91,0.067626953125,-0.02880859375,-0.96533203125,-1.0534351145038168,-0.6946564885496184,-0.7557251908396947
6.92,0.068359375,-0.02880859375,-0.9716796875,-1.2748091603053435,-0.6183206106870229,-0.6412213740458015
6.93,0.048583984375,-0.01953125,-0.953369140625,-0.03816793893129771,0.26717557251908397,-0.6641221374045801
6.94,0.068115234375,-0.02783203125,-0.96875,-2.2748091603053435,0.31297709923664124,-0.2824427480916031
6.95,0.068603515625,-0.02197265625,-0.969970703125,-2.282442748091603,0.2824427480916031,-0.2366412213740458
6.96,0.0693359375,-0.025390625,-0.974609375,-3.8625954198473282,0.183206106870229,-0.2595419847328244
6.97,0.07177734375,-0.0283203125,-0.971923828125,-0.9389312977099237,1.916030534351145,-0.17557251908396945
6.98,0.06689453125,-0.02490234375,-0.973388671875,-0.8931297709923665,-0.5190839694656488,-0.48854961832061067
6.99,0.07275390625,-0.021240234375,-0.98095703125,-1.2366412213740459,-0.48091603053435117,-0.8854961832061069
7.0,0.071533203125,-0.029052734375,-0.9814453125,-1.6488549618320612,-0.46564885496183206,-0.9694656488549618
7.01,0.091796875,-0.025390625,-0.973876953125,-2.4427480916030535,-0.44274809160305345,-1.297709923664122
7.02,0.076171875,-0.030517578125,-0.9658203125,-2.4580152671755724,-0.2748091603053435,-1.748091603053435
7.03,0.06201171875,-0.028076171875,-0.95849609375,-1.984732824427481,-0.48091603053435117,-1.297709923664122
7.04,0.060791015625,-0.027587890625,-0.950927734375,-0.9312977099236641,-1.251908396946565,-1.0916030534351144
7.05,0.06005859375,-0.030029296875,-0.96826171875,-1.9541984732824427,-1.381679389312977,-0.6946564885496184
7.06,0.0712890625,-0.030029296875,-0.97119140625,-0.2366412213740458,-1.183206106870229,-0.8854961832061069
7.07,0.0908203125,-0.0224609375,-0.9814453125,-1.2213740458015268,-0.7480916030534351,-0.7251908396946565
7.08,0.06591796875,-0.01611328125,-0.980712890625,-0.015267175572519083,-0.3435114503816794,-0.8931297709923665
7.09,0.0703125,-0.023681640625,-0.968994140625,-2.519083969465649,-0.4961832061068702,-1.3969465648854962
7.1,0.063232421875,-0.0234375,-0.97314453125,-2.6717557251908395,-1.2366412213740459,-1.9083969465648856
7.11,0.077880859375,-0.029296875,-0.96484375,-2.4580152671755724,-1.8396946564885497,-2.786259541984733
7.12,0.06298828125,-0.016845703125,-0.96484375,-3.854961832061069,-2.4885496183206106,-3.3053435114503817
7.13,0.0625,-0.020263671875,-0.979736328125,-1.7251908396946565,-1.2671755725190839,-2.2442748091603053
7.14,0.06494140625,-0.018310546875,-0.964599609375,-0.022900763358778626,-1.282442748091603,-1.8015267175572518
7.15,0.063232421875,-0.019287109375,-0.976806640625,-2.3053435114503817,-0.7709923664122137,-1.7251908396946565
7.16,0.06640625,-0.0146484375,-0.98193359375,-2.572519083969466,-0.04580152671755725,-1.0076335877862594
7.17,0.07568359375,-0.025146484375,-0.964111328125,-2.618320610687023,0.6183206106870229,-0.26717557251908397
7.18,0.065185546875,-0.028564453125,-0.955810546875,-2.2900763358778624,1.0534351145038168,-0.015267175572519083
7.19,0.071533203125,-0.027587890625,-0.958984375,-1.786259541984733,1.1526717557251909,0.3053435114503817
7.2,0.0712890625,-0.02880859375,-0.963134765625,-0.9847328244274809,0.5801526717557252,-0.061068702290076333
7.21,0.076171875,-0.024169921875,-0.967041015625,-0.24427480916030533,-0.4580152671755725,-0.7480916030534351
7.22,0.06787109375,-0.024658203125,-0.9697265625,0.11450381679389313,-1.1526717557251909,-1.213740458015267
7.23,0.06982421875,-0.027099609375,-0.971435546875,-0.3282442748091603,-1.4045801526717556,-1.4961832061068703
7.24,0.06689453125,-0.016357421875,-0.974365234375,-1.183206106870229,-1.2213740458015268,-1.2290076335877862
7.25,0.0634765625,-0.020751953125,-0.972412109375,-2.3435114503816794,-0.2366412213740458,-0.648854961832061
7.26,0.061279296875,-0.029541015625,-0.95703125,-2.8244274809160306,0.3511450381679389,-0.17557251908396945
7.27,0.06884765625,-0.035888671875,-0.971435546875,-2.7480916030534353,0.9770992366412213,0.4122137404580153
7.28,0.06591796875,-0.0302734375,-0.97802734375,-2.8931297709923665,0.8473282442748091,0.7099236641221374
7.29,0.0712890625,-0.031982421875,-0.9677734375,-2.145038167938931,1.0076335877862594,0.8702290076335878
7.3,0.0751953125,-0.028076171875,-0.984619140625,-2.0763358778625953,1.0610687022900764,0.45038167938931295
7.31,0.072509765625,-0.026123046875,-0.967529296875,-1.2290076335877862,0.5343511450381679,-0.07633587786259542
7.32,0.0703125,-0.025390625,-0.96337890625,-1.0381679389312977,-0.7251908396946565,-0.5267175572519084
7.33,0.083251953125,-0.0205078125,-0.9794921875,-0.8549618320610687,-1.3511450381679388,-1.3740458015267176
7.34,0.09326171875,-0.019287109375,-0.971435546875,-1.702290076335878,-1.3969465648854962,-2.2748091603053435
7.35,0.07275390625,-0.00146484375,-0.9658203125,-1.5114503816793894,-1.4809160305343512,-2.4580152671755724
7.36,0.076904296875,-0.0244140625,-0.957275390625,-1.450381679389313,-1.633587786259542,-2.3740458015267176
7.37,0.07666015625,-0.021728515625,-0.97900390625,-1.6106870229007633,-0.8931297709923665,-2.1908396946564888
7.38,0.067626953125,-0.024658203125,-0.969970703125,-1.6641221374045803,-0.2900763358778626,-1.3129770992366412
7.39,0.0595703125,-0.03564453125,-0.979736328125,-1.7099236641221374,-0.2748091603053435,-1.0
7.4,0.05810546875,-0.017822265625,-0.99072265625,-1.9923664122137406,0.25190839694656486,-0.17557251908396945
7.41,0.076171875,-0.029052734375,-0.9775390625,-1.9312977099236641,0.4351145038167939,-0.31297709923664124
7.42,0.0654296875,-0.029052734375,-0.9697265625,-1.6641221374045803,0.26717557251908397,-0.5877862595419847
7.43,0.063232421875,-0.021484375,-0.96435546875,-1.8854961832061068,-0.6717557251908397,-0.6946564885496184
7.44,0.0673828125,-0.022705078125,-0.969482421875,-1.5954198473282444,-0.7786259541984732,-0.5648854961832062
7.45,0.076171875,-0.02734375,-0.9638671875,-1.3129770992366412,-0.5343511450381679,-0.4732824427480916
7.46,0.068115234375,-0.02392578125,-0.96826171875,-1.8091603053435115,-0.31297709923664124,-0.183206106870229
7.47,0.065185546875,-0.033203125,-0.956298828125,-1.633587786259542,0.3053435114503817,0.0916030534351145
7.48,0.064453125,-0.046875,-0.96533203125,-1.4351145038167938,0.2900763358778626,0.24427480916030533
7.49,0.06591796875,-0.033447265625,-0.95556640625,-1.549618320610687,0.1297709923664122,-0.16793893129770993
7.5,0.080810546875,-0.020751953125,-0.978759765625,-1.702290076335878,0.17557251908396945,-0.5572519083969466
7.51,0.078125,-0.027587890625,-0.964111328125,-2.1297709923664123,0.06870229007633588,-0.9236641221374046
7.52,0.078857421875,-0.031005859375,-0.974853515625,-2.0916030534351147,-0.24427480916030533,-1.534351145038168
7.53,0.07373046875,-0.030517578125,-0.97412109375,-2.1603053435114505,-0.366412213740458,-1.8625954198473282
7.54,0.058349609375,-0.025634765625,-0.971435546875,-1.9312977099236641,-0.732824427480916,-1.3740458015267176
7.55,0.069091796875,-0.028076171875,-0.9736328125,-1.7786259541984732,-1.0610687022900764,-1.0
7.56,0.064697265625,-0.02490234375,-0.983642578125,-1.6412213740458015,0.16793893129770993,-0.6030534351145038
7.57,0.068603515625,-0.031005859375,-0.98388671875,-1.7328244274809161,0.6106870229007634,0.32061068702290074
7.58,0.0732421875,-0.023193359375,-0.979736328125,-1.9541984732824427,0.9923664122137404,0.8244274809160306
7.59,0.063720703125,-0.025634765625,-0.9814453125,-2.2595419847328246,1.3206106870229009,1.2290076335877862
7.6,0.06689453125,-0.029541015625,-0.958984375,-1.9236641221374047,1.2290076335877862,1.1450381679389312
7.61,0.081298828125,-0.031982421875,-0.968994140625,-1.5801526717557253,0.6717557251908397,0.4961832061068702
7.62,0.072021484375,-0.032958984375,-0.968017578125,-1.450381679389313,0.3282442748091603,-0.07633587786259542
7.63,0.07373046875,-0.030517578125,-0.9892578125,-1.8396946564885497,-0.10687022900763359,-0.7175572519083969
7.64,0.072509765625,-0.029541015625,-0.99365234375,-3.114503816793893,0.12213740458015267,-1.0763358778625953
7.65,0.0703125,-0.023681640625,-0.97119140625,-3.648854961832061,0.183206106870229,-0.9847328244274809
7.66,0.06494140625,-0.026123046875,-0.973388671875,-3.9389312977099236,0.45038167938931295,-0.6259541984732825
7.67,0.0654296875,-0.024658203125,-0.96826171875,-3.7938931297709924,0.366412213740458,-0.5648854961832062
7.68,0.078125,-0.0234375,-0.965576171875,-3.984732824427481,-0.11450381679389313,-1.748091603053435
7.69,0.028076171875,-0.002197265625,-0.952392578125,-2.8091603053435112,0.8702290076335878,0.31297709923664124
7.7,0.0712890625,-0.034912109375,-0.97412109375,-1.8396946564885497,0.5190839694656488,0.2366412213740458
7.71,0.066650390625,-0.02099609375,-0.9638671875,-1.6106870229007633,0.8396946564885496,0.16793893129770993
7.72,0.063232421875,-0.023681640625,-0.98193359375,-1.8244274809160306,1.083969465648855,0.2595419847328244
7.73,0.063232421875,-0.020263671875,-0.9697265625,-1.9389312977099236,0.8931297709923665,0.1297709923664122
7.74,0.066650390625,-0.00927734375,-0.97265625,-3.114503816793893,0.9923664122137404,0.2595419847328244
7.75,0.0810546875,-0.01513671875,-0.97802734375,-3.7480916030534353,1.1297709923664123,-0.4961832061068702
7.76,0.07177734375,-0.018798828125,-0.967529296875,-5.229007633587786,1.0229007633587786,-0.9389312977099237
7.77,0.063720703125,-0.021240234375,-0.961669921875,-3.763358778625954,0.20610687022900764,-0.9541984732824428
7.78,0.06787109375,-0.02978515625,-0.96484375,-2.3282442748091605,-0.48854961832061067,-1.015267175572519
7.79,0.0703125,-0.0302734375,-0.965087890625,-1.786259541984733,-0.44274809160305345,-1.1908396946564885
7.8,0.0654296875,-0.02490234375,-0.958740234375,-2.2900763358778624,-0.4580152671755725,-0.9694656488549618
7.81,0.06103515625,-0.022705078125,-0.96875,-3.2519083969465647,0.04580152671755725,-0.6183206106870229
7.82,0.068603515625,-0.02490234375,-0.976806640625,-4.641221374045801,1.2900763358778626,-0.5648854961832062
7.83,0.086181640625,-0.03564453125,-0.9814453125,-4.648854961832061,1.1450381679389312,-0.3511450381679389
7.84,0.052490234375,-0.013427734375,-0.96728515625,-2.969465648854962,1.1908396946564885,1.1908396946564885
7.85,0.081298828125,-0.0322265625,-0.966064453125,-1.3282442748091603,0.0916030534351145,0.6870229007633588
7.86,0.07470703125,-0.023681640625,-0.97216796875,-0.7786259541984732,-0.45038167938931295,-0.015267175572519083
7.87,0.076416015625,-0.02099609375,-0.9765625,-0.7099236641221374,-0.48854961832061067,-0.37404580152671757
7.88,0.076171875,-0.017578125,-0.981201171875,-1.7099236641221374,-0.5725190839694656,-0.7633587786259542
7.89,0.0791015625,-0.02783203125,-0.9794921875,-2.6106870229007635,-0.07633587786259542,-0.9847328244274809
7.9,0.076904296875,-0.0166015625,-0.978515625,-4.1679389312977095,0.916030534351145,-0.732824427480916
7.91,0.065185546875,-0.01806640625,-0.9619140625,-4.091603053435114,1.183206106870229,-0.8473282442748091
7.92,0.0712890625,-0.030029296875,-0.95068359375,-2.3893129770992365,0.7633587786259542,-0.5267175572519084
7.93,0.08447265625,-0.021728515625,-0.94677734375,-0.5419847328244275,0.4198473282442748,-0.48091603053435117
7.94,0.080322265625,-0.018310546875,-0.968017578125,-0.030534351145038167,0.4961832061068702,-1.1450381679389312
7.95,0.074462890625,-0.02294921875,-0.97412109375,-0.48854961832061067,-0.21374045801526717,-0.9541984732824428
7.96,0.0703125,-0.00634765625,-0.982177734375,-1.6564885496183206,-0.2595419847328244,-0.022900763358778626
7.97,0.080078125,-0.000732421875,-0.986083984375,-2.9770992366412212,0.8549618320610687,-0.46564885496183206
7.98,0.084716796875,-0.022216796875,-0.978271484375,-5.809160305343512,0.6946564885496184,-1.2366412213740459
7.99,0.074951171875,-0.004150390625,-0.99462890625,-4.564885496183206,0.5725190839694656,-1.6870229007633588
8.0,0.080322265625,-0.03173828125,-0.973388671875,-2.8396946564885495,-0.061068702290076333,-1.2366412213740459
8.01,0.0712890625,-0.0234375,-0.97705078125,-1.0916030534351144,0.3969465648854962,-0.48091603053435117
8.02,0.088623046875,-0.036865234375,-0.978515625,-0.9694656488549618,0.31297709923664124,-0.2900763358778626
8.03,0.07421875,-0.010009765625,-0.98095703125,-0.9389312977099237,1.1908396946564885,0.5877862595419847
8.04,0.076904296875,-0.02978515625,-0.97509765625,-1.6946564885496183,1.1526717557251909,1.8931297709923665
8.05,0.086181640625,-0.017333984375,-0.95361328125,-2.2977099236641223,0.8091603053435115,-0.7938931297709924
8.06,0.08251953125,-0.001708984375,-0.974853515625,-2.3435114503816794,0.3893129770992366,-1.251908396946565
8.07,0.080810546875,-0.016357421875,-0.980224609375,-2.6946564885496183,0.12213740458015267,-1.5725190839694656
8.08,0.078369140625,-0.0166015625,-0.98046875,-2.0916030534351147,-0.1984732824427481,-2.2061068702290076
8.09,0.084716796875,-0.0068359375,-0.97607421875,-2.145038167938931,-0.4198473282442748,-2.8625954198473282
8.1,0.076171875,-0.015625,-0.981689453125,-2.2213740458015265,-0.2595419847328244,-3.015267175572519
8.11,0.070068359375,-0.01416015625,-0.978515625,-2.5343511450381677,-0.549618320610687,-2.4198473282442747
8.12,0.0634765625,-0.001953125,-0.966796875,-2.5572519083969465,-0.8015267175572519,-2.5114503816793894
8.13,0.079345703125,-0.0166015625,-0.992919921875,-4.083969465648855,0.5038167938931297,-2.282442748091603
8.14,0.076171875,-0.01708984375,-0.97705078125,-3.2595419847328246,0.9007633587786259,-1.4809160305343512
8.15,0.076171875,-0.0166015625,-0.983642578125,-2.3893129770992365,0.29770992366412213,-1.2213740458015268
8.16,0.06689453125,-0.0234375,-0.96337890625,-1.7404580152671756,-0.2595419847328244,-1.6488549618320612
8.17,0.06787109375,-0.015380859375,-0.9736328125,-1.9083969465648856,-0.6412213740458015,-1.6106870229007633
8.18,0.0771484375,-0.01513671875,-0.962158203125,-1.9923664122137406,-0.4122137404580153,-1.5877862595419847
8.19,0.0810546875,-0.015869140625,-0.962646484375,-2.2519083969465647,-0.0916030534351145,-1.8015267175572518
8.2,0.092041015625,-0.024169921875,-0.960205078125,-1.7938931297709924,0.11450381679389313,-2.0229007633587788
8.21,0.063720703125,-0.016845703125,-0.953857421875,-1.633587786259542,-0.1297709923664122,-1.8625954198473282
8.22,0.0830078125,-0.027587890625,-0.965576171875,-1.4961832061068703,-0.5572519083969466,-2.267175572519084
8.23,0.07861328125,-0.01123046875,-0.973876953125,-2.030534351145038,-0.366412213740458,-1.9236641221374047
8.24,0.07470703125,-0.01220703125,-0.968505859375,-2.2900763358778624,-0.16030534351145037,-1.6259541984732824
8.25,0.07568359375,-0.014892578125,-0.9765625,-2.564885496183206,0.6183206106870229,-1.7251908396946565
8.26,0.0732421875,-0.027099609375,-0.966552734375,-3.1755725190839694,0.6564885496183206,-1.5114503816793894
8.27,0.073974609375,-0.0185546875,-0.969482421875,-2.954198473282443,0.366412213740458,-2.099236641221374
8.28,0.090087890625,-0.027099609375,-0.970947265625,-3.5572519083969465,0.3511450381679389,-2.2442748091603053
8.29,0.07763671875,-0.00048828125,-0.971923828125,-3.4732824427480917,0.4732824427480916,-2.3435114503816794
8.3,0.0732421875,-0.015625,-0.97607421875,-3.183206106870229,-0.25190839694656486,-2.366412213740458
8.31,0.075927734375,-0.015625,-0.96044921875,-3.183206106870229,-0.648854961832061,-2.312977099236641
8.32,0.069580078125,-0.018310546875,-0.97998046875,-3.3282442748091605,-0.03816793893129771,-1.6259541984732824
8.33,0.06396484375,-0.01904296875,-0.966552734375,-3.2595419847328246,-0.22900763358778625,-1.1755725190839694
8.34,0.065185546875,-0.017578125,-0.966796875,-3.2595419847328246,0.4351145038167939,-0.8854961832061069
8.35,0.076171875,-0.0224609375,-0.966064453125,-2.9923664122137406,0.48854961832061067,-0.916030534351145
8.36,0.071044921875,-0.0185546875,-0.970703125,-3.0916030534351147,0.20610687022900764,-0.9770992366412213
8.37,0.069580078125,-0.01611328125,-0.966552734375,-3.83206106870229,-0.1450381679389313,-0.816793893129771
8.38,0.076171875,-0.030029296875,-0.971435546875,-1.3740458015267176,-0.26717557251908397,-1.1755725190839694
8.39,0.07958984375,-0.017333984375,-0.98291015625,-1.465648854961832,-0.3969465648854962,-1.4809160305343512
8.4,0.0751953125,-0.012939453125,-0.97314453125,-1.7404580152671756,0.022900763358778626,-0.9083969465648855
8.41,0.06982421875,-0.011474609375,-0.970947265625,-2.648854961832061,-0.26717557251908397,-0.8244274809160306
8.42,0.072998046875,-0.0205078125,-0.961669921875,-2.618320610687023,0.549618320610687,-0.6717557251908397
8.43,0.07177734375,-0.022705078125,-0.959228515625,-2.282442748091603,0.16793893129770993,-0.9083969465648855
8.44,0.049560546875,-0.01220703125,-0.96875,-1.6488549618320612,-0.3435114503816794,-0.8244274809160306
8.45,0.0712890625,-0.01708984375,-0.9716796875,-1.2290076335877862,-0.2366412213740458,-0.6564885496183206
8.46,0.076171875,-0.01904296875,-0.96435546875,-0.7557251908396947,-0.37404580152671757,-0.7480916030534351
8.47,0.068603515625,-0.016357421875,-0.984375,-0.916030534351145,-0.24427480916030533,-0.4580152671755725
8.48,0.068359375,-0.014892578125,-0.977294921875,-0.030534351145038167,-0.3282442748091603,-0.7862595419847328
8.49,0.08203125,-0.023681640625,-0.964599609375,-2.8091603053435112,-0.04580152671755725,-1.3358778625954197
8.5,0.083251953125,-0.011474609375,-0.951904296875,-2.969465648854962,0.7709923664122137,-2.2595419847328246
8.51,0.05517578125,-0.0341796875,-0.9482421875,-2.427480916030534,-0.3511450381679389,-1.5725190839694656
8.52,0.0654296875,-0.025146484375,-0.965087890625,-0.9389312977099237,-1.3740458015267176,-1.633587786259542
8.53,0.0771484375,-0.00390625,-0.977294921875,-0.5572519083969466,-0.183206106870229,-0.8244274809160306
8.54,0.07177734375,-0.010498046875,-0.978271484375,-0.816793893129771,0.08396946564885496,-0.022900763358778626
8.55,0.069091796875,-0.006103515625,-0.973388671875,-1.4427480916030535,-0.20610687022900764,0.21374045801526717
8.56,0.077392578125,-0.009033203125,-0.970703125,-2.1068702290076335,0.40458015267175573,0.6335877862595419
8.57,0.076904296875,-0.014892578125,-0.96826171875,-2.66412213740458,1.0610687022900764,1.0458015267175573
8.58,0.0830078125,-0.0126953125,-0.97509765625,-2.618320610687023,1.5267175572519085,0.8396946564885496
8.59,0.085205078125,-0.025146484375,-0.96142578125,-2.450381679389313,0.7938931297709924,1.8778625954198473
8.6,0.08349609375,-0.01953125,-0.951416015625,-1.5572519083969465,1.9236641221374047,-0.7633587786259542
8.61,0.0849609375,-0.001220703125,-0.95947265625,-1.0305343511450382,-0.7480916030534351,-0.9847328244274809
8.62,0.08056640625,-0.014892578125,-0.974853515625,-1.2061068702290076,-1.1145038167938932,-1.0763358778625953
8.63,0.074462890625,-0.014892578125,-0.97802734375,-2.2977099236641223,-0.9083969465648855,-1.0458015267175573
8.64,0.07421875,-0.01318359375,-0.961669921875,-2.931297709923664,-0.32061068702290074,-0.9083969465648855
8.65,0.073486328125,-0.016357421875,-0.96044921875,-2.900763358778626,0.24427480916030533,-0.25190839694656486
8.66,0.076904296875,-0.017578125,-0.97607421875,-2.2977099236641223,1.0687022900763359,0.5725190839694656
8.67,0.072021484375,-0.02197265625,-0.97265625,-1.8015267175572518,0.7251908396946565,0.5114503816793893
8.68,0.062744140625,-0.008056640625,-0.978271484375,-1.2748091603053435,0.33587786259541985,0.24427480916030533
8.69,0.063720703125,-0.009765625,-0.99169921875,-1.2595419847328244,0.12213740458015267,-0.16793893129770993
8.7,0.117431640625,-0.038330078125,-1.0,-0.8625954198473282,-0.29770992366412213,-1.1297709923664123
8.71,0.071533203125,0.008056640625,-0.99658203125,-2.2213740458015265,0.44274809160305345,-1.5801526717557253
8.72,0.082763671875,-0.00048828125,-0.9716796875,-3.900763358778626,-0.22900763358778625,-2.0229007633587788
8.73,0.0859375,-0.0068359375,-0.975830078125,-3.49618320610687,-0.44274809160305345,-2.5419847328244276
8.74,0.06787109375,-0.0048828125,-0.965576171875,-3.2900763358778624,-0.5419847328244275,-2.66412213740458
8.75,0.08154296875,-0.009765625,-0.969482421875,-2.885496183206107,-0.3893129770992366,-2.3893129770992365
8.76,0.073974609375,0.0146484375,-0.973876953125,-1.7404580152671756,-0.7633587786259542,-1.183206106870229
8.77,0.0712890625,0.00244140625,-0.974853515625,-1.8702290076335877,-0.8473282442748091,-0.5114503816793893
8.78,0.06884765625,0.003173828125,-0.989013671875,-1.9389312977099236,-1.1297709923664123,-0.24427480916030533
8.79,0.092529296875,0.01025390625,-0.98828125,-2.4198473282442747,-0.5648854961832062,-0.5801526717557252
8.8,0.095458984375,0.00537109375,-0.982666015625,-2.8244274809160306,-0.7480916030534351,-1.213740458015267
8.81,0.082763671875,0.001220703125,-0.982421875,-2.969465648854962,-0.3816793893129771,-0.9770992366412213
8.82,0.07958984375,0.001708984375,-0.98388671875,-2.969465648854962,-0.31297709923664124,-0.7557251908396947
8.83,0.062744140625,0.002685546875,-0.98046875,-3.351145038167939,-0.21374045801526717,-0.5801526717557252
8.84,0.064453125,0.012939453125,-0.991943359375,-4.1603053435114505,0.22137404580152673,-0.10687022900763359
8.85,0.078369140625,0.000244140625,-0.977783203125,-4.793893129770993,0.8702290076335878,0.32061068702290074
8.86,0.088623046875,-0.013671875,-0.994140625,-5.625954198473282,1.9465648854961832,0.03816793893129771
8.87,0.0986328125,-0.0185546875,-0.969970703125,-4.641221374045801,2.6564885496183206,0.007633587786259542
8.88,0.064453125,0.00244140625,-0.9609375,-4.648854961832061,1.2366412213740459,-0.6412213740458015
8.89,0.072998046875,0.01220703125,-0.95556640625,-5.305343511450381,1.2748091603053435,0.46564885496183206
8.9,0.08642578125,-0.0029296875,-0.9775390625,-4.229007633587786,1.7938931297709924,1.0381679389312977
8.91,0.105712890625,-0.019775390625,-0.97021484375,-4.4961832061068705,0.5038167938931297,-0.5419847328244275
8.92,0.08447265625,-0.009033203125,-0.982666015625,-3.6793893129770994,0.183206106870229,-0.9618320610687023
8.93,0.07666015625,-0.031005859375,-0.972900390625,-3.053435114503817,-1.3053435114503817,-1.9312977099236641
8.94,0.08642578125,-0.022705078125,-0.984375,-2.9923664122137406,-1.7557251908396947,-3.4885496183206106
8.95,0.08056640625,-0.017333984375,-0.9833984375,-3.66412213740458,-2.5267175572519083,-4.290076335877862
8.96,0.08544921875,-0.02001953125,-0.9619140625,-3.49618320610687,-3.114503816793893,-5.038167938931298
8.97,0.09326171875,-0.025146484375,-0.961181640625,-2.8091603053435112,-3.480916030534351,-4.709923664122138
8.98,0.071044921875,-0.01220703125,-0.96435546875,-3.877862595419847,-3.3969465648854964,-4.129770992366412
8.99,0.080078125,-0.018310546875,-0.98046875,-2.5419847328244276,-2.8244274809160306,-3.2977099236641223
9.0,0.076416015625,-0.020263671875,-0.95703125,-2.0763358778625953,-3.0839694656488548,-2.9236641221374047
9.01,0.0732421875,-0.025146484375,-0.966064453125,-2.427480916030534,-1.465648854961832,-2.480916030534351
9.02,0.06005859375,-0.021240234375,-0.95703125,-2.9389312977099236,-1.0305343511450382,-1.7404580152671756
9.03,0.07080078125,-0.02490234375,-0.9443359375,-2.045801526717557,-1.9541984732824427,-1.4122137404580153
9.04,0.07470703125,-0.0302734375,-0.95751953125,-0.7938931297709924,-2.045801526717557,-1.549618320610687
9.05,0.07861328125,-0.025390625,-0.96484375,-0.8549618320610687,-2.4656488549618323,-2.633587786259542
9.06,0.079833984375,-0.012939453125,-0.970947265625,-1.0381679389312977,-2.4732824427480917,-2.1908396946564888
9.07,0.073486328125,-0.008544921875,-0.973876953125,-1.2290076335877862,-1.9770992366412214,-2.015267175572519
9.08,0.070068359375,-0.00927734375,-0.97265625,-1.8091603053435115,-0.8854961832061069,-2.1526717557251906
9.09,0.051513671875,-0.011962890625,-0.9638671875,-1.549618320610687,-1.8854961832061068,-0.030534351145038167
9.1,0.057861328125,-0.0126953125,-0.966552734375,-0.45038167938931295,-3.366412213740458,-2.6412213740458017
9.11,0.05810546875,0.004638671875,-0.959716796875,0.46564885496183206,-4.251908396946565,-3.7251908396946565
9.12,0.069580078125,-0.0068359375,-0.98193359375,0.4122137404580153,-4.793893129770993,-6.038167938931298
9.13,0.05908203125,0.017578125,-0.99658203125,-0.022900763358778626,-3.1755725190839694,-7.961832061068702
9.14,0.076904296875,0.02099609375,-0.998779296875,-2.6106870229007635,-2.7938931297709924,-14.442748091603054
9.15,0.050048828125,0.06005859375,-1.014404296875,-6.435114503816794,2.900763358778626,-17.244274809160306
9.16,0.0361328125,0.02587890625,-0.99560546875,-4.244274809160306,2.801526717557252,-16.50381679389313
9.17,0.059326171875,0.063232421875,-1.021484375,-3.0916030534351147,3.5114503816793894,-10.198473282442748
9.18,0.077880859375,0.050537109375,-0.986083984375,-0.4122137404580153,5.190839694656488,-6.938931297709924
9.19,0.06298828125,0.0654296875,-1.0283203125,-0.4122137404580153,5.801526717557252,-4.244274809160306
9.2,0.0576171875,0.06884765625,-1.008056640625,-3.5572519083969465,7.847328244274809,0.40458015267175573
9.21,0.060302734375,0.064208984375,-0.977294921875,-4.366412213740458,8.282442748091603,3.1374045801526718
9.22,0.076904296875,0.031982421875,-0.958740234375,-4.221374045801527,6.099236641221374,2.9160305343511452
9.23,0.068359375,0.03466796875,-0.986572265625,-6.0,4.755725190839694,2.877862595419847
9.24,0.073974609375,0.03466796875,-0.986328125,-7.129770992366412,3.6030534351145036,3.122137404580153
9.25,0.087646484375,0.03955078125,-1.009033203125,-7.732824427480916,3.7480916030534353,4.022900763358779
9.26,0.074462890625,0.02490234375,-0.988525390625,-8.374045801526718,3.1374045801526718,4.0534351145038165
9.27,0.093505859375,0.010986328125,-0.98291015625,-8.770992366412214,2.717557251908397,2.5419847328244276
9.28,0.0966796875,0.00439453125,-0.992431640625,-9.16793893129771,2.1068702290076335,0.7862595419847328
9.29,0.10498046875,0.01171875,-1.001708984375,-11.694656488549619,2.0916030534351147,-0.31297709923664124
9.3,0.1044921875,0.019287109375,-1.006591796875,-10.221374045801527,3.8702290076335877,-0.7480916030534351
9.31,0.10400390625,0.035888671875,-1.022216796875,-11.053435114503817,2.946564885496183,0.4580152671755725
9.32,0.1064453125,0.031005859375,-1.0244140625,-11.572519083969466,3.4732824427480917,1.3129770992366412
9.33,0.11083984375,0.018310546875,-1.0361328125,-12.450381679389313,4.656488549618321,1.1221374045801527
9.34,0.116943359375,0.009033203125,-1.025634765625,-13.244274809160306,5.083969465648855,0.061068702290076333
9.35,0.1083984375,0.014892578125,-0.9921875,-11.755725190839694,5.9541984732824424,-0.6564885496183206
9.36,0.10302734375,-0.0126953125,-0.97802734375,-12.977099236641221,5.702290076335878,-0.7786259541984732
9.37,0.098876953125,0.003173828125,-0.972412109375,-12.435114503816793,6.740458015267175,0.183206106870229
9.38,0.085205078125,0.0166015625,-0.959716796875,-13.633587786259541,7.175572519083969,2.4427480916030535
9.39,0.092041015625,0.009765625,-0.95166015625,-10.86259541984733,7.488549618320611,3.969465648854962
9.4,0.086181640625,-0.013671875,-0.927978515625,-9.473282442748092,6.687022900763359,3.5572519083969465
9.41,0.088134765625,-0.029052734375,-0.91845703125,-6.358778625954199,4.6106870229007635,2.5114503816793894
9.42,0.077392578125,-0.01513671875,-0.919677734375,-6.488549618320611,4.9541984732824424,1.8015267175572518
9.43,0.067138671875,-0.012939453125,-0.89990234375,-6.6106870229007635,3.9389312977099236,0.6106870229007634
9.44,0.079833984375,-0.016357421875,-0.916015625,-4.709923664122138,3.068702290076336,0.549618320610687
9.45,0.065185546875,-0.000244140625,-0.903564453125,-3.068702290076336,2.3206106870229006,1.7557251908396947
9.46,0.064208984375,0.00048828125,-0.911865234375,-1.83206106870229,1.9770992366412214,3.0763358778625953
9.47,0.074462890625,-0.012939453125,-0.912109375,0.10687022900763359,1.748091603053435,2.7404580152671754
9.48,0.085205078125,-0.0244140625,-0.911376953125,0.5725190839694656,2.49618320610687,2.236641221374046
9.49,0.08349609375,-0.009521484375,-0.90673828125,0.5419847328244275,3.015267175572519,3.2442748091603053
9.5,0.086669921875,-0.0009765625,-0.945068359375,1.5572519083969465,4.587786259541985,5.038167938931298
9.51,0.08935546875,0.002197265625,-0.939208984375,1.4809160305343512,5.396946564885496,5.679389312977099
9.52,0.093505859375,-0.01220703125,-0.926513671875,1.2290076335877862,4.366412213740458,3.9923664122137406
9.53,0.100341796875,-0.017333984375,-0.9462890625,1.0687022900763359,3.122137404580153,2.1908396946564888
9.54,0.099609375,-0.007080078125,-0.950927734375,0.9618320610687023,2.763358778625954,0.3435114503816794
9.55,0.109375,0.002197265625,-0.968017578125,0.7709923664122137,3.6412213740458017,-0.4122137404580153
9.56,0.1240234375,0.012939453125,-0.979248046875,0.9312977099236641,4.404580152671755,0.42748091603053434
9.57,0.107421875,0.021484375,-0.98095703125,1.1297709923664123,4.587786259541985,1.099236641221374
9.58,0.1025390625,0.029052734375,-0.978759765625,1.0610687022900764,4.122137404580153,1.4580152671755726
9.59,0.113037109375,0.03271484375,-0.98779296875,0.09923664122137404,3.198473282442748,0.3282442748091603
9.6,0.121826171875,0.025146484375,-0.95361328125,-1.3129770992366412,2.5267175572519083,-1.5190839694656488
9.61,0.115478515625,0.01708984375,-0.96533203125,-1.7938931297709924,2.450381679389313,-2.618320610687023
9.62,0.11376953125,0.026611328125,-0.9765625,-1.1374045801526718,2.984732824427481,-2.2290076335877864
9.63,0.125244140625,0.028076171875,-0.981689453125,-0.9312977099236641,4.1603053435114505,-1.1068702290076335
9.64,0.09716796875,0.0390625,-0.968994140625,-0.48091603053435117,4.595419847328245,0.44274809160305345
9.65,0.109619140625,0.031494140625,-0.973388671875,-0.7251908396946565,4.305343511450381,0.5038167938931297
9.66,0.12109375,0.0419921875,-0.9580078125,-1.3969465648854962,4.511450381679389,0.1450381679389313
9.67,0.112060546875,0.007080078125,-0.939697265625,-1.0458015267175573,3.7022900763358777,-0.7175572519083969
9.68,0.11572265625,0.003662109375,-0.95166015625,0.24427480916030533,2.351145038167939,-1.7557251908396947
9.69,0.126953125,0.022705078125,-0.9599609375,0.1297709923664122,3.1603053435114505,-2.2595419847328246
9.7,0.11083984375,0.031005859375,-0.961669921875,-0.24427480916030533,3.7786259541984735,-1.282442748091603
9.71,0.097900390625,0.028564453125,-0.95703125,-0.1984732824427481,2.8625954198473282,-0.24427480916030533
9.72,0.1015625,0.040771484375,-0.96044921875,-0.45038167938931295,2.351145038167939,-0.648854961832061
9.73,0.118408203125,0.046630859375,-0.984130859375,-2.1374045801526718,1.9389312977099236,-2.2290076335877864
9.74,0.118896484375,0.016357421875,-0.966064453125,-3.068702290076336,0.816793893129771,-3.7709923664122136
9.75,0.119873046875,0.012451171875,-0.97216796875,-2.015267175572519,0.5648854961832062,-4.32824427480916
9.76,0.12158203125,0.01806640625,-0.96630859375,-1.6870229007633588,1.2061068702290076,-4.557251908396947
9.77,0.124755859375,0.02685546875,-0.96728515625,-1.282442748091603,1.7251908396946565,-5.816793893129771
9.78,0.129150390625,0.0400390625,-0.9638671875,-1.6412213740458015,3.4198473282442747,-2.7099236641221376
9.79,0.106689453125,0.025146484375,-0.95166015625,-1.1755725190839694,4.198473282442748,-1.7786259541984732
9.8,0.109130859375,0.00732421875,-0.944580078125,-1.5190839694656488,1.8091603053435115,-3.6259541984732824
9.81,0.1162109375,0.02099609375,-0.9609375,-3.2748091603053435,0.4198473282442748,-6.33587786259542
9.82,0.1162109375,0.019775390625,-0.953369140625,-4.198473282442748,-0.9236641221374046,-8.251908396946565
9.83,0.118896484375,0.01416015625,-0.979736328125,-4.419847328244275,-2.198473282442748,-9.106870229007633
9.84,0.125732421875,0.01220703125,-0.953369140625,-4.740458015267175,-2.2061068702290076,-9.50381679389313
9.85,0.1025390625,0.020751953125,-0.966552734375,-5.106870229007634,-3.5419847328244276,-9.274809160305344
9.86,0.097412109375,0.0166015625,-0.96240234375,-4.6106870229007635,-4.824427480916031,-8.0
9.87,0.121826171875,0.0087890625,-0.98876953125,-4.022900763358779,-5.229007633587786,-7.030534351145038
9.88,0.12158203125,0.012939453125,-0.998046875,-4.923664122137405,-5.00763358778626,-7.396946564885496
9.89,0.121337890625,0.02294921875,-1.01708984375,-4.679389312977099,-5.580152671755725,-7.3893129770992365
9.9,0.1318359375,0.017333984375,-1.03173828125,-4.3816793893129775,-6.1603053435114505,-7.267175572519084
9.91,0.13525390625,0.04345703125,-1.05712890625,-5.404580152671755,-4.114503816793893,-6.763358778625954
9.92,0.13427734375,0.042724609375,-1.031982421875,-5.778625954198473,-2.122137404580153,-5.427480916030534
9.93,0.12060546875,0.0380859375,-1.018310546875,-6.2748091603053435,-0.5190839694656488,-4.465648854961832
9.94,0.11376953125,0.024658203125,-0.98974609375,-6.648854961832061,0.42748091603053434,-3.7022900763358777
9.95,0.097412109375,0.001220703125,-0.975830078125,-5.6106870229007635,-0.29770992366412213,-4.091603053435114
9.96,0.102294921875,0.0087890625,-0.970947265625,-4.526717557251908,-0.25190839694656486,-5.030534351145038
9.97,0.09521484375,0.01220703125,-0.954345703125,-4.877862595419847,-0.19083969465648856,-5.984732824427481
9.98,0.09912109375,0.030029296875,-0.9248046875,-5.396946564885496,-0.4580152671755725,-6.396946564885496
9.99,0.093017578125,0.022705078125,-0.939453125,-4.465648854961832,0.4961832061068702,-5.206106870229007
10.0,0.09326171875,0.016357421875,-0.94775390625,-3.66412213740458,1.8473282442748091,-3.3969465648854964
10.01,0.083984375,0.01513671875,-0.941650390625,-2.5343511450381677,3.8091603053435112,-1.4580152671755726
10.02,0.082275390625,-0.003173828125,-0.913818359375,-1.5419847328244274,4.312977099236641,-0.9312977099236641
10.03,0.06494140625,0.000244140625,-0.908447265625,-0.8549618320610687,5.763358778625954,-0.9083969465648855
10.04,0.054443359375,-0.007080078125,-0.91015625,0.1450381679389313,3.0,-1.2290076335877862
10.05,0.090576171875,-0.004150390625,-0.937255859375,1.3282442748091603,3.1068702290076335,-2.1755725190839694
10.06,0.084716796875,0.0068359375,-0.934814453125,1.4961832061068703,4.0,-2.66412213740458
10.07,0.06982421875,0.03076171875,-0.933349609375,1.083969465648855,4.00763358778626,-2.854961832061069
10.08,0.065185546875,0.02099609375,-0.93408203125,0.42748091603053434,5.091603053435114,-3.1297709923664123
10.09,0.05810546875,-0.005859375,-0.923828125,-0.40458015267175573,6.465648854961832,-4.366412213740458
10.1,0.05419921875,-0.026123046875,-0.899658203125,0.8244274809160306,7.687022900763359,-6.916030534351145
10.11,0.04833984375,-0.034423828125,-0.89697265625,1.3053435114503817,8.221374045801527,-8.687022900763358
10.12,0.036376953125,-0.04052734375,-0.897216796875,2.7709923664122136,6.083969465648855,-10.664122137404581
10.13,0.080078125,-0.013916015625,-0.96044921875,2.3435114503816794,3.5572519083969465,-12.396946564885496
10.14,0.0888671875,0.066650390625,-1.02978515625,-0.9312977099236641,1.8625954198473282,-10.816793893129772
10.15,0.096435546875,0.117431640625,-1.048828125,-7.236641221374046,4.259541984732825,-6.984732824427481
10.16,0.095458984375,0.107177734375,-1.037109375,-11.83969465648855,7.015267175572519,-3.5877862595419847
10.17,0.087158203125,0.046875,-0.9921875,-16.053435114503817,6.206106870229007,-2.2748091603053435
10.18,0.109130859375,0.01025390625,-0.95556640625,-16.64885496183206,3.6259541984732824,-4.2748091603053435
10.19,0.12548828125,0.01416015625,-0.951416015625,-17.17557251908397,2.3435114503816794,-3.984732824427481
10.2,0.153076171875,0.01708984375,-0.95654296875,-17.31297709923664,1.6259541984732824,-7.206106870229007
10.21,0.128662109375,0.037353515625,-0.981689453125,-18.786259541984734,2.519083969465649,-5.114503816793893
10.22,0.110107421875,0.015869140625,-0.964111328125,-16.748091603053435,1.0305343511450382,-2.687022900763359
10.23,0.17138671875,0.018310546875,-0.9482421875,-13.351145038167939,0.17557251908396945,-0.7175572519083969
10.24,0.143310546875,0.000244140625,-0.947509765625,-10.305343511450381,-0.45038167938931295,-1.1145038167938932
10.25,0.161376953125,-0.0048828125,-0.961669921875,-9.404580152671755,-1.5725190839694656,-2.2977099236641223
10.26,0.146240234375,0.01806640625,-0.965087890625,-8.67175572519084,-2.50381679389313,-1.9770992366412214
10.27,0.14794921875,0.026611328125,-0.986572265625,-7.465648854961832,-3.3282442748091605,-0.007633587786259542
10.28,0.14697265625,0.03076171875,-0.984130859375,-7.748091603053435,-4.412213740458015,-2.9236641221374047
10.29,0.16064453125,0.02001953125,-0.994384765625,-4.229007633587786,-4.8320610687022905,-4.816793893129771
10.3,0.16552734375,0.035400390625,-1.0029296875,-3.236641221374046,-3.969465648854962,-5.656488549618321
10.31,0.15625,0.0517578125,-1.002197265625,-2.267175572519084,-3.16793893129771,-5.1603053435114505
10.32,0.15966796875,0.05810546875,-1.01171875,-1.2290076335877862,-3.16793893129771,-4.33587786259542
10.33,0.1630859375,0.0673828125,-1.023193359375,-0.03816793893129771,-2.7938931297709924,-3.7251908396946565
10.34,0.158935546875,0.085205078125,-1.025146484375,0.1984732824427481,-2.1526717557251906,-3.213740458015267
10.35,0.1494140625,0.089111328125,-1.019287109375,-0.48091603053435117,-0.7404580152671756,-2.7251908396946565
10.36,0.133544921875,0.0927734375,-1.013671875,-1.3511450381679388,-0.4580152671755725,-2.3587786259541983
10.37,0.13623046875,0.0859375,-1.003662109375,-1.7251908396946565,-1.1068702290076335,-3.030534351145038
10.38,0.142333984375,0.076171875,-0.997802734375,-2.183206106870229,-1.5801526717557253,-4.343511450381679
10.39,0.152587890625,0.093017578125,-0.9873046875,-3.030534351145038,-1.7938931297709924,-5.824427480916031
10.4,0.126953125,0.08984375,-0.970947265625,-3.6412213740458017,-2.519083969465649,-6.908396946564886
10.41,0.120361328125,0.080322265625,-0.97509765625,-3.572519083969466,-3.213740458015267,-6.3893129770992365
10.42,0.10986328125,0.09130859375,-0.97509765625,-2.7938931297709924,-3.122137404580153,-4.312977099236641
10.43,0.125244140625,0.086181640625,-0.979248046875,-1.4809160305343512,-1.4885496183206106,-3.885496183206107
10.44,0.133544921875,0.090087890625,-0.966552734375,-0.3816793893129771,0.648854961832061,0.8931297709923665
10.45,0.127197265625,0.071044921875,-0.968017578125,1.3435114503816794,2.0916030534351147,2.648854961832061
10.46,0.113525390625,0.068359375,-0.9384765625,1.8473282442748091,1.7938931297709924,3.1068702290076335
10.47,0.123779296875,0.059814453125,-0.956787109375,1.8931297709923665,0.3435114503816794,0.8625954198473282
10.48,0.124755859375,0.06689453125,-0.97119140625,1.6106870229007633,-0.33587786259541985,-0.549618320610687
10.49,0.127685546875,0.071533203125,-0.987548828125,0.9236641221374046,-1.2290076335877862,-0.9847328244274809
10.5,0.13330078125,0.0751953125,-0.9921875,0.6335877862595419,-1.0381679389312977,-0.48091603053435117
10.51,0.12353515625,0.068115234375,-0.984619140625,0.29770992366412213,0.4198473282442748,0.4198473282442748
10.52,0.11376953125,0.081787109375,-1.000732421875,0.16793893129770993,1.7786259541984732,2.5114503816793894
10.53,0.10498046875,0.07568359375,-0.980224609375,0.9923664122137404,1.9312977099236641,4.091603053435114
10.54,0.10498046875,0.059814453125,-0.979248046875,0.7175572519083969,1.7328244274809161,4.656488549618321
10.55,0.10546875,0.0576171875,-0.9833984375,1.213740458015267,1.3740458015267176,4.877862595419847
10.56,0.10595703125,0.044677734375,-0.96826171875,2.66412213740458,2.145038167938931,3.068702290076336
10.57,0.086181640625,0.002197265625,-0.973876953125,4.67175572519084,1.0076335877862594,0.9083969465648855
10.58,0.128173828125,0.025634765625,-0.95068359375,3.7938931297709924,0.5572519083969466,0.33587786259541985
10.59,0.1357421875,0.041015625,-0.96435546875,4.755725190839694,1.7251908396946565,0.22137404580152673
10.6,0.11767578125,0.06689453125,-0.972900390625,2.633587786259542,0.9389312977099237,1.0916030534351144
10.61,0.10888671875,0.0634765625,-0.956787109375,0.48091603053435117,0.4732824427480916,1.6793893129770991
10.62,0.119384765625,0.052978515625,-0.955322265625,-0.25190839694656486,-0.2748091603053435,0.916030534351145
10.63,0.117431640625,0.03466796875,-0.939453125,-0.7251908396946565,-1.1526717557251909,0.6412213740458015
10.64,0.10400390625,0.053466796875,-0.94775390625,-0.2900763358778626,-1.7251908396946565,1.8549618320610688
10.65,0.102783203125,0.059326171875,-0.92578125,-0.22137404580152673,-1.702290076335878,3.4656488549618323
10.66,0.103271484375,0.057373046875,-0.93505859375,-0.11450381679389313,-1.1374045801526718,4.366412213740458
10.67,0.097412109375,0.0546875,-0.9453125,-0.46564885496183206,-1.5877862595419847,4.885496183206107
10.68,0.109130859375,0.060791015625,-0.951171875,-0.816793893129771,-1.381679389312977,5.404580152671755
10.69,0.099853515625,0.049560546875,-0.953125,-1.8244274809160306,-1.0610687022900764,6.0
10.7,0.0966796875,0.03759765625,-0.948486328125,-1.8931297709923665,-2.099236641221374,5.809160305343512
10.71,0.111572265625,0.02197265625,-0.93896484375,-1.5038167938931297,-2.6793893129770994,5.7251908396946565
10.72,0.1220703125,0.0107421875,-0.944580078125,-0.5877862595419847,-3.16793893129771,5.00763358778626
10.73,0.130615234375,-0.004150390625,-0.96875,0.8778625954198473,-2.931297709923664,4.358778625954199
10.74,0.123779296875,0.02099609375,-0.965576171875,1.8549618320610688,-2.6106870229007635,5.213740458015267
10.75,0.11767578125,0.0361328125,-0.98193359375,2.7557251908396947,-2.5572519083969465,6.519083969465649
10.76,0.137939453125,0.05615234375,-0.988037109375,2.9389312977099236,-2.1526717557251906,7.221374045801527
10.77,0.125,0.051513671875,-0.995849609375,2.068702290076336,-3.648854961832061,6.183206106870229
10.78,0.140625,0.048828125,-0.998779296875,-1.183206106870229,-3.3587786259541983,4.00763358778626
10.79,0.15283203125,0.04443359375,-0.976318359375,-4.1679389312977095,-2.5572519083969465,1.5725190839694656
10.8,0.144287109375,0.026123046875,-0.982421875,-4.648854961832061,-3.3740458015267176,0.8854961832061069
10.81,0.150146484375,0.016357421875,-0.973876953125,-2.7786259541984735,-3.3053435114503817,0.4198473282442748
10.82,0.14794921875,0.032470703125,-0.97998046875,-2.0916030534351147,-1.1755725190839694,1.3053435114503817
10.83,0.12451171875,0.0302734375,-0.976806640625,-1.8702290076335877,-0.3282442748091603,1.7938931297709924
10.84,0.11474609375,0.042236328125,-0.974365234375,-1.7099236641221374,-1.4274809160305344,2.145038167938931
10.85,0.13232421875,0.03857421875,-0.9716796875,-2.366412213740458,-1.7786259541984732,0.648854961832061
10.86,0.133544921875,0.033203125,-0.980224609375,-4.396946564885496,-1.4427480916030535,-1.1908396946564885
10.87,0.120361328125,0.04541015625,-0.967041015625,-4.877862595419847,-1.4198473282442747,-1.4045801526717556
10.88,0.135498046875,0.00048828125,-0.959228515625,-3.786259541984733,-1.6488549618320612,-1.282442748091603
10.89,0.13525390625,0.02783203125,-0.9677734375,-3.16793893129771,-1.0458015267175573,-0.3435114503816794
10.9,0.131591796875,0.046142578125,-0.9755859375,-2.236641221374046,-0.030534351145038167,1.9389312977099236
10.91,0.117919921875,0.0546875,-0.974853515625,-1.0687022900763359,0.9389312977099237,4.885496183206107
10.92,0.117431640625,0.0654296875,-0.98046875,-1.3206106870229009,2.3740458015267176,7.015267175572519
10.93,0.103759765625,0.06005859375,-0.966796875,-2.198473282442748,3.3053435114503817,8.206106870229007
10.94,0.103271484375,0.02783203125,-0.9375,-2.5572519083969465,3.282442748091603,7.885496183206107
10.95,0.10205078125,0.0185546875,-0.938720703125,-3.8244274809160306,2.6030534351145036,7.267175572519084
10.96,0.10791015625,0.009033203125,-0.93310546875,-0.6717557251908397,1.366412213740458,5.6106870229007635
10.97,0.103759765625,0.00439453125,-0.953369140625,-0.1297709923664122,1.7404580152671756,6.312977099236641
10.98,0.101806640625,0.048828125,-0.97119140625,1.4045801526717556,3.1068702290076335,9.183206106870228
10.99,0.09326171875,0.057861328125,-0.971435546875,3.1374045801526718,4.4961832061068705,12.549618320610687
11.0,0.086669921875,0.06103515625,-0.969970703125,3.0916030534351147,4.8320610687022905,14.274809160305344
11.01,0.096435546875,0.0546875,-0.956787109375,2.564885496183206,5.847328244274809,14.076335877862595
11.02,0.1005859375,0.04052734375,-0.939208984375,1.366412213740458,2.6106870229007635,11.740458015267176
11.03,0.105224609375,0.015869140625,-0.943603515625,-0.07633587786259542,0.4198473282442748,8.870229007633588
11.04,0.086669921875,0.029541015625,-0.948974609375,0.17557251908396945,-1.7938931297709924,6.488549618320611
11.05,0.11962890625,0.034423828125,-0.957763671875,0.7022900763358778,-2.3282442748091605,4.755725190839694
11.06,0.127685546875,0.046630859375,-0.95458984375,1.1297709923664123,-2.053435114503817,5.068702290076335
11.07,0.132568359375,0.05615234375,-0.97998046875,1.6259541984732824,-1.7709923664122138,5.229007633587786
11.08,0.12939453125,0.05810546875,-0.987060546875,1.0229007633587786,-0.9618320610687023,4.709923664122138
11.09,0.1201171875,0.062255859375,-0.9736328125,-0.48854961832061067,-0.9083969465648855,4.00763358778626
11.1,0.11962890625,0.0361328125,-0.96826171875,-0.9465648854961832,-2.7251908396946565,1.8091603053435115
11.11,0.119140625,0.02294921875,-0.96044921875,-1.2213740458015268,-4.67175572519084,-1.1374045801526718
11.12,0.11474609375,0.039306640625,-0.98193359375,-1.4122137404580153,-5.6106870229007635,-2.5419847328244276
11.13,0.12939453125,0.056640625,-0.978271484375,-1.0381679389312977,-5.755725190839694,-3.0076335877862594
11.14,0.142578125,0.061767578125,-1.01171875,-1.3587786259541985,-3.9618320610687023,-2.3435114503816794
11.15,0.131591796875,0.07080078125,-0.99609375,-2.33587786259542,-3.9083969465648853,-0.5343511450381679
11.16,0.12646484375,0.048583984375,-0.9931640625,-2.1297709923664123,-1.7633587786259541,-0.4732824427480916
11.17,0.1171875,0.036865234375,-0.96923828125,-1.702290076335878,-1.8244274809160306,-0.4351145038167939
11.18,0.121826171875,0.031005859375,-0.968994140625,-1.5877862595419847,-3.3435114503816794,-2.381679389312977
11.19,0.120361328125,0.024658203125,-0.97216796875,-1.7938931297709924,-4.290076335877862,-3.854961832061069
11.2,0.118896484375,0.039794921875,-0.9541015625,-2.122137404580153,-4.809160305343512,-4.061068702290076
11.21,0.1259765625,0.05859375,-0.97705078125,-2.030534351145038,-4.412213740458015,-4.374045801526718
11.22,0.116455078125,0.04736328125,-0.964111328125,-2.7404580152671754,-3.6717557251908395,-4.0458015267175576
11.23,0.10205078125,0.04541015625,-0.9580078125,-2.6106870229007635,-4.152671755725191,-3.2061068702290076
11.24,0.09326171875,0.04150390625,-0.95703125,-2.4198473282442747,-4.511450381679389,-3.2213740458015265
11.25,0.102294921875,0.049072265625,-0.953857421875,-3.2595419847328246,-4.694656488549619,-3.351145038167939
11.26,0.097412109375,0.039306640625,-0.941162109375,-4.175572519083969,-4.847328244274809,-3.7251908396946565
