Time(s),AccX,AccY,AccZ,GyrX,GyrY,GyrZ
0.0,0.025390625,-0.08447265625,1.07080078125,-1.1755725190839694,-0.05343511450381679,-1.0610687022900764
0.1,0.015625,-0.092041015625,1.072265625,-1.015267175572519,1.9389312977099236,-0.9847328244274809
0.2,0.026123046875,-0.093017578125,1.0693359375,-1.3282442748091603,-0.06870229007633588,-0.9236641221374046
0.3,0.02685546875,-0.086181640625,1.074462890625,-1.0305343511450382,1.900763358778626,-1.16793893129771
0.4,0.029052734375,-0.08056640625,1.0634765625,-0.916030534351145,-0.061068702290076333,-1.0534351145038168
0.5,0.02734375,-0.085693359375,1.07568359375,-1.2442748091603053,0.05343511450381679,-1.1450381679389312
0.6,0.023193359375,-0.090576171875,1.070068359375,-1.2900763358778626,0.10687022900763359,-0.9083969465648855
0.7,0.028076171875,-0.09326171875,1.077880859375,-1.3282442748091603,-0.20610687022900764,-1.0076335877862594
0.8,0.043701171875,-0.089599609375,1.073974609375,-1.0305343511450382,-1.9465648854961832,-1.0
0.9,0.028564453125,-0.09228515625,1.06591796875,-1.0229007633587786,-0.07633587786259542,-1.083969465648855
1.0,0.024169921875,-0.08984375,1.076416015625,-1.1755725190839694,1.9312977099236641,-1.3129770992366412
1.1,0.02392578125,-0.08984375,1.064208984375,-1.1526717557251909,-0.1450381679389313,-1.3435114503816794
1.2,0.024169921875,-0.094482421875,1.079833984375,-1.0916030534351144,0.07633587786259542,-1.1526717557251909
1.3,0.028564453125,-0.093017578125,1.063720703125,-0.9083969465648855,0.11450381679389313,-1.1297709923664123
1.4,0.01611328125,-0.08544921875,1.07275390625,-1.282442748091603,1.8778625954198473,-1.0305343511450382
1.5,0.02392578125,-0.093017578125,1.06982421875,-1.1374045801526718,0.08396946564885496,-1.1603053435114503
1.6,0.02978515625,-0.090576171875,1.084228515625,-1.213740458015267,-0.05343511450381679,-1.297709923664122
1.7,0.02734375,-0.087890625,1.0625,-0.9236641221374046,-0.007633587786259542,-1.0687022900763359
1.8,0.0263671875,-0.090576171875,1.073486328125,-1.1145038167938932,0.11450381679389313,-1.0076335877862594
1.9,0.02880859375,-0.0810546875,1.074462890625,-1.2061068702290076,-0.0916030534351145,-0.9770992366412213
2.0,0.02978515625,-0.08935546875,1.081298828125,-1.1984732824427482,-0.2824427480916031,-1.099236641221374
2.1,0.028076171875,-0.09375,1.073486328125,-1.2366412213740459,-0.16030534351145037,-1.0
2.2,0.029541015625,-0.09375,1.0771484375,-1.083969465648855,1.8931297709923665,-1.1526717557251909
2.3,0.028564453125,-0.07861328125,1.07470703125,-1.0916030534351144,-0.08396946564885496,-1.2213740458015268
2.4,0.03125,-0.089599609375,1.076904296875,-1.1450381679389312,-0.20610687022900764,-1.0229007633587786
2.5,0.02880859375,-0.10205078125,1.078125,-0.9389312977099237,-0.06870229007633588,-1.1221374045801527
2.6,0.029541015625,-0.0927734375,1.080322265625,-1.213740458015267,-0.21374045801526717,-1.0763358778625953
2.7,0.029541015625,-0.108642578125,1.070068359375,-1.2061068702290076,-0.030534351145038167,-1.1297709923664123
2.8,0.026611328125,-0.091064453125,1.076904296875,-1.0534351145038168,-0.07633587786259542,-1.1221374045801527
2.9,0.025146484375,-0.09326171875,1.0908203125,-1.1145038167938932,-0.04580152671755725,-1.0
3.0,0.03173828125,-0.089111328125,1.07958984375,-1.2213740458015268,-0.16793893129770993,-1.0381679389312977
3.1,0.020263671875,-0.107666015625,1.07177734375,-1.099236641221374,-0.05343511450381679,-1.1984732824427482
3.2,0.0302734375,-0.092041015625,1.074951171875,-1.0305343511450382,-0.08396946564885496,-1.1297709923664123
3.3,0.028564453125,-0.089111328125,1.082763671875,-0.9923664122137404,-0.09923664122137404,-1.0381679389312977
3.4,0.030029296875,-0.0888671875,1.08251953125,-0.9083969465648855,-0.061068702290076333,-1.083969465648855
3.5,0.028564453125,-0.090576171875,1.06884765625,-1.3511450381679388,-0.16793893129770993,-1.083969465648855
3.6,0.044189453125,-0.094970703125,1.075439453125,-1.0,-0.21374045801526717,-1.1908396946564885
3.7,0.031494140625,-0.091796875,1.072998046875,-1.0610687022900764,-0.1984732824427481,-1.213740458015267
3.8,0.031982421875,-0.094970703125,1.078369140625,-1.1603053435114503,0.022900763358778626,-1.3587786259541985
3.9,0.033447265625,-0.092041015625,1.073486328125,-1.2748091603053435,1.9312977099236641,-1.0076335877862594
4.0,0.029052734375,-0.09423828125,1.0703125,-1.1221374045801527,-0.022900763358778626,-1.1221374045801527
4.1,0.034912109375,-0.09228515625,1.067626953125,-1.183206106870229,0.16030534351145037,-1.1221374045801527
4.2,0.0263671875,-0.091064453125,1.076904296875,-0.9541984732824428,-0.061068702290076333,-1.251908396946565
4.3,0.028076171875,-0.083251953125,1.076171875,-0.7862595419847328,-0.0916030534351145,-1.183206106870229
4.4,0.023681640625,-0.088134765625,1.07421875,-1.2595419847328244,-0.22900763358778625,-1.0687022900763359
4.5,0.031005859375,-0.09375,1.07763671875,-1.1603053435114503,-0.1297709923664122,-1.2213740458015268
4.6,0.016357421875,-0.0849609375,1.07568359375,-1.1297709923664123,-0.08396946564885496,-1.2671755725190839
4.7,0.03076171875,-0.08935546875,1.0732421875,-1.16793893129771,-0.06870229007633588,-1.0916030534351144
4.8,0.01806640625,-0.087890625,1.073486328125,-0.8854961832061069,-0.05343511450381679,-1.1297709923664123
4.9,0.030029296875,-0.090576171875,1.064208984375,-0.9618320610687023,-0.11450381679389313,-0.9007633587786259
5.0,0.02734375,-0.091064453125,1.0830078125,-0.9770992366412213,-1.9236641221374047,-1.1297709923664123
5.1,0.02978515625,-0.08740234375,1.091796875,-1.083969465648855,-0.12213740458015267,-1.1297709923664123
5.2,0.03369140625,-0.078369140625,1.08154296875,-0.9694656488549618,1.9465648854961832,-1.1603053435114503
5.3,0.025390625,-0.087890625,1.07177734375,-0.9770992366412213,-0.007633587786259542,-1.1755725190839694
5.4,0.044921875,-0.09423828125,1.07470703125,-1.1297709923664123,-0.0916030534351145,-1.2290076335877862
5.5,0.023681640625,-0.090087890625,1.08935546875,-1.099236641221374,-0.15267175572519084,-1.183206106870229
5.6,0.01953125,-0.087158203125,1.0693359375,-1.1755725190839694,-0.31297709923664124,-0.9923664122137404
5.7,0.025634765625,-0.090087890625,1.072509765625,-1.2671755725190839,0.09923664122137404,-1.1450381679389312
5.8,0.02685546875,-0.08740234375,1.075439453125,-1.1297709923664123,-0.0916030534351145,-1.1145038167938932
5.9,0.031005859375,-0.087890625,1.0625,-1.282442748091603,0.022900763358778626,-1.213740458015267
6.0,0.0087890625,-0.08642578125,1.069091796875,-5.557251908396947,-8.48091603053435,-3.4427480916030535
6.1,0.0810546875,-0.349609375,1.088134765625,-19.572519083969464,-40.43511450381679,-17.85496183206107
6.2,0.31787109375,-0.24365234375,1.078125,31.083969465648856,-165.1145038167939,-63.23664122137404
6.3,0.189697265625,0.3671875,0.09619140625,140.00763358778627,161.5648854961832,62.43511450381679
6.4,-0.877685546875,-0.6640625,1.99993896484375,38.11450381679389,18.931297709923665,18.717557251908396
6.5,0.474365234375,-0.103515625,1.305908203125,-18.748091603053435,-157.8091603053435,-56.56488549618321
6.6,0.365234375,0.1591796875,0.12353515625,-13.763358778625955,16.290076335877863,-1.916030534351145
6.7,-0.13671875,-0.664794921875,1.99993896484375,-50.83969465648855,206.78625954198472,21.30534351145038
6.8,0.32666015625,-0.117919921875,1.2705078125,-4.374045801526718,-169.01526717557252,-60.2442748091603
6.9,0.417724609375,0.078125,0.4345703125,9.01526717557252,78.3206106870229,12.267175572519085
7.0,-0.20751953125,-0.4892578125,1.99993896484375,48.29007633587786,87.74045801526718,31.14503816793893
7.1,0.25830078125,-0.242431640625,1.243408203125,0.24427480916030533,-157.206106870229,-39.20610687022901
7.2,0.4111328125,0.07373046875,0.56494140625,10.458015267175572,81.21374045801527,15.48091603053435
7.3,-0.193359375,-0.342041015625,1.99993896484375,51.2442748091603,40.99236641221374,16.137404580152673
7.4,0.233642578125,-0.16259765625,1.270751953125,-3.030534351145038,-139.29770992366412,-43.16793893129771
7.5,0.45751953125,0.041259765625,0.4384765625,-9.770992366412214,-15.977099236641221,-5.450381679389313
7.6,0.520751953125,-0.04150390625,0.846923828125,-55.11450381679389,188.49618320610688,28.259541984732824
7.7,0.129150390625,-0.165771484375,1.064697265625,-17.251908396946565,-58.274809160305345,-7.641221374045801
7.8,0.316162109375,-0.06640625,0.8232421875,24.12213740458015,-98.42748091603053,-20.61832061068702
7.9,0.38427734375,0.066650390625,0.61962890625,2.8931297709923665,136.78625954198472,10.50381679389313
8.0,0.05712890625,-0.12744140625,1.184326171875,-10.34351145038168,-45.908396946564885,3.816793893129771
8.1,0.3837890625,-0.16552734375,0.94677734375,9.946564885496183,-115.81679389312977,-19.923664122137403
8.2,0.29541015625,-0.070556640625,0.596435546875,13.206106870229007,133.41221374045801,9.129770992366412
8.3,0.037109375,-0.138427734375,1.33544921875,-6.015267175572519,-58.969465648854964,5.129770992366412
8.4,0.302001953125,-0.117919921875,0.958984375,13.572519083969466,-95.13740458015268,-13.358778625954198
8.5,0.319091796875,-0.078369140625,0.7001953125,16.870229007633586,111.38167938931298,13.038167938931299
8.6,0.0888671875,-0.188720703125,1.309814453125,-13.732824427480915,-52.66412213740458,-4.183206106870229
8.7,0.283203125,-0.162353515625,0.94140625,13.297709923664122,-103.16030534351145,-17.450381679389313
8.8,0.4013671875,0.0400390625,0.65673828125,12.335877862595419,139.50381679389312,12.763358778625955
8.9,0.027587890625,-0.1806640625,1.429443359375,-2.2061068702290076,-37.36641221374046,-1.7709923664122138
9.0,0.25390625,-0.179931640625,1.0908203125,-14.106870229007633,-89.22900763358778,-21.374045801526716
9.1,0.297119140625,-0.080810546875,0.7529296875,10.404580152671755,72.25190839694656,10.885496183206106
9.2,-0.07373046875,-0.10888671875,1.637451171875,11.80916030534351,20.84732824427481,-1.6412213740458015
9.3,0.247314453125,-0.136474609375,1.1875,-38.69465648854962,-94.20610687022901,-13.16793893129771
9.4,0.398193359375,-0.153564453125,0.624755859375,21.786259541984734,45.58015267175573,12.969465648854962
9.5,0.00341796875,-0.22119140625,1.689208984375,18.755725190839694,31.00763358778626,7.358778625954199
9.6,0.24560546875,-0.1005859375,1.06884765625,-21.213740458015266,-98.20610687022901,-20.740458015267176
9.7,0.32763671875,-0.024658203125,0.72802734375,23.68702290076336,94.94656488549619,26.87786259541985
9.8,-0.035888671875,-0.165771484375,1.63134765625,-4.625954198473282,-15.13740458015267,-2.7786259541984735
9.9,0.296142578125,-0.23291015625,1.034423828125,-16.740458015267176,-119.04580152671755,-23.198473282442748
10.0,0.373779296875,-0.078857421875,0.6943359375,1.3435114503816794,75.17557251908397,6.183206106870229
10.1,-0.1162109375,-0.155517578125,1.935302734375,21.862595419847327,15.045801526717558,12.282442748091603
10.2,0.3037109375,-0.246337890625,0.9814453125,-3.1526717557251906,-122.22900763358778,-20.81679389312977
10.3,0.37109375,-0.133056640625,0.712890625,6.740458015267175,84.87786259541984,2.49618320610687
10.4,-0.1083984375,-0.178466796875,1.902099609375,40.88549618320611,35.66412213740458,11.641221374045802
10.5,0.25146484375,-0.203857421875,1.145751953125,-26.427480916030536,-104.10687022900764,-5.564885496183206
10.6,0.357421875,-0.140625,0.684326171875,6.061068702290076,39.68702290076336,5.633587786259542
10.7,-0.025390625,-0.015380859375,1.638427734375,54.83969465648855,120.93129770992367,24.435114503816795
10.8,0.279296875,-0.320068359375,1.067138671875,-28.984732824427482,-144.13740458015266,-19.625954198473284
10.9,0.385498046875,-0.0791015625,0.716796875,3.648854961832061,77.31297709923665,2.2595419847328246
11.0,-0.25341796875,-0.125244140625,1.713134765625,37.17557251908397,15.366412213740459,22.81679389312977
11.1,0.274658203125,-0.213623046875,0.9873046875,-24.946564885496183,-93.21374045801527,-14.48091603053435
11.2,0.3251953125,-0.15478515625,0.712158203125,7.129770992366412,94.80152671755725,5.221374045801527
11.3,-0.022705078125,-0.36962890625,1.62744140625,-35.29007633587786,-100.62595419847328,-9.458015267175572
11.4,0.37451171875,-0.02734375,0.625,38.725190839694655,-71.3587786259542,-18.572519083969464
11.5,0.34716796875,-0.14013671875,0.779541015625,4.198473282442748,100.6793893129771,-3.7709923664122136
11.6,0.0185546875,-0.37548828125,1.481201171875,-19.419847328244273,-75.22137404580153,5.366412213740458
11.7,0.3037109375,-0.218505859375,0.819091796875,26.267175572519083,-86.80916030534351,-9.755725190839694
11.8,0.35595703125,-0.219482421875,0.7626953125,15.854961832061068,100.51908396946565,-4.9541984732824424
11.9,-0.026123046875,-0.285400390625,1.60009765625,-15.931297709923664,-76.22137404580153,13.129770992366412
12.0,0.380859375,-0.177001953125,0.824462890625,31.740458015267176,-87.3587786259542,-14.770992366412214
12.1,0.3642578125,-0.198974609375,0.719482421875,16.46564885496183,96.86259541984732,-4.259541984732825
12.2,-0.108154296875,-0.338623046875,1.812255859375,-21.106870229007633,-76.67175572519083,-3.8625954198473282
12.3,0.346923828125,-0.186767578125,0.66015625,41.282442748091604,-87.90839694656489,1.3129770992366412
12.4,0.307861328125,-0.21728515625,0.7607421875,17.80916030534351,106.82442748091603,-0.7709923664122137
12.5,0.058837890625,-0.3349609375,1.65087890625,-22.221374045801525,-105.3206106870229,0.13740458015267176
12.6,0.39208984375,-0.114501953125,0.623779296875,34.56488549618321,-57.16030534351145,-7.587786259541985
12.7,0.353759765625,-0.152587890625,0.73681640625,8.068702290076336,139.29007633587787,-7.32824427480916
12.8,0.191162109375,-0.214111328125,1.38818359375,-52.70229007633588,-109.77862595419847,-12.603053435114504
12.9,0.4287109375,-0.126220703125,0.63671875,19.404580152671755,-45.221374045801525,-4.320610687022901
13.0,0.290283203125,-0.160888671875,0.74609375,6.244274809160306,136.26717557251908,1.1374045801526718
13.1,0.120849609375,-0.179443359375,1.3583984375,-53.656488549618324,-122.7175572519084,-14.34351145038168
13.2,0.431396484375,-0.071044921875,0.547119140625,14.389312977099237,-29.221374045801525,-6.900763358778626
13.3,0.2841796875,-0.0986328125,0.815185546875,-17.106870229007633,158.6793893129771,-8.786259541984732
13.4,0.1259765625,-0.29833984375,1.11767578125,-52.10687022900763,-107.72519083969466,-14.564885496183207
13.5,0.3701171875,-0.1826171875,0.7099609375,14.48091603053435,-28.198473282442748,11.625954198473282
13.6,0.21728515625,-0.212158203125,0.71630859375,-6.648854961832061,169.04580152671755,-1.1374045801526718
13.7,0.091064453125,-0.09619140625,1.166748046875,-64.09923664122137,-140.3206106870229,-12.587786259541986
13.8,0.341552734375,-0.10888671875,0.62841796875,2.7022900763358777,27.19083969465649,3.8473282442748094
13.9,0.08349609375,-0.061279296875,1.552978515625,83.51908396946565,127.74045801526718,19.427480916030536
14.0,0.3798828125,-0.04931640625,1.036376953125,-40.229007633587784,-115.03053435114504,-17.251908396946565
14.1,0.36279296875,-0.212890625,0.655517578125,14.221374045801527,26.69465648854962,6.8320610687022905
14.2,0.181640625,-0.126220703125,1.602294921875,92.38167938931298,175.5267175572519,13.641221374045802
14.3,0.21337890625,-0.10888671875,0.9423828125,-17.50381679389313,-50.229007633587784,-0.8778625954198473
14.4,0.304443359375,-0.22119140625,0.9599609375,-12.01526717557252,-40.954198473282446,-4.893129770992366
14.5,0.24560546875,-0.170166015625,1.008056640625,25.267175572519083,98.09923664122137,-0.04580152671755725
14.6,0.079345703125,-0.1181640625,1.1943359375,-34.725190839694655,-82.43511450381679,-23.49618320610687
14.7,0.31787109375,-0.00634765625,0.77001953125,3.564885496183206,-6.183206106870229,1.717557251908397
14.8,0.23193359375,-0.15283203125,0.916259765625,-40.19083969465649,80.79389312977099,13.297709923664122
14.9,0.168212890625,-0.203369140625,1.024658203125,-15.351145038167939,-60.61068702290076,-9.893129770992367
15.0,0.27294921875,-0.22509765625,0.93017578125,10.458015267175572,-54.97709923664122,2.33587786259542
15.1,0.3017578125,-0.126953125,0.855224609375,10.82442748091603,79.90076335877863,8.274809160305344
15.2,0.16943359375,-0.257568359375,1.33056640625,-4.625954198473282,-35.458015267175576,-7.099236641221374
15.3,0.1796875,-0.178955078125,1.168701171875,0.05343511450381679,0.29770992366412213,4.129770992366412
15.4,0.380126953125,-0.18994140625,0.7236328125,12.587786259541986,-13.221374045801527,-11.404580152671755
15.5,0.058349609375,-0.183349609375,1.694580078125,46.045801526717554,93.3206106870229,14.67175572519084
15.6,0.171875,-0.244140625,0.96728515625,-10.19083969465649,-87.25954198473282,-15.038167938931299
15.7,0.4033203125,-0.1845703125,0.77880859375,7.473282442748092,26.984732824427482,2.877862595419847
15.8,0.16064453125,-0.181640625,1.39013671875,16.923664122137403,113.3206106870229,19.862595419847327
15.9,0.161376953125,-0.196044921875,0.91748046875,-13.389312977099237,-82.97709923664122,-25.778625954198475
16.0,0.402587890625,-0.23046875,0.75390625,3.480916030534351,13.664122137404581,0.6641221374045801
16.1,0.162109375,-0.166748046875,1.271240234375,35.61832061068702,141.14503816793894,26.061068702290076
16.2,0.207275390625,-0.2197265625,0.896484375,-22.83969465648855,-98.97709923664122,-24.984732824427482
16.3,0.420654296875,-0.2333984375,0.79541015625,17.114503816793892,31.51145038167939,4.259541984732825
16.4,-0.196533203125,0.066650390625,1.7177734375,68.03053435114504,70.69465648854961,31.27480916030534
16.5,0.1484375,-0.096435546875,0.933349609375,14.022900763358779,35.083969465648856,2.946564885496183
16.6,-0.0107421875,-0.131591796875,1.10693359375,4.755725190839694,-7.290076335877862,-2.5419847328244276
16.7,0.03662109375,-0.103271484375,1.07275390625,-0.6564885496183206,-1.366412213740458,-1.2900763358778626
16.8,0.035888671875,-0.10693359375,1.06884765625,-1.1221374045801527,0.6335877862595419,-1.183206106870229
16.9,0.025146484375,-0.101318359375,1.075439453125,-1.0916030534351144,0.5648854961832062,-1.0687022900763359
17.0,0.029541015625,-0.106689453125,1.0703125,-1.282442748091603,0.33587786259541985,-1.183206106870229
17.1,0.033203125,-0.104736328125,1.070068359375,-1.1374045801526718,0.5725190839694656,-0.9465648854961832
17.2,0.036865234375,-0.104736328125,1.0712890625,-1.1984732824427482,0.11450381679389313,-1.1297709923664123
17.3,0.031005859375,-0.107421875,1.068359375,-1.183206106870229,0.5725190839694656,-1.1450381679389312
17.4,0.0166015625,-0.111083984375,1.06884765625,-0.9465648854961832,-0.15267175572519084,-1.2671755725190839
17.5,0.020751953125,-0.10791015625,1.084716796875,-1.083969465648855,0.1984732824427481,-1.1526717557251909
17.6,0.02783203125,-0.105712890625,1.0703125,-1.1603053435114503,1.9083969465648856,-1.2748091603053435
17.7,0.02978515625,-0.102783203125,1.064697265625,-1.0534351145038168,0.24427480916030533,-1.1984732824427482
17.8,0.025390625,-0.111083984375,1.076904296875,-0.8931297709923665,0.15267175572519084,-1.0381679389312977
17.9,0.02392578125,-0.105224609375,1.072509765625,-1.1603053435114503,0.07633587786259542,-1.297709923664122
18.0,0.029296875,-0.107421875,1.074951171875,-1.1145038167938932,-1.916030534351145,-0.8931297709923665
18.1,0.023193359375,-0.112060546875,1.074462890625,-1.0458015267175573,-0.15267175572519084,-0.9465648854961832
18.2,0.028076171875,-0.1064453125,1.076904296875,-1.0610687022900764,0.29770992366412213,-1.2671755725190839
18.3,0.02099609375,-0.107177734375,1.077392578125,-1.2900763358778626,0.17557251908396945,-1.0305343511450382
18.4,0.022216796875,-0.12109375,1.077880859375,-1.2290076335877862,0.06870229007633588,-1.1374045801526718
18.5,0.028564453125,-0.10595703125,1.074951171875,-1.3053435114503817,0.15267175572519084,-1.3129770992366412
18.6,0.02099609375,-0.107666015625,1.082763671875,-1.1450381679389312,1.9236641221374047,-1.213740458015267
18.7,0.0263671875,-0.10205078125,1.06982421875,-1.1297709923664123,0.1450381679389313,-1.2290076335877862
18.8,0.0205078125,-0.103759765625,1.07470703125,-1.1908396946564885,-0.22900763358778625,-1.2748091603053435
18.9,0.027099609375,-0.108642578125,1.065673828125,-1.282442748091603,0.3053435114503817,-1.2748091603053435
19.0,0.0205078125,-0.10888671875,1.072265625,-1.0229007633587786,-0.0916030534351145,-1.1755725190839694
19.1,0.024169921875,-0.11083984375,1.08056640625,-1.1145038167938932,-0.06870229007633588,-1.2061068702290076
19.2,0.021484375,-0.107177734375,1.0712890625,-0.9083969465648855,-0.0916030534351145,-1.1297709923664123
19.3,0.020751953125,-0.107421875,1.076904296875,-1.183206106870229,0.16030534351145037,-1.0229007633587786
19.4,0.01953125,-0.106689453125,1.074462890625,-1.083969465648855,-1.8702290076335877,-1.083969465648855
19.5,0.020263671875,-0.107421875,1.0712890625,-1.099236641221374,0.030534351145038167,-1.1297709923664123
19.6,0.02490234375,-0.10595703125,1.07275390625,-1.0076335877862594,0.17557251908396945,-1.2290076335877862
19.7,0.02490234375,-0.119873046875,1.0732421875,-0.9618320610687023,-0.0916030534351145,-1.0610687022900764
19.8,0.0283203125,-0.109375,1.066162109375,-1.1145038167938932,0.11450381679389313,-0.9541984732824428
19.9,0.00244140625,-0.10693359375,1.072998046875,-1.4122137404580153,-0.16793893129770993,-1.3435114503816794
20.0,0.026123046875,-0.111083984375,1.078125,-1.16793893129771,-0.007633587786259542,-1.099236641221374
20.1,0.02099609375,-0.105224609375,1.0712890625,-1.0229007633587786,-0.183206106870229,-1.0305343511450382
20.2,0.012939453125,-0.111572265625,1.06884765625,-1.1068702290076335,0.4198473282442748,-1.2595419847328244
20.3,0.02490234375,-0.10986328125,1.0771484375,-0.9618320610687023,-0.2824427480916031,-1.2061068702290076
20.4,0.021484375,-0.1083984375,1.076171875,-1.1603053435114503,-0.1984732824427481,-1.1145038167938932
20.5,0.027587890625,-0.109375,1.07763671875,-1.083969465648855,0.030534351145038167,-1.2748091603053435
20.6,0.020263671875,-0.102294921875,1.069580078125,-1.1068702290076335,-0.1984732824427481,-1.1755725190839694
20.7,0.0244140625,-0.103759765625,1.074462890625,-1.1603053435114503,0.26717557251908397,-1.1145038167938932
20.8,0.0185546875,-0.106689453125,1.072509765625,-0.9618320610687023,0.10687022900763359,-1.015267175572519
20.9,0.020263671875,-0.10546875,1.076416015625,-1.015267175572519,-0.21374045801526717,-1.3206106870229009
21.0,0.02490234375,-0.11279296875,1.072998046875,-0.8244274809160306,0.1450381679389313,-1.0381679389312977
21.1,0.0234375,-0.111328125,1.072021484375,-0.9770992366412213,-0.09923664122137404,-1.083969465648855
21.2,0.02685546875,-0.105224609375,1.076416015625,-1.213740458015267,0.21374045801526717,-1.1374045801526718
21.3,0.015380859375,-0.102783203125,1.068115234375,-1.1908396946564885,-0.05343511450381679,-1.0687022900763359
21.4,0.01904296875,-0.10546875,1.07568359375,-1.0,1.916030534351145,-1.1145038167938932
21.5,0.02197265625,-0.108642578125,1.07421875,-1.0763358778625953,0.2595419847328244,-0.9847328244274809
21.6,0.02294921875,-0.111328125,1.0712890625,-1.0534351145038168,1.816793893129771,-1.1068702290076335
21.7,0.01611328125,-0.103759765625,1.068359375,-1.0610687022900764,0.1297709923664122,-1.1450381679389312
21.8,0.019775390625,-0.109375,1.07861328125,-1.1526717557251909,-0.2595419847328244,-1.099236641221374
21.9,0.042724609375,-0.108154296875,1.068359375,-1.1297709923664123,-0.10687022900763359,-1.213740458015267
22.0,0.021484375,-0.098876953125,1.073486328125,-0.816793893129771,-0.0916030534351145,-1.1526717557251909
22.1,0.0,-0.10693359375,1.07373046875,-1.1145038167938932,-0.09923664122137404,-1.0763358778625953
22.2,0.022705078125,-0.104736328125,1.077880859375,-1.0610687022900764,-1.8473282442748091,-1.1984732824427482
22.3,0.029541015625,-0.1015625,1.07568359375,-1.2900763358778626,-0.1984732824427481,-0.9312977099236641
22.4,0.02490234375,-0.111083984375,1.062255859375,-1.1221374045801527,0.29770992366412213,-1.1221374045801527
22.5,0.01904296875,-0.107666015625,1.076904296875,-0.8931297709923665,-0.35877862595419846,-1.3358778625954197
22.6,0.0263671875,-0.10986328125,1.07568359375,-1.1984732824427482,0.06870229007633588,-1.1221374045801527
22.7,0.018798828125,-0.120849609375,1.074951171875,-1.183206106870229,-0.5267175572519084,-1.5648854961832062
22.8,0.075927734375,-0.149169921875,1.023681640625,-1.748091603053435,15.961832061068701,-4.801526717557252
22.9,0.071044921875,-0.12255859375,1.112548828125,-3.9083969465648853,-0.5038167938931297,-22.587786259541986
23.0,0.2421875,-0.241943359375,1.029052734375,-28.64885496183206,-70.76335877862596,-45.38167938931298
23.1,0.2451171875,-0.125244140625,0.916748046875,-63.48854961832061,-41.229007633587784,11.083969465648854
23.2,0.3115234375,-0.259765625,0.947265625,-68.12977099236642,-59.69465648854962,19.900763358778626
23.3,0.304931640625,-0.4189453125,0.98095703125,-56.038167938931295,-59.595419847328245,31.114503816793892
23.4,0.3935546875,-0.564208984375,0.773193359375,-50.25954198473283,-44.25954198473283,2.2977099236641223
23.5,0.487548828125,-0.68017578125,0.68701171875,-55.6412213740458,-62.64885496183206,-26.053435114503817
23.6,0.548583984375,-0.621826171875,0.59765625,-144.03053435114504,11.16030534351145,-53.38167938931298
23.7,0.5654296875,-0.7919921875,0.34423828125,-78.72519083969466,-43.61832061068702,-39.86259541984733
23.8,0.608642578125,-0.84130859375,0.32177734375,-93.38167938931298,5.916030534351145,-1.366412213740458
23.9,0.585693359375,-0.77197265625,0.21630859375,-30.412213740458014,-2.7022900763358777,6.641221374045801
24.0,0.64404296875,-0.812744140625,0.118408203125,9.389312977099237,-6.870229007633588,-15.526717557251908
24.1,0.580078125,-0.82080078125,0.195556640625,-21.282442748091604,2.83206106870229,-4.022900763358779
24.2,0.621337890625,-0.8134765625,0.156494140625,-26.50381679389313,-0.7557251908396947,-4.893129770992366
24.3,0.638671875,-0.794677734375,0.175537109375,-10.580152671755725,-5.916030534351145,-6.244274809160306
24.4,0.620361328125,-0.839111328125,0.13427734375,-8.870229007633588,-8.290076335877863,-2.7938931297709924
24.5,0.61865234375,-0.848876953125,0.142822265625,11.664122137404581,-1.015267175572519,-2.198473282442748
24.6,0.63232421875,-0.84423828125,0.14453125,10.473282442748092,-3.6717557251908395,-4.778625954198473
24.7,0.61279296875,-0.77490234375,0.165283203125,-6.259541984732825,-0.09923664122137404,1.4961832061068703
24.8,0.621826171875,-0.8125,0.14599609375,-1.83206106870229,7.015267175572519,4.541984732824427
24.9,0.622802734375,-0.820556640625,0.166748046875,1.5114503816793894,8.748091603053435,3.786259541984733
25.0,0.606201171875,-0.8154296875,0.171630859375,-2.053435114503817,6.687022900763359,1.6030534351145038
25.1,0.623046875,-0.83056640625,0.172607421875,-2.0,2.1526717557251906,0.10687022900763359
25.2,0.62890625,-0.81640625,0.15771484375,-1.4274809160305344,7.755725190839694,-0.5954198473282443
25.3,0.620361328125,-0.811767578125,0.1865234375,2.9770992366412212,0.7251908396946565,-2.0839694656488548
25.4,0.58935546875,-0.810546875,0.18701171875,-8.213740458015268,11.374045801526718,0.3816793893129771
25.5,0.587890625,-0.78759765625,0.1259765625,-12.679389312977099,-0.42748091603053434,2.931297709923664
25.6,0.604736328125,-0.848388671875,0.202392578125,10.893129770992367,5.450381679389313,3.2977099236641223
25.7,0.623779296875,-0.84521484375,0.198974609375,2.7786259541984735,5.801526717557252,-7.206106870229007
25.8,0.614990234375,-0.82275390625,0.25634765625,-9.610687022900763,7.66412213740458,-1.7328244274809161
25.9,0.59912109375,-0.8173828125,0.21533203125,-4.931297709923665,-0.7938931297709924,-0.7862595419847328
26.0,0.6025390625,-0.8271484375,0.197021484375,-6.343511450381679,3.954198473282443,-1.9312977099236641
26.1,0.607421875,-0.82861328125,0.203857421875,-6.458015267175573,3.4656488549618323,-3.381679389312977
26.2,0.637939453125,-0.86279296875,0.197998046875,-13.34351145038168,8.335877862595419,-2.2213740458015265
26.3,0.6337890625,-0.85107421875,0.21240234375,1.7404580152671756,8.083969465648854,0.0
26.4,0.60107421875,-0.833984375,0.19677734375,-4.152671755725191,1.5877862595419847,-0.7480916030534351
26.5,0.60498046875,-0.841796875,0.20263671875,-1.9083969465648856,0.8396946564885496,-2.877862595419847
26.6,0.58203125,-0.820556640625,0.19775390625,-1.1221374045801527,1.2595419847328244,-2.045801526717557
26.7,0.60400390625,-0.838623046875,0.216796875,-1.381679389312977,-2.0763358778625953,0.6412213740458015
26.8,0.6025390625,-0.836669921875,0.199462890625,2.3893129770992365,1.4274809160305344,-2.122137404580153
26.9,0.597412109375,-0.8212890625,0.191650390625,0.6641221374045801,2.3282442748091605,-0.9694656488549618
27.0,0.600830078125,-0.808349609375,0.22607421875,2.312977099236641,-3.068702290076336,2.4122137404580153
27.1,0.595703125,-0.86279296875,0.1845703125,0.8625954198473282,3.6946564885496183,-1.8625954198473282
27.2,0.6064453125,-0.81298828125,0.20849609375,2.633587786259542,5.221374045801527,-3.687022900763359
27.3,0.594482421875,-0.820068359375,0.196533203125,1.5267175572519085,-0.2824427480916031,-0.8015267175572519
27.4,0.56640625,-0.772705078125,0.212158203125,19.625954198473284,3.1526717557251906,5.526717557251908
27.5,0.52734375,-0.697021484375,0.299072265625,125.27480916030534,23.786259541984734,58.48854961832061
27.6,0.6787109375,-1.078125,0.509765625,171.53435114503816,53.79389312977099,41.48854961832061
27.7,0.296142578125,-0.525634765625,0.970947265625,151.3053435114504,59.43511450381679,24.27480916030534
27.8,0.2568359375,-0.4462890625,1.02978515625,58.38167938931298,95.4885496183206,14.618320610687023
27.9,0.138427734375,-0.476318359375,0.970703125,24.954198473282442,15.603053435114504,-1.4885496183206106
28.0,0.107177734375,-0.3662109375,1.02490234375,6.022900763358779,4.290076335877862,-1.3129770992366412
28.1,0.10693359375,-0.352783203125,1.0146484375,4.206106870229007,3.49618320610687,-1.3511450381679388
28.2,0.10888671875,-0.34765625,1.015380859375,3.312977099236641,0.007633587786259542,-1.3358778625954197
28.3,0.064697265625,-0.34423828125,1.0234375,4.114503816793893,1.0458015267175573,-1.1450381679389312
28.4,0.101806640625,-0.344970703125,0.996337890625,5.793893129770993,2.984732824427481,-0.6793893129770993
28.5,0.088623046875,-0.317626953125,1.044921875,3.381679389312977,1.2748091603053435,-1.2061068702290076
28.6,0.083984375,-0.321044921875,1.021484375,1.366412213740458,0.6259541984732825,-1.2290076335877862
28.7,0.0830078125,-0.309326171875,1.017333984375,1.1603053435114503,0.5877862595419847,-1.251908396946565
28.8,0.089111328125,-0.314208984375,1.033935546875,0.5954198473282443,0.549618320610687,-1.251908396946565
28.9,0.090576171875,-0.3056640625,1.032958984375,0.3511450381679389,0.6564885496183206,-1.1908396946564885
29.0,0.087158203125,-0.30224609375,1.025390625,0.1984732824427481,0.5877862595419847,-1.2748091603053435
29.1,0.083984375,-0.307861328125,1.046142578125,0.11450381679389313,0.6030534351145038,-1.1603053435114503
29.2,0.08056640625,-0.2998046875,1.0400390625,0.007633587786259542,0.21374045801526717,-1.0687022900763359
29.3,0.083984375,-0.291259765625,1.0390625,0.5343511450381679,0.4580152671755725,-1.1221374045801527
29.4,0.0830078125,-0.293701171875,1.029296875,0.061068702290076333,0.32061068702290074,-1.3206106870229009
29.5,0.080078125,-0.30029296875,1.039306640625,0.1450381679389313,0.13740458015267176,-1.1526717557251909
29.6,0.08642578125,-0.285400390625,1.03369140625,-0.183206106870229,0.11450381679389313,-1.1603053435114503
29.7,0.08056640625,-0.287353515625,1.04248046875,-0.26717557251908397,0.3053435114503817,-1.1450381679389312
29.8,0.091796875,-0.287841796875,1.03466796875,-0.20610687022900764,0.2595419847328244,-1.2671755725190839
29.9,0.078125,-0.28955078125,1.0390625,-0.33587786259541985,0.37404580152671757,-1.0763358778625953
30.0,0.091064453125,-0.286865234375,1.04833984375,0.2366412213740458,0.9541984732824428,-1.0763358778625953
30.1,0.076171875,-0.2822265625,1.03466796875,0.05343511450381679,0.3053435114503817,-1.1297709923664123
30.2,0.091552734375,-0.285400390625,1.037841796875,-0.24427480916030533,0.22137404580152673,-1.1221374045801527
30.3,0.076904296875,-0.2841796875,1.0361328125,-0.5267175572519084,0.061068702290076333,-1.183206106870229
30.4,0.075927734375,-0.28369140625,1.040771484375,-0.5725190839694656,0.1450381679389313,-1.3206106870229009
30.5,0.08251953125,-0.2734375,1.03173828125,-0.7938931297709924,-0.04580152671755725,-1.0
30.6,0.080322265625,-0.2841796875,1.041748046875,-0.6717557251908397,0.22900763358778625,-1.1755725190839694
30.7,0.075927734375,-0.273681640625,1.03759765625,-0.2900763358778626,0.10687022900763359,-1.2900763358778626
30.8,0.07861328125,-0.278076171875,1.045166015625,-0.5954198473282443,0.030534351145038167,-1.083969465648855
30.9,0.084716796875,-0.27734375,1.041748046875,-0.6870229007633588,0.16030534351145037,-1.1068702290076335
31.0,0.080078125,-0.269775390625,1.044189453125,-0.7251908396946565,0.030534351145038167,-1.0687022900763359
31.1,0.07568359375,-0.27392578125,1.037841796875,-1.0229007633587786,-0.05343511450381679,-1.1068702290076335
31.2,0.079345703125,-0.27490234375,1.0419921875,-0.7862595419847328,1.9312977099236641,-1.1984732824427482
31.3,0.081787109375,-0.273193359375,1.0400390625,-0.6183206106870229,0.0916030534351145,-1.1221374045801527
31.4,0.07861328125,-0.26904296875,1.044189453125,-0.6946564885496184,0.03816793893129771,-1.015267175572519
31.5,0.07080078125,-0.27197265625,1.041748046875,-0.5877862595419847,0.1984732824427481,-1.16793893129771
31.6,0.078369140625,-0.26318359375,1.04443359375,-0.6335877862595419,-0.12213740458015267,-1.0534351145038168
31.7,0.076171875,-0.269287109375,1.039306640625,-0.8931297709923665,0.22137404580152673,-1.1450381679389312
31.8,0.06689453125,-0.266357421875,1.045654296875,-0.8320610687022901,-1.9389312977099236,-1.0381679389312977
31.9,0.07568359375,-0.266845703125,1.04248046875,-0.6717557251908397,-0.21374045801526717,-1.3282442748091603
32.0,0.0849609375,-0.279052734375,1.042236328125,-0.8320610687022901,-0.1297709923664122,-1.2595419847328244
32.1,0.075927734375,-0.262451171875,1.046142578125,-0.8702290076335878,-0.0916030534351145,-1.0687022900763359
32.2,0.072265625,-0.26513671875,1.059814453125,-1.0229007633587786,-0.17557251908396945,-1.1068702290076335
32.3,0.079345703125,-0.265869140625,1.042724609375,-0.6183206106870229,-0.10687022900763359,-1.1297709923664123
32.4,0.076171875,-0.269287109375,1.047607421875,-0.5725190839694656,-0.11450381679389313,-1.0229007633587786
32.5,0.072265625,-0.26806640625,1.039794921875,-0.8473282442748091,-0.17557251908396945,-1.0916030534351144
32.6,0.07470703125,-0.265869140625,1.03369140625,-0.7709923664122137,0.2748091603053435,-1.2442748091603053
32.7,0.071533203125,-0.263427734375,1.04296875,-0.9465648854961832,0.11450381679389313,-1.1374045801526718
32.8,0.0712890625,-0.258056640625,1.042724609375,-1.015267175572519,-0.2900763358778626,-1.1297709923664123
32.9,0.074462890625,-0.26513671875,1.03857421875,-0.9007633587786259,-1.9465648854961832,-1.1374045801526718
33.0,0.0732421875,-0.263427734375,1.0478515625,-0.6793893129770993,-0.2595419847328244,-1.0534351145038168
33.1,0.087890625,-0.26416015625,1.04345703125,-0.916030534351145,0.1984732824427481,-1.099236641221374
33.2,0.071533203125,-0.263671875,1.044921875,-0.8549618320610687,1.8931297709923665,-1.1984732824427482
33.3,0.073974609375,-0.277099609375,1.043212890625,-0.9389312977099237,-0.12213740458015267,-1.0458015267175573
33.4,0.075927734375,-0.266357421875,1.040283203125,-1.0458015267175573,-1.9465648854961832,-1.099236641221374
33.5,0.063720703125,-0.266357421875,1.044189453125,-0.9389312977099237,0.061068702290076333,-1.2061068702290076
33.6,0.07177734375,-0.267333984375,1.052490234375,-0.8702290076335878,1.9389312977099236,-1.083969465648855
33.7,0.064453125,-0.261962890625,1.05029296875,-0.7022900763358778,-0.1297709923664122,-1.1450381679389312
33.8,0.070556640625,-0.260009765625,1.0498046875,-0.8931297709923665,0.10687022900763359,-1.0687022900763359
33.9,0.0712890625,-0.261474609375,1.04248046875,-0.9541984732824428,0.12213740458015267,-1.16793893129771
34.0,0.072998046875,-0.266357421875,1.036865234375,-1.0763358778625953,0.08396946564885496,-1.2061068702290076
34.1,0.07177734375,-0.255859375,1.031494140625,-0.816793893129771,-0.05343511450381679,-1.0458015267175573
34.2,0.07421875,-0.26220703125,1.04736328125,-0.9236641221374046,1.8625954198473282,-1.282442748091603
34.3,0.0732421875,-0.252685546875,1.032958984375,-0.9312977099236641,-1.8702290076335877,-1.1526717557251909
34.4,0.076171875,-0.256591796875,1.044921875,-1.0763358778625953,-0.0916030534351145,-1.0534351145038168
34.5,0.07373046875,-0.2568359375,1.04345703125,-0.9847328244274809,0.13740458015267176,-1.2442748091603053
34.6,0.074462890625,-0.25634765625,1.03271484375,-1.1526717557251909,-0.07633587786259542,-1.0458015267175573
34.7,0.071044921875,-0.259765625,1.043701171875,-1.1450381679389312,-0.03816793893129771,-1.1526717557251909
34.8,0.0654296875,-0.255126953125,1.039306640625,-0.9236641221374046,1.9312977099236641,-1.0
34.9,0.072998046875,-0.264404296875,1.04541015625,-0.9389312977099237,0.09923664122137404,-1.1526717557251909
35.0,0.072265625,-0.260986328125,1.0556640625,-1.0305343511450382,-0.19083969465648856,-1.2442748091603053
35.1,0.071533203125,-0.262939453125,1.047607421875,-1.1374045801526718,0.04580152671755725,-1.1755725190839694
35.2,0.07275390625,-0.254638671875,1.049072265625,-0.5419847328244275,-0.24427480916030533,-1.1603053435114503
35.3,0.0771484375,-0.237548828125,1.03759765625,-1.3282442748091603,-0.366412213740458,-1.5801526717557253
35.4,0.060791015625,-0.261474609375,1.0439453125,-2.801526717557252,-1.3893129770992367,-0.9770992366412213
35.5,0.0498046875,-0.224853515625,1.07666015625,-0.8396946564885496,-0.5954198473282443,-1.2748091603053435
35.6,0.06103515625,-0.243896484375,1.06494140625,-2.3282442748091605,0.07633587786259542,-1.0458015267175573
35.7,0.041748046875,-0.2109375,1.09130859375,32.656488549618324,11.122137404580153,2.4427480916030535
35.8,0.00927734375,-0.176513671875,1.05517578125,7.656488549618321,3.1068702290076335,-0.5877862595419847
35.9,0.072509765625,-0.181396484375,1.023193359375,1.900763358778626,-1.5114503816793894,0.35877862595419846
36.0,0.0126953125,-0.24658203125,1.033203125,-4.526717557251908,-5.1603053435114505,-1.4961832061068703
36.1,0.04345703125,-0.17724609375,1.107666015625,-8.633587786259541,-5.534351145038168,-0.007633587786259542
36.2,0.079345703125,-0.227783203125,1.072265625,-4.870229007633588,-3.5114503816793894,-1.2671755725190839
36.3,0.05419921875,-0.203857421875,1.050537109375,-0.9083969465648855,-0.21374045801526717,-1.1221374045801527
36.4,0.091552734375,-0.159423828125,0.983642578125,9.740458015267176,4.763358778625954,-1.1374045801526718
36.5,0.052490234375,-0.189208984375,1.07470703125,-0.7251908396946565,-1.6946564885496183,-1.8091603053435115
36.6,0.101806640625,-0.18115234375,1.03515625,1.8931297709923665,7.885496183206107,-1.0229007633587786
36.7,0.031005859375,-0.260986328125,1.256103515625,-31.47328244274809,-6.816793893129771,1.0381679389312977
36.8,0.117431640625,-0.33251953125,1.12255859375,-114.05343511450381,-50.916030534351144,-19.442748091603054
36.9,0.205810546875,-0.642333984375,0.918701171875,-160.3587786259542,-70.58015267175573,46.7557251908397
37.0,0.524658203125,-0.845703125,0.78515625,-194.3740458015267,-80.03053435114504,-85.93893129770993
37.1,0.38525390625,-0.76025390625,0.571533203125,-118.05343511450381,-39.74045801526717,-69.00763358778626
37.2,0.42724609375,-0.72900390625,0.509521484375,-105.06106870229007,-28.0381679389313,-0.6183206106870229
37.3,0.594970703125,-0.8349609375,0.304443359375,20.251908396946565,42.7557251908397,29.786259541984734
37.4,0.54931640625,-0.940185546875,0.381103515625,10.67175572519084,14.48091603053435,12.969465648854962
37.5,0.43408203125,-0.878662109375,0.405029296875,-7.312977099236641,10.358778625954198,-2.7404580152671754
37.6,0.444580078125,-0.872802734375,0.403564453125,-7.9541984732824424,7.206106870229007,-10.923664122137405
37.7,0.455810546875,-0.840087890625,0.38330078125,-17.389312977099237,1.0534351145038168,-7.961832061068702
37.8,0.464111328125,-0.826904296875,0.368408203125,-5.748091603053435,-2.480916030534351,-1.4732824427480915
37.9,0.47265625,-0.869384765625,0.360595703125,-7.534351145038168,-2.4198473282442747,1.7786259541984732
38.0,0.45263671875,-0.88427734375,0.3564453125,-0.45038167938931295,-2.5343511450381677,1.0
38.1,0.45751953125,-0.866455078125,0.33447265625,-12.221374045801527,-2.801526717557252,-1.9083969465648856
38.2,0.468017578125,-0.87548828125,0.3291015625,-3.9236641221374047,-1.3129770992366412,-0.6412213740458015
38.3,0.483642578125,-0.880859375,0.329833984375,-4.183206106870229,-2.114503816793893,-3.8396946564885495
38.4,0.470458984375,-0.89208984375,0.342529296875,-0.8702290076335878,-2.114503816793893,-0.8778625954198473
38.5,0.47119140625,-0.8935546875,0.33642578125,-0.732824427480916,-3.1526717557251906,-1.4274809160305344
38.6,0.466064453125,-0.888916015625,0.33642578125,-4.0,-6.557251908396947,-3.1908396946564888
38.7,0.5205078125,-0.87451171875,0.302490234375,-8.870229007633588,-3.9236641221374047,-3.946564885496183
38.8,0.5244140625,-0.8564453125,0.28271484375,-18.900763358778626,-4.419847328244275,-3.8396946564885495
38.9,0.537109375,-0.87939453125,0.21533203125,-26.96946564885496,8.610687022900763,-9.038167938931299
39.0,0.475341796875,-0.912353515625,0.17529296875,-45.19083969465649,7.5038167938931295,-10.083969465648854
39.1,0.43505859375,-0.845947265625,0.1328125,4.709923664122138,0.32061068702290074,14.198473282442748
39.2,0.46533203125,-0.91015625,0.22509765625,5.419847328244275,1.816793893129771,-10.931297709923664
39.3,0.52294921875,-0.820556640625,0.197509765625,2.030534351145038,2.5801526717557253,-0.9847328244274809
39.4,0.510498046875,-0.853515625,0.1611328125,1.9312977099236641,4.099236641221374,-1.6412213740458015
39.5,0.500244140625,-0.890380859375,0.20263671875,4.015267175572519,1.2595419847328244,-2.564885496183206
39.6,0.522216796875,-0.9111328125,0.2177734375,-0.7022900763358778,3.8473282442748094,-1.1984732824427482
39.7,0.51171875,-0.897705078125,0.22509765625,0.6259541984732825,3.5114503816793894,-1.3358778625954197
39.8,0.5087890625,-0.895751953125,0.210205078125,1.9465648854961832,2.900763358778626,-0.9312977099236641
39.9,0.50634765625,-0.89990234375,0.210205078125,2.595419847328244,-1.6106870229007633,-2.7099236641221376
40.0,0.509765625,-0.900146484375,0.197509765625,1.5190839694656488,-0.8854961832061069,-1.4427480916030535
40.1,0.513671875,-0.87841796875,0.214599609375,-0.366412213740458,-0.8549618320610687,0.2595419847328244
40.2,0.505126953125,-0.907958984375,0.203857421875,-0.05343511450381679,0.366412213740458,-1.1145038167938932
40.3,0.506103515625,-0.89990234375,0.216064453125,-4.0534351145038165,0.29770992366412213,-0.7404580152671756
40.4,0.507080078125,-0.883056640625,0.206787109375,-0.6564885496183206,0.8625954198473282,-0.7099236641221374
40.5,0.51513671875,-0.87548828125,0.1826171875,-4.419847328244275,0.24427480916030533,-0.5648854961832062
40.6,0.4970703125,-0.890380859375,0.1953125,-3.4198473282442747,-0.1450381679389313,-0.9618320610687023
40.7,0.4990234375,-0.890625,0.19287109375,-1.702290076335878,-0.06870229007633588,-1.183206106870229
40.8,0.4970703125,-0.876220703125,0.21142578125,-2.198473282442748,-0.1984732824427481,-1.2900763358778626
40.9,0.49853515625,-0.886962890625,0.208251953125,-2.4122137404580153,-0.3435114503816794,-2.480916030534351
41.0,0.505615234375,-0.905517578125,0.202392578125,2.687022900763359,-0.7175572519083969,-0.9083969465648855
41.1,0.482421875,-0.895751953125,0.20556640625,-2.351145038167939,-0.9083969465648855,-2.687022900763359
41.2,0.492431640625,-0.895263671875,0.19091796875,-1.5572519083969465,0.07633587786259542,-1.5572519083969465
41.3,0.4873046875,-0.89013671875,0.205810546875,0.549618320610687,-0.9389312977099237,-0.6335877862595419
41.4,0.49609375,-0.8837890625,0.1982421875,-2.236641221374046,-0.8320610687022901,-0.7404580152671756
41.5,0.49267578125,-0.894287109375,0.19580078125,1.8854961832061068,-0.25190839694656486,0.05343511450381679
41.6,0.49853515625,-0.900390625,0.19775390625,1.3969465648854962,-0.33587786259541985,0.04580152671755725
41.7,0.505126953125,-0.92041015625,0.2021484375,2.312977099236641,-0.7633587786259542,-0.6641221374045801
41.8,0.50439453125,-0.89111328125,0.201904296875,0.11450381679389313,-0.25190839694656486,-1.5648854961832062
41.9,0.50439453125,-0.89990234375,0.184326171875,1.0381679389312977,1.4122137404580153,1.0381679389312977
42.0,0.49560546875,-0.8876953125,0.20947265625,-3.9770992366412212,1.534351145038168,-2.4656488549618323
42.1,0.47216796875,-0.916748046875,0.218994140625,2.4122137404580153,-0.20610687022900764,-1.7099236641221374
42.2,0.5029296875,-0.869384765625,0.198974609375,1.7709923664122138,0.13740458015267176,-0.6412213740458015
42.3,0.528564453125,-0.888427734375,0.19482421875,-4.473282442748092,0.5572519083969466,-2.3282442748091605
42.4,0.495849609375,-0.878173828125,0.215576171875,-3.3893129770992365,0.20610687022900764,-1.0763358778625953
42.5,0.50634765625,-0.888427734375,0.213134765625,-0.25190839694656486,-0.07633587786259542,-0.816793893129771
42.6,0.48828125,-0.8896484375,0.202880859375,-3.6259541984732824,1.1450381679389312,-1.366412213740458
42.7,0.509765625,-0.881103515625,0.197509765625,-4.6106870229007635,1.2061068702290076,-1.3969465648854962
42.8,0.48876953125,-0.895751953125,0.201171875,-2.2595419847328246,2.122137404580153,-2.4885496183206106
42.9,0.488037109375,-0.88330078125,0.206787109375,3.312977099236641,0.5954198473282443,-2.1755725190839694
43.0,0.488525390625,-0.88916015625,0.219482421875,-1.4732824427480915,-1.2442748091603053,-1.9694656488549618
43.1,0.5,-0.885498046875,0.21630859375,1.6717557251908397,0.2366412213740458,-1.5725190839694656
43.2,0.50537109375,-0.90478515625,0.241943359375,3.122137404580153,-0.9770992366412213,-0.24427480916030533
43.3,0.501708984375,-0.88818359375,0.232666015625,2.1374045801526718,-3.267175572519084,-1.4427480916030535
43.4,0.50341796875,-0.888427734375,0.231689453125,0.015267175572519083,-0.732824427480916,-1.0076335877862594
43.5,0.51318359375,-0.876708984375,0.216796875,1.183206106870229,-0.9923664122137404,-0.2748091603053435
43.6,0.507080078125,-0.890380859375,0.21728515625,-3.1068702290076335,1.5190839694656488,-0.6793893129770993
43.7,0.50244140625,-0.8974609375,0.23779296875,-3.519083969465649,0.9389312977099237,-1.1145038167938932
43.8,0.489990234375,-0.884521484375,0.237548828125,0.6183206106870229,-0.8015267175572519,-0.9618320610687023
43.9,0.5029296875,-0.8896484375,0.226318359375,1.8015267175572518,-1.1068702290076335,-0.6641221374045801
44.0,0.515380859375,-0.872802734375,0.22998046875,1.2061068702290076,-1.6564885496183206,-1.9083969465648856
44.1,0.5,-0.89453125,0.22216796875,-3.618320610687023,0.7175572519083969,-0.9541984732824428
44.2,0.50146484375,-0.881103515625,0.228515625,0.5190839694656488,-0.8320610687022901,-0.4961832061068702
44.3,0.48779296875,-0.87109375,0.2255859375,-2.0381679389312977,-0.5572519083969466,-1.3511450381679388
44.4,0.47119140625,-0.89208984375,0.24658203125,11.877862595419847,1.2213740458015268,0.916030534351145
44.5,0.465576171875,-0.8564453125,0.34375,71.23664122137404,1.2671755725190839,22.198473282442748
44.6,0.4765625,-0.84912109375,0.395751953125,55.9236641221374,29.801526717557252,43.74809160305343
44.7,0.387939453125,-0.872802734375,0.497802734375,8.32824427480916,17.47328244274809,18.053435114503817
44.8,0.396484375,-0.96484375,0.49169921875,27.717557251908396,25.229007633587788,13.32824427480916
44.9,0.1962890625,-0.869140625,0.53125,23.717557251908396,10.458015267175572,26.374045801526716
45.0,0.322998046875,-0.882568359375,0.600830078125,37.099236641221374,22.458015267175572,19.87786259541985
45.1,0.205322265625,-0.78955078125,0.61328125,27.549618320610687,39.81679389312977,17.541984732824428
45.2,0.090576171875,-0.762939453125,0.7021484375,43.76335877862596,38.274809160305345,20.244274809160306
45.3,0.074462890625,-0.6875,0.80322265625,54.20610687022901,14.045801526717558,2.2213740458015265
45.4,0.081298828125,-0.70166015625,0.80224609375,36.16030534351145,-1.9236641221374047,-5.488549618320611
45.5,0.0693359375,-0.619384765625,0.8740234375,28.137404580152673,2.450381679389313,-1.2061068702290076
45.6,0.067138671875,-0.5849609375,0.89599609375,8.83206106870229,0.549618320610687,-1.816793893129771
45.7,0.059326171875,-0.59912109375,0.90625,-0.8854961832061069,-0.6106870229007634,-1.297709923664122
45.8,0.063720703125,-0.58642578125,0.89404296875,-0.8091603053435115,-1.8396946564885497,-1.251908396946565
45.9,0.0634765625,-0.5859375,0.884033203125,-3.900763358778626,-0.46564885496183206,-1.5648854961832062
46.0,0.07080078125,-0.588134765625,0.896484375,-1.8625954198473282,-0.04580152671755725,-0.9465648854961832
46.1,0.0654296875,-0.58447265625,0.882568359375,-1.4122137404580153,0.06870229007633588,-0.9465648854961832
46.2,0.07177734375,-0.58837890625,0.883056640625,-1.6259541984732824,-0.3969465648854962,-1.0534351145038168
46.3,0.07275390625,-0.608154296875,0.89404296875,-1.8473282442748091,-0.22137404580152673,-1.1984732824427482
46.4,0.071044921875,-0.593994140625,0.888671875,-2.66412213740458,0.16030534351145037,-1.0
46.5,0.06591796875,-0.5859375,0.887939453125,-0.07633587786259542,0.5190839694656488,-1.0
46.6,0.060546875,-0.592041015625,0.885986328125,-1.1145038167938932,-0.37404580152671757,-1.1297709923664123
46.7,0.06640625,-0.589599609375,0.88720703125,-0.7862595419847328,0.16030534351145037,-0.9923664122137404
46.8,0.065185546875,-0.592041015625,0.88427734375,0.9389312977099237,-0.6412213740458015,-1.3206106870229009
46.9,0.06982421875,-0.57763671875,0.882568359375,3.4122137404580153,-0.9770992366412213,-1.9465648854961832
47.0,0.066650390625,-0.569580078125,0.892822265625,3.16793893129771,-3.015267175572519,-1.5038167938931297
47.1,0.095947265625,-0.50146484375,0.952880859375,8.290076335877863,-5.1679389312977095,-1.9465648854961832
47.2,0.0654296875,-0.5576171875,0.854248046875,19.908396946564885,10.50381679389313,-4.480916030534351
47.3,0.07421875,-0.498046875,1.015869140625,27.610687022900763,12.84732824427481,0.6106870229007634
47.4,-0.11181640625,-0.335205078125,1.233154296875,-74.2442748091603,-23.328244274809162,-2.5343511450381677
47.5,-0.02099609375,-1.12548828125,0.75146484375,-250.13740458015266,35.11450381679389,-9.221374045801527
47.6,0.13818359375,-0.884765625,0.27734375,-68.74809160305344,55.412213740458014,61.61068702290076
47.7,-0.099853515625,-0.715576171875,0.156982421875,-113.95419847328245,51.725190839694655,60.35114503816794
47.8,0.1123046875,-1.0478515625,0.1279296875,-66.21374045801527,69.93129770992367,-24.442748091603054
47.9,-0.00146484375,-0.782958984375,-0.019287109375,-129.3053435114504,108.13740458015268,-53.93893129770992
48.0,-0.01416015625,-1.083740234375,-0.1064453125,-10.312977099236642,102.49618320610686,-33.61068702290076
48.1,0.094970703125,-0.893798828125,-0.464111328125,25.47328244274809,117.30534351145039,24.251908396946565
48.2,0.0185546875,-1.048583984375,-0.310302734375,24.564885496183205,21.6793893129771,27.84732824427481
48.3,-0.177978515625,-0.84619140625,-0.1376953125,-96.16030534351145,-69.31297709923665,21.732824427480917
48.4,-0.23876953125,-0.8349609375,-0.32421875,-9.091603053435115,31.396946564885496,20.977099236641223
48.5,-0.16748046875,-0.5302734375,0.039794921875,-23.85496183206107,-21.748091603053435,31.389312977099237
48.6,0.07958984375,-0.800537109375,-0.34326171875,-60.961832061068705,47.717557251908396,-69.6030534351145
48.7,0.087646484375,-0.812255859375,-0.462646484375,15.374045801526718,47.80916030534351,-47.152671755725194
48.8,-0.048583984375,-0.635498046875,-0.3583984375,-5.557251908396947,-24.091603053435115,-25.52671755725191
48.9,0.32177734375,-0.8935546875,-0.465576171875,4.305343511450381,-5.305343511450381,-32.35114503816794
49.0,0.314453125,-0.905517578125,-0.446044921875,17.954198473282442,8.274809160305344,-40.19083969465649
49.1,0.405517578125,-0.99462890625,-0.37939453125,10.473282442748092,-22.587786259541986,-17.49618320610687
49.2,0.238525390625,-0.90234375,-0.32763671875,30.419847328244273,-49.58015267175573,4.709923664122138
49.3,0.316650390625,-0.886962890625,-0.2734375,12.793893129770993,-10.412213740458014,-5.9465648854961835
49.4,0.302978515625,-0.97314453125,-0.289794921875,14.122137404580153,-0.6259541984732825,-23.53435114503817
49.5,0.508544921875,-1.084228515625,-0.391845703125,35.70992366412214,49.74809160305343,-12.992366412213741
49.6,0.397705078125,-0.871826171875,-0.336669921875,37.54961832061068,-48.41984732824427,50.51908396946565
49.7,0.2470703125,-0.87451171875,-0.14501953125,70.03053435114504,-49.81679389312977,58.732824427480914
49.8,0.08740234375,-1.083251953125,0.0615234375,22.587786259541986,-27.0381679389313,36.18320610687023
49.9,0.022216796875,-1.02099609375,-0.070556640625,-13.625954198473282,13.587786259541986,24.022900763358777
50.0,0.005126953125,-1.0390625,-0.165283203125,22.66412213740458,-3.8625954198473282,9.778625954198473
50.1,-0.017822265625,-0.95361328125,0.011474609375,39.656488549618324,1.7786259541984732,-4.114503816793893
50.2,0.060791015625,-0.992919921875,0.095703125,3.648854961832061,5.358778625954199,-3.099236641221374
50.3,0.016357421875,-1.01318359375,0.0517578125,-3.954198473282443,5.343511450381679,-3.7557251908396947
50.4,0.009033203125,-1.014404296875,-0.0302734375,-0.2824427480916031,13.84732824427481,-9.557251908396946
50.5,0.042236328125,-0.979248046875,0.036376953125,-16.27480916030534,17.427480916030536,-7.358778625954199
50.6,0.080078125,-0.970458984375,0.004638671875,-20.450381679389313,-3.4427480916030535,-5.534351145038168
50.7,0.04150390625,-1.0048828125,-0.0439453125,-16.251908396946565,-3.4732824427480917,2.4656488549618323
50.8,0.048095703125,-1.005615234375,-0.087890625,-4.519083969465649,-8.664122137404581,15.725190839694656
50.9,0.052978515625,-1.06298828125,0.001708984375,-5.984732824427481,-5.33587786259542,27.12213740458015
51.0,0.027587890625,-1.04248046875,-0.067626953125,35.06870229007634,-3.6564885496183206,-21.519083969465647
51.1,0.034423828125,-0.982666015625,-0.011474609375,-4.549618320610687,14.32824427480916,-33.82442748091603
51.2,0.0126953125,-0.945556640625,0.00439453125,-18.358778625954198,24.15267175572519,2.969465648854962
51.3,0.042236328125,-1.010986328125,0.010986328125,-12.885496183206106,5.442748091603053,17.18320610687023
51.4,0.02978515625,-0.995849609375,-0.019287109375,-10.801526717557252,-0.5343511450381679,2.854961832061069
51.5,0.019775390625,-1.0048828125,-0.0234375,8.236641221374045,0.030534351145038167,6.66412213740458
51.6,0.02734375,-0.988525390625,-0.012451171875,-2.8244274809160306,2.1374045801526718,0.007633587786259542
51.7,0.025634765625,-1.0029296875,-0.03125,-3.4580152671755724,5.061068702290076,-0.5190839694656488
51.8,0.01708984375,-0.991455078125,-0.028564453125,-1.8625954198473282,4.083969465648855,-1.1984732824427482
51.9,0.012451171875,-1.01611328125,-0.041259765625,0.25190839694656486,1.7786259541984732,-0.8549618320610687
52.0,0.015380859375,-0.98828125,-0.025146484375,-6.6183206106870225,4.00763358778626,-9.106870229007633
52.1,0.00390625,-1.006591796875,-0.019287109375,4.854961832061068,2.969465648854962,1.1374045801526718
52.2,0.025146484375,-1.007568359375,-0.0390625,1.549618320610687,-5.603053435114504,2.5343511450381677
52.3,0.005615234375,-1.005859375,-0.052978515625,-2.0076335877862594,0.44274809160305345,-6.114503816793893
52.4,0.011474609375,-1.0029296875,-0.019287109375,-2.9770992366412212,8.198473282442748,2.030534351145038
52.5,0.0107421875,-1.010009765625,-0.02783203125,-11.992366412213741,-1.1221374045801527,-3.6793893129770994
52.6,0.012939453125,-1.013427734375,-0.01708984375,1.5725190839694656,0.3435114503816794,0.17557251908396945
52.7,0.02001953125,-1.006591796875,-0.0595703125,3.50381679389313,-2.16793893129771,-0.05343511450381679
52.8,0.01171875,-0.99462890625,-0.0439453125,-6.8320610687022905,3.0,-3.50381679389313
52.9,0.01806640625,-1.00830078125,-0.04638671875,3.030534351145038,2.3435114503816794,0.32061068702290074
53.0,0.0205078125,-1.003173828125,-0.045166015625,-1.9236641221374047,-0.8778625954198473,-2.0076335877862594
53.1,0.0146484375,-1.00341796875,-0.043701171875,-3.366412213740458,2.8473282442748094,-1.0916030534351144
53.2,0.02001953125,-0.99658203125,-0.0341796875,-2.450381679389313,0.9236641221374046,-2.1068702290076335
53.3,0.04443359375,-1.012939453125,-0.03271484375,2.946564885496183,-0.3053435114503817,-0.37404580152671757
53.4,0.02197265625,-1.015380859375,-0.06396484375,1.5801526717557253,-3.66412213740458,-0.8702290076335878
53.5,0.005615234375,-1.00244140625,-0.044921875,-6.0,0.6564885496183206,-1.9694656488549618
53.6,0.01220703125,-0.984619140625,-0.04736328125,-1.534351145038168,2.49618320610687,0.9007633587786259
53.7,0.027099609375,-1.0048828125,-0.0419921875,0.22900763358778625,-3.2290076335877864,-0.5190839694656488
53.8,0.030029296875,-0.98583984375,-0.03955078125,-0.09923664122137404,0.13740458015267176,-0.9770992366412213
53.9,0.017822265625,-0.993408203125,-0.03662109375,-2.183206106870229,0.7404580152671756,-0.1450381679389313
54.0,0.0166015625,-1.046630859375,-0.050537109375,0.45038167938931295,-1.702290076335878,0.26717557251908397
54.1,0.02197265625,-0.991455078125,-0.04736328125,-2.183206106870229,-3.9389312977099236,-3.7557251908396947
54.2,0.009765625,-0.994140625,-0.0361328125,-2.7022900763358777,1.2595419847328244,-0.8778625954198473
54.3,0.00390625,-1.01318359375,-0.0380859375,-2.0,1.450381679389313,-3.618320610687023
54.4,0.0234375,-1.004150390625,-0.040771484375,2.427480916030534,0.19083969465648856,2.8625954198473282
54.5,0.022216796875,-1.011474609375,-0.039306640625,-4.801526717557252,-1.450381679389313,-3.931297709923664
54.6,0.00830078125,-0.999267578125,-0.043701171875,3.2442748091603053,3.236641221374046,-1.7251908396946565
54.7,0.028076171875,-0.98876953125,-0.025390625,-1.9770992366412214,0.45038167938931295,0.7251908396946565
54.8,0.022705078125,-1.015625,-0.037353515625,-5.8396946564885495,0.9312977099236641,-0.6946564885496184
54.9,0.0185546875,-0.995849609375,-0.033935546875,1.1374045801526718,0.2824427480916031,-3.351145038167939
55.0,0.02294921875,-1.005859375,-0.045166015625,0.24427480916030533,-1.6106870229007633,0.22900763358778625
55.1,0.028076171875,-0.989990234375,-0.0380859375,-2.122137404580153,-1.1068702290076335,-2.8931297709923665
55.2,0.020751953125,-1.00341796875,-0.026611328125,0.7709923664122137,2.877862595419847,-0.6259541984732825
55.3,0.026611328125,-1.010009765625,-0.028076171875,10.396946564885496,3.2061068702290076,-5.251908396946565
55.4,0.0205078125,-0.9892578125,-0.018310546875,12.48091603053435,1.9694656488549618,-5.076335877862595
55.5,0.046142578125,-0.987060546875,0.0048828125,0.5801526717557252,1.183206106870229,-0.3969465648854962
55.6,0.04345703125,-1.005126953125,0.023681640625,1.1603053435114503,0.5114503816793893,-0.26717557251908397
55.7,0.015869140625,-1.0234375,0.009765625,9.099236641221374,-4.900763358778626,-1.8778625954198473
55.8,0.047119140625,-0.99267578125,0.039306640625,6.0458015267175576,-9.923664122137405,-2.4427480916030535
55.9,0.04443359375,-0.992431640625,0.07421875,5.2748091603053435,-4.4961832061068705,-2.816793893129771
56.0,0.019287109375,-1.02490234375,0.04833984375,14.83206106870229,-4.847328244274809,2.4656488549618323
56.1,0.031494140625,-1.015380859375,0.068603515625,-4.755725190839694,-2.946564885496183,-3.0916030534351147
56.2,0.06591796875,-1.07861328125,0.068603515625,6.305343511450381,-0.8473282442748091,5.969465648854962
56.3,0.023681640625,-0.935546875,0.113525390625,31.061068702290076,-6.679389312977099,0.4580152671755725
56.4,0.0,-0.9072265625,0.18115234375,6.152671755725191,-6.351145038167939,21.85496183206107
56.5,-0.015625,-0.955810546875,0.21533203125,80.0,-13.564885496183207,-3.5343511450381677
56.6,0.0107421875,-0.965576171875,0.378173828125,112.77099236641222,-25.862595419847327,-7.145038167938932
56.7,-0.032470703125,-0.814453125,0.5009765625,107.92366412213741,-34.38931297709924,5.427480916030534
56.8,-0.012451171875,-0.7890625,0.776611328125,58.37404580152672,1.1068702290076335,-0.1297709923664122
56.9,0.04638671875,-0.737060546875,0.72021484375,75.54961832061069,-9.244274809160306,3.5267175572519083
57.0,0.0146484375,-0.56787109375,1.01513671875,66.4885496183206,-11.618320610687023,-3.5572519083969465
57.1,0.0498046875,-0.539306640625,1.013916015625,50.43511450381679,6.595419847328245,-2.282442748091603
57.2,0.024658203125,-0.465087890625,0.953857421875,-9.229007633587786,-1.2366412213740459,-0.916030534351145
57.3,0.025146484375,-0.46240234375,0.9736328125,4.793893129770993,0.7557251908396947,-1.1984732824427482
57.4,0.025390625,-0.455322265625,0.971923828125,1.6030534351145038,0.6870229007633588,-1.1526717557251909
57.5,0.028564453125,-0.45556640625,0.96435546875,2.3053435114503817,0.48091603053435117,-1.1297709923664123
57.6,0.023193359375,-0.446044921875,0.977783203125,1.213740458015267,0.33587786259541985,-1.2671755725190839
57.7,0.020751953125,-0.4462890625,0.97998046875,0.9770992366412213,0.31297709923664124,-1.183206106870229
57.8,0.023681640625,-0.44482421875,0.9765625,0.366412213740458,-0.05343511450381679,-1.3206106870229009
57.9,0.016845703125,-0.442138671875,0.980224609375,0.17557251908396945,0.21374045801526717,-1.1068702290076335
58.0,0.022216796875,-0.436767578125,0.972900390625,0.07633587786259542,1.8854961832061068,-1.1450381679389312
58.1,0.0224609375,-0.43212890625,0.992919921875,0.1297709923664122,0.16793893129770993,-1.1450381679389312
58.2,0.0234375,-0.433837890625,0.973388671875,0.07633587786259542,0.08396946564885496,-1.1068702290076335
58.3,0.020263671875,-0.429443359375,0.979248046875,-0.12213740458015267,0.0916030534351145,-1.183206106870229
58.4,0.02099609375,-0.429443359375,0.98828125,-0.45038167938931295,1.9236641221374047,-1.1603053435114503
58.5,0.024169921875,-0.4345703125,0.98193359375,-0.25190839694656486,0.015267175572519083,-1.2595419847328244
58.6,0.021240234375,-0.430419921875,0.988037109375,0.007633587786259542,-1.9236641221374047,-1.1603053435114503
58.7,0.025146484375,-0.4228515625,0.9833984375,0.45038167938931295,0.04580152671755725,-1.0534351145038168
58.8,0.0234375,-0.426025390625,0.9697265625,-0.3816793893129771,-0.31297709923664124,-0.9770992366412213
58.9,0.025634765625,-0.42333984375,0.986572265625,-0.3969465648854962,0.183206106870229,-1.2061068702290076
59.0,0.02490234375,-0.4072265625,0.98486328125,-0.3053435114503817,1.8931297709923665,-1.0610687022900764
59.1,0.023681640625,-0.417724609375,0.9912109375,-0.3893129770992366,-0.10687022900763359,-1.1755725190839694
59.2,0.01611328125,-0.4189453125,0.986328125,0.3969465648854962,0.022900763358778626,-1.183206106870229
59.3,0.019287109375,-0.41845703125,0.994384765625,-0.48854961832061067,0.06870229007633588,-1.2671755725190839
59.4,0.0146484375,-0.4189453125,0.99365234375,-0.816793893129771,-1.9236641221374047,-1.16793893129771
59.5,0.02734375,-0.41455078125,0.991943359375,-0.5190839694656488,-0.007633587786259542,-1.1755725190839694
59.6,0.023681640625,-0.408203125,0.985107421875,-0.26717557251908397,0.03816793893129771,-1.0610687022900764
59.7,0.002685546875,-0.418701171875,0.993408203125,-0.6564885496183206,0.10687022900763359,-1.1374045801526718
59.8,0.0185546875,-0.4140625,0.986328125,-0.7709923664122137,-0.03816793893129771,-1.3053435114503817
59.9,0.000732421875,-0.41845703125,1.0126953125,-0.8778625954198473,-0.022900763358778626,-1.1221374045801527
60.0,0.01953125,-0.412109375,0.990234375,-0.549618320610687,0.08396946564885496,-1.2900763358778626
60.1,0.0263671875,-0.4091796875,0.990966796875,-0.7862595419847328,-1.916030534351145,-1.2061068702290076
60.2,0.016357421875,-0.411376953125,0.9931640625,-0.7022900763358778,1.9312977099236641,-1.0763358778625953
60.3,0.016357421875,-0.39208984375,0.990478515625,-0.5877862595419847,0.03816793893129771,-1.3129770992366412
60.4,0.015625,-0.408935546875,0.993896484375,-0.5877862595419847,0.11450381679389313,-1.1984732824427482
60.5,0.013916015625,-0.41064453125,0.99609375,-0.44274809160305345,-0.03816793893129771,-1.015267175572519
60.6,0.00537109375,-0.40869140625,1.002197265625,-0.7175572519083969,0.03816793893129771,-1.1145038167938932
60.7,0.0185546875,-0.4111328125,0.981201171875,-0.7175572519083969,-0.183206106870229,-1.0381679389312977
60.8,0.01708984375,-0.4208984375,0.9931640625,-0.7175572519083969,0.061068702290076333,-1.1221374045801527
60.9,0.022216796875,-0.4091796875,0.996826171875,-0.7099236641221374,1.9389312977099236,-1.0610687022900764
61.0,0.02783203125,-0.421875,0.987060546875,-0.816793893129771,-0.08396946564885496,-1.2366412213740459
61.1,0.016845703125,-0.40673828125,1.00439453125,-0.549618320610687,-0.09923664122137404,-1.3358778625954197
61.2,0.025634765625,-0.398681640625,0.998046875,-1.0381679389312977,-0.1984732824427481,-1.1221374045801527
61.3,0.016357421875,-0.408447265625,1.003173828125,-0.7251908396946565,0.1297709923664122,-1.1603053435114503
61.4,0.0185546875,-0.40234375,0.998779296875,-0.916030534351145,-1.9541984732824427,-1.083969465648855
61.5,0.00146484375,-0.411865234375,0.99951171875,-0.9770992366412213,1.916030534351145,-1.251908396946565
61.6,0.015380859375,-0.406982421875,0.99365234375,-0.916030534351145,-0.2595419847328244,-1.1145038167938932
61.7,0.01171875,-0.447509765625,0.871337890625,18.427480916030536,-0.32061068702290074,-3.2977099236641223
61.8,0.012939453125,-0.358642578125,1.025146484375,-20.229007633587788,-4.297709923664122,-0.6641221374045801
61.9,0.037353515625,-0.3193359375,1.010009765625,4.412213740458015,-4.396946564885496,-2.435114503816794
62.0,0.018798828125,-0.3447265625,1.025146484375,17.374045801526716,-4.305343511450381,-1.7328244274809161
62.1,0.0205078125,-0.320068359375,1.0478515625,2.030534351145038,0.35877862595419846,-0.8244274809160306
62.2,-0.019287109375,-0.359130859375,1.141845703125,-60.25954198473283,1.16793893129771,-4.458015267175573
62.3,-0.009765625,-0.502685546875,0.8154296875,-71.12213740458016,5.4961832061068705,-6.778625954198473
62.4,-0.040283203125,-0.5859375,0.996337890625,-104.09923664122137,-8.229007633587786,-6.641221374045801
62.5,0.0537109375,-0.817138671875,0.671142578125,-176.42748091603053,-7.290076335877862,-6.8320610687022905
62.6,0.095703125,-0.968994140625,0.611572265625,-170.5267175572519,-8.206106870229007,-35.282442748091604
62.7,0.053466796875,-0.998779296875,0.352294921875,40.49618320610687,32.67175572519084,-40.229007633587784
62.8,0.13330078125,-0.87841796875,0.321533203125,-6.786259541984733,47.274809160305345,-2.4198473282442747
62.9,0.0751953125,-0.9677734375,0.326416015625,-63.81679389312977,32.67175572519084,4.290076335877862
63.0,0.083740234375,-1.020263671875,0.295654296875,-22.267175572519083,3.564885496183206,-4.251908396946565
63.1,0.06591796875,-0.976318359375,0.20703125,-20.893129770992367,19.572519083969464,-4.862595419847328
63.2,0.0859375,-0.967529296875,0.216552734375,-21.793893129770993,38.343511450381676,-16.03053435114504
63.3,0.095458984375,-0.973876953125,0.19189453125,3.2061068702290076,37.587786259541986,-32.404580152671755
63.4,0.173583984375,-1.000732421875,0.177001953125,-5.061068702290076,44.87786259541985,-32.6793893129771
63.5,0.25634765625,-1.0048828125,0.14501953125,-11.267175572519085,36.916030534351144,-33.01526717557252
63.6,0.238037109375,-0.9921875,0.164794921875,-19.641221374045802,30.083969465648856,-0.5190839694656488
63.7,0.21533203125,-0.9541015625,0.093994140625,-10.763358778625955,39.42748091603053,15.740458015267176
63.8,0.23486328125,-0.943115234375,0.135498046875,-30.595419847328245,79.38931297709924,3.2061068702290076
63.9,0.231689453125,-0.971923828125,0.16064453125,-15.946564885496183,79.57251908396947,-12.84732824427481
64.0,0.23095703125,-0.978759765625,0.14990234375,-10.244274809160306,55.86259541984733,-14.977099236641221
64.1,0.210693359375,-0.9794921875,0.115966796875,-17.419847328244273,42.786259541984734,4.145038167938932
64.2,0.25146484375,-1.05859375,0.16259765625,-25.12213740458015,25.38167938931298,3.595419847328244
64.3,0.27880859375,-1.03857421875,0.11767578125,3.9160305343511452,7.488549618320611,-13.587786259541986
64.4,0.275146484375,-1.03076171875,0.067138671875,-3.2519083969465647,1.3587786259541985,-10.465648854961833
64.5,0.27197265625,-0.9853515625,0.0458984375,-5.251908396946565,-12.465648854961833,-1.8854961832061068
64.6,0.315185546875,-1.030517578125,0.0927734375,-31.732824427480917,-0.7709923664122137,5.488549618320611
64.7,0.307861328125,-1.058837890625,0.0732421875,-36.778625954198475,-17.35114503816794,-17.82442748091603
64.8,0.20751953125,-0.9609375,-0.02001953125,8.51908396946565,-50.76335877862596,1.4961832061068703
64.9,0.204833984375,-0.968505859375,-0.135498046875,-31.793893129770993,-40.56488549618321,25.0381679389313
65.0,0.25146484375,-0.887939453125,-0.22314453125,-53.45038167938932,-26.702290076335878,7.557251908396947
65.1,0.234130859375,-0.903564453125,-0.264892578125,-37.31297709923664,-7.137404580152672,-22.427480916030536
65.2,0.39404296875,-0.99609375,-0.41162109375,3.2519083969465647,33.6793893129771,-67.76335877862596
65.3,0.090087890625,-0.783203125,-0.277099609375,25.015267175572518,-39.80916030534351,-33.06870229007634
65.4,0.305908203125,-0.982666015625,-0.214599609375,12.32824427480916,10.404580152671755,38.6793893129771
65.5,0.238525390625,-0.77734375,-0.13232421875,47.74045801526717,44.54961832061068,48.76335877862596
65.6,0.2685546875,-0.979736328125,-0.067138671875,67.1526717557252,52.97709923664122,49.725190839694655
65.7,0.144775390625,-1.091796875,0.011474609375,24.03053435114504,-24.564885496183205,28.083969465648856
65.8,0.185546875,-0.9423828125,0.060302734375,4.6183206106870225,0.48091603053435117,-4.961832061068702
65.9,0.130615234375,-0.92041015625,0.10595703125,31.82442748091603,10.381679389312977,-0.07633587786259542
66.0,0.138916015625,-0.925048828125,0.20654296875,9.488549618320612,-11.351145038167939,-12.557251908396946
66.1,0.202880859375,-1.104736328125,0.23681640625,86.83206106870229,22.18320610687023,-19.33587786259542
66.2,0.36865234375,-0.892333984375,0.406005859375,77.10687022900764,27.793893129770993,-80.4885496183206
66.3,0.322509765625,-0.944091796875,0.429443359375,35.11450381679389,18.229007633587788,-22.938931297709924
66.4,0.257568359375,-0.90087890625,0.4453125,-57.45038167938932,14.389312977099237,38.396946564885496
66.5,0.183837890625,-0.96337890625,0.40087890625,-67.6412213740458,1.2900763358778626,51.74045801526717
66.6,0.156494140625,-1.028076171875,0.39208984375,-38.12213740458015,8.183206106870228,27.51145038167939
66.7,0.19970703125,-0.93798828125,0.369140625,8.488549618320612,10.442748091603054,-19.244274809160306
66.8,0.151611328125,-1.044189453125,0.290283203125,16.03053435114504,-14.076335877862595,-25.106870229007633
66.9,0.17724609375,-1.015380859375,0.369384765625,23.954198473282442,-13.67175572519084,4.0
67.0,0.136474609375,-0.93212890625,0.3740234375,-3.900763358778626,-32.954198473282446,26.549618320610687
67.1,0.139892578125,-0.879150390625,0.374755859375,-23.778625954198475,-61.534351145038165,36.57251908396947
67.2,0.143798828125,-0.920166015625,0.36865234375,23.00763358778626,-65.09160305343511,13.465648854961833
67.3,0.07177734375,-0.9501953125,0.274169921875,18.96946564885496,-6.572519083969466,21.557251908396946
67.4,0.05029296875,-1.031982421875,0.36328125,-7.587786259541985,53.47328244274809,23.770992366412212
67.5,0.02880859375,-0.99365234375,0.360107421875,-15.366412213740459,36.30534351145038,-16.81679389312977
67.6,0.03076171875,-0.9716796875,0.367431640625,-13.900763358778626,-3.312977099236641,-22.541984732824428
67.7,0.073974609375,-0.989990234375,0.368408203125,-3.3282442748091605,-22.916030534351144,-0.030534351145038167
67.8,0.050048828125,-0.975830078125,0.33349609375,5.1603053435114505,-10.450381679389313,7.473282442748092
67.9,0.068115234375,-0.96240234375,0.357177734375,-7.6106870229007635,-4.99236641221374,5.938931297709924
68.0,0.03857421875,-0.969970703125,0.3701171875,-3.7786259541984735,-5.5038167938931295,-1.4351145038167938
68.1,0.032470703125,-0.982666015625,0.35498046875,-0.25190839694656486,-15.557251908396946,0.9847328244274809
68.2,0.031494140625,-1.029541015625,0.33740234375,12.534351145038167,-36.44274809160305,15.595419847328245
68.3,0.08056640625,-0.97900390625,0.318603515625,-2.2442748091603053,-10.389312977099237,3.068702290076336
68.4,0.008544921875,-0.97314453125,0.3427734375,-3.83206106870229,12.267175572519085,-11.206106870229007
68.5,0.021728515625,-0.972412109375,0.33447265625,1.2748091603053435,9.236641221374045,0.0
68.6,0.048583984375,-0.99365234375,0.341552734375,-1.6564885496183206,8.877862595419847,-2.1374045801526718
68.7,0.05126953125,-0.946533203125,0.34765625,-1.8778625954198473,3.427480916030534,-7.351145038167939
68.8,0.050048828125,-0.956787109375,0.340576171875,1.083969465648855,1.2671755725190839,-0.4961832061068702
68.9,0.05615234375,-0.968505859375,0.349853515625,-4.351145038167939,8.17557251908397,-4.190839694656488
69.0,0.05517578125,-0.982421875,0.35400390625,5.473282442748092,2.0229007633587788,4.564885496183206
69.1,0.032470703125,-0.973388671875,0.3427734375,-2.480916030534351,-4.6106870229007635,-1.3358778625954197
69.2,0.03662109375,-0.998779296875,0.367431640625,2.7022900763358777,0.8015267175572519,5.435114503816794
69.3,0.0419921875,-0.98388671875,0.345703125,-0.8320610687022901,-0.015267175572519083,0.5267175572519084
69.4,0.01513671875,-0.96435546875,0.34765625,4.236641221374046,-2.4198473282442747,0.4351145038167939
69.5,0.026611328125,-0.95654296875,0.35205078125,-4.2748091603053435,4.343511450381679,1.7404580152671756
69.6,-0.0029296875,-0.95654296875,0.380859375,3.122137404580153,-14.053435114503817,14.106870229007633
69.7,0.00244140625,-0.95263671875,0.344970703125,8.969465648854962,-12.633587786259541,14.648854961832061
69.8,0.010986328125,-0.94140625,0.33544921875,12.282442748091603,-1.9694656488549618,4.32824427480916
69.9,-0.00927734375,-0.90283203125,0.332763671875,11.366412213740459,14.633587786259541,0.21374045801526717
70.0,-0.031982421875,-0.873291015625,0.39404296875,23.801526717557252,23.610687022900763,9.900763358778626
70.1,-0.052978515625,-0.9677734375,0.47119140625,0.7022900763358778,26.15267175572519,0.26717557251908397
70.2,-0.081298828125,-0.8623046875,0.518798828125,24.03053435114504,21.282442748091604,9.687022900763358
70.3,-0.16552734375,-0.84326171875,0.5625,14.923664122137405,19.53435114503817,13.938931297709924
70.4,-0.212890625,-0.89404296875,0.573486328125,-1.4045801526717556,24.65648854961832,0.6870229007633588
70.5,-0.170654296875,-0.91259765625,0.552734375,18.564885496183205,30.916030534351144,17.290076335877863
70.6,-0.184326171875,-0.828857421875,0.513671875,-10.198473282442748,4.480916030534351,11.961832061068701
70.7,-0.202392578125,-0.838623046875,0.57080078125,-0.5725190839694656,-9.17557251908397,9.290076335877863
70.8,-0.292236328125,-0.779296875,0.61279296875,65.90839694656489,-24.419847328244273,-5.8396946564885495
70.9,-0.25927734375,-0.656005859375,0.72021484375,60.213740458015266,-60.41984732824427,-7.3893129770992365
71.0,-0.16455078125,-0.575927734375,0.814697265625,67.68702290076335,-54.11450381679389,-26.129770992366414
71.1,-0.022216796875,-0.510498046875,0.60693359375,237.06870229007635,-70.40458015267176,-40.82442748091603
71.2,0.08056640625,-0.131103515625,1.3056640625,55.54961832061068,92.95419847328245,12.274809160305344
71.3,0.09619140625,0.003173828125,1.076171875,-1.6488549618320612,-5.526717557251908,-3.2290076335877864
71.4,0.0712890625,-0.005615234375,1.0732421875,1.6793893129770991,-2.5343511450381677,-0.7709923664122137
71.5,0.0693359375,0.00732421875,1.06640625,0.2748091603053435,0.5343511450381679,-0.8091603053435115
71.6,0.0654296875,0.00634765625,1.08544921875,-0.061068702290076333,-0.9083969465648855,-1.0458015267175573
71.7,0.067138671875,0.009765625,1.082275390625,0.3282442748091603,0.15267175572519084,-0.9618320610687023
71.8,0.077880859375,0.014404296875,1.071533203125,1.2366412213740459,1.1145038167938932,-1.0458015267175573
71.9,0.070068359375,0.00244140625,1.07861328125,-0.46564885496183206,-0.4580152671755725,-1.0534351145038168
72.0,0.072265625,0.0224609375,1.077880859375,0.32061068702290074,-0.2366412213740458,-0.9465648854961832
72.1,0.07568359375,0.017822265625,1.06298828125,-0.25190839694656486,-0.4961832061068702,-1.1450381679389312
72.2,0.069580078125,0.020263671875,1.07177734375,-0.42748091603053434,-0.22900763358778625,-1.1603053435114503
72.3,0.07080078125,0.02001953125,1.070068359375,-0.549618320610687,-0.3053435114503817,-1.099236641221374
72.4,0.069580078125,0.02392578125,1.077880859375,-0.4122137404580153,-0.32061068702290074,-1.0076335877862594
72.5,0.0732421875,0.01904296875,1.07421875,-0.5419847328244275,-0.26717557251908397,-0.9923664122137404
72.6,0.06640625,0.028076171875,1.090576171875,-0.5419847328244275,-0.4580152671755725,-1.1068702290076335
72.7,0.0712890625,0.025634765625,1.07568359375,-0.5114503816793893,-0.17557251908396945,-1.0458015267175573
72.8,0.068603515625,0.02001953125,1.07666015625,-0.5114503816793893,-0.1984732824427481,-0.9923664122137404
72.9,0.072509765625,0.026123046875,1.064697265625,-0.6030534351145038,-0.19083969465648856,-1.2061068702290076
73.0,0.07763671875,0.028076171875,1.07763671875,-0.5801526717557252,-0.3435114503816794,-1.1374045801526718
73.1,0.07421875,0.02392578125,1.0703125,-0.4732824427480916,0.20610687022900764,-1.1145038167938932
73.2,0.071044921875,0.0322265625,1.072265625,-0.648854961832061,0.16030534351145037,-1.099236641221374
73.3,0.07470703125,0.01953125,1.08203125,0.6870229007633588,-0.06870229007633588,-0.7557251908396947
73.4,0.06787109375,0.031982421875,1.08251953125,-0.5725190839694656,-0.1984732824427481,-1.0916030534351144
73.5,0.071044921875,0.03369140625,1.073974609375,-0.19083969465648856,0.1984732824427481,-1.0458015267175573
73.6,0.07080078125,0.034423828125,1.0771484375,-0.7099236641221374,-0.16030534351145037,-0.8854961832061069
73.7,0.072265625,0.036865234375,1.081298828125,-0.9312977099236641,-0.13740458015267176,-1.0076335877862594
73.8,0.073486328125,0.03759765625,1.06884765625,-0.7557251908396947,-0.15267175572519084,-1.0916030534351144
73.9,0.068603515625,0.043701171875,1.076171875,-1.0229007633587786,-0.04580152671755725,-0.9236641221374046
74.0,0.068603515625,0.03955078125,1.064453125,-0.5572519083969466,-0.24427480916030533,-1.0763358778625953
74.1,0.07080078125,0.03662109375,1.0791015625,-0.8931297709923665,-0.030534351145038167,-0.8931297709923665
74.2,0.076171875,0.03955078125,1.090087890625,-1.1297709923664123,-0.030534351145038167,-1.099236641221374
74.3,0.071044921875,0.043701171875,1.072509765625,-0.19083969465648856,0.19083969465648856,-1.0076335877862594
74.4,0.07080078125,0.04296875,1.066650390625,1.2290076335877862,0.9541984732824428,-0.7175572519083969
74.5,0.069091796875,0.039794921875,1.06640625,-0.5343511450381679,-0.04580152671755725,-1.183206106870229
74.6,0.068359375,0.049072265625,1.0712890625,-0.8549618320610687,-0.26717557251908397,-1.183206106870229
74.7,0.071044921875,0.04443359375,1.073974609375,-0.9770992366412213,-1.9312977099236641,-1.183206106870229
74.8,0.072265625,0.052490234375,1.083740234375,-0.21374045801526717,0.0916030534351145,-1.1221374045801527
74.9,0.074951171875,0.056396484375,1.08251953125,-0.8244274809160306,-1.9236641221374047,-1.2061068702290076
75.0,0.0673828125,0.045166015625,1.074951171875,-0.8931297709923665,0.1297709923664122,-0.9770992366412213
75.1,0.074462890625,0.04541015625,1.074462890625,-0.549618320610687,0.030534351145038167,-1.0305343511450382
75.2,0.064453125,0.048583984375,1.068603515625,-0.44274809160305345,1.9389312977099236,-1.1145038167938932
75.3,0.07275390625,0.045166015625,1.0712890625,0.2748091603053435,1.1297709923664123,-1.015267175572519
75.4,0.068359375,0.051025390625,1.07763671875,-1.4885496183206106,-0.12213740458015267,-1.0076335877862594
75.5,0.07177734375,0.045654296875,1.0810546875,-0.8778625954198473,-0.2824427480916031,-1.1068702290076335
75.6,0.06591796875,0.058349609375,1.0703125,-1.099236641221374,-0.16030534351145037,-1.2595419847328244
75.7,0.072265625,0.05078125,1.081298828125,-1.083969465648855,-0.22137404580152673,-1.0458015267175573
75.8,0.07470703125,0.049560546875,1.073486328125,-1.0381679389312977,-0.061068702290076333,-1.099236641221374
75.9,0.068359375,0.0537109375,1.07373046875,-1.1984732824427482,0.12213740458015267,-1.0458015267175573
76.0,0.07763671875,0.03369140625,1.047119140625,0.5648854961832062,1.282442748091603,-0.9847328244274809
76.1,0.064208984375,0.055419921875,1.0859375,-1.0,0.20610687022900764,-0.9618320610687023
76.2,0.066162109375,0.056884765625,1.0869140625,-1.0305343511450382,-0.2366412213740458,-1.1755725190839694
76.3,0.067626953125,0.0498046875,1.066650390625,-1.0,-0.16793893129770993,-1.1374045801526718
76.4,0.0673828125,0.052490234375,1.08056640625,-0.6870229007633588,0.40458015267175573,-0.9312977099236641
