Time(s),AccX,AccY,AccZ,GyrX,GyrY,GyrZ
0.0,0.0400390625,-1.00341796875,0.06298828125,-0.5038167938931297,-0.05343511450381679,-1.4198473282442747
0.01,0.039306640625,-1.0009765625,0.0810546875,-0.6793893129770993,0.022900763358778626,-1.5190839694656488
0.02,0.04052734375,-1.002685546875,0.0859375,-0.46564885496183206,-0.1450381679389313,-1.3053435114503817
0.03,0.03173828125,-1.0,0.076904296875,-0.45038167938931295,-0.20610687022900764,-1.4351145038167938
0.04,0.04248046875,-1.01513671875,0.079345703125,-0.33587786259541985,-0.09923664122137404,-1.3282442748091603
0.05,0.04638671875,-1.006103515625,0.080078125,-0.3511450381679389,-0.11450381679389313,-1.450381679389313
0.06,0.050048828125,-1.008056640625,0.07763671875,-0.366412213740458,-0.07633587786259542,-1.2442748091603053
0.07,0.0458984375,-1.00341796875,0.093505859375,-0.4580152671755725,-1.9083969465648856,-1.381679389312977
0.08,0.03564453125,-1.009765625,0.077880859375,-0.4732824427480916,0.015267175572519083,-1.366412213740458
0.09,0.04248046875,-1.003662109375,0.08056640625,-0.5801526717557252,-1.9465648854961832,-1.4045801526717556
0.1,0.045654296875,-1.002685546875,0.083251953125,-0.5572519083969466,0.09923664122137404,-1.282442748091603
0.11,0.05712890625,-1.005859375,0.08837890625,-0.5038167938931297,0.015267175572519083,-1.3740458015267176
0.12,0.0390625,-1.002197265625,0.078857421875,-0.4198473282442748,-0.10687022900763359,-1.2748091603053435
0.13,0.04150390625,-1.000732421875,0.07666015625,-0.4732824427480916,-0.07633587786259542,-1.381679389312977
0.14,0.042724609375,-1.00341796875,0.083740234375,-0.44274809160305345,-1.9236641221374047,-1.5877862595419847
0.15,0.042236328125,-1.001953125,0.078369140625,-0.37404580152671757,-0.13740458015267176,-1.549618320610687
0.16,0.044921875,-1.00244140625,0.0751953125,-0.5190839694656488,-0.25190839694656486,-1.3587786259541985
0.17,0.043701171875,-0.994873046875,0.07275390625,-0.6717557251908397,0.05343511450381679,-1.297709923664122
0.18,0.042724609375,-1.000732421875,0.083740234375,-0.6717557251908397,-0.16793893129770993,-1.3282442748091603
0.19,0.039306640625,-1.01513671875,0.083251953125,-0.549618320610687,-0.16030534351145037,-1.5114503816793894
0.2,0.04541015625,-0.988525390625,0.0771484375,-0.3969465648854962,-0.21374045801526717,-1.4351145038167938
0.21,0.046875,-1.001220703125,0.064208984375,-0.2748091603053435,1.9389312977099236,-1.4122137404580153
0.22,0.04736328125,-0.99951171875,0.0830078125,-0.15267175572519084,0.16030534351145037,-1.282442748091603
0.23,0.042724609375,-1.0078125,0.07421875,-0.42748091603053434,-0.08396946564885496,-1.3511450381679388
0.24,0.039794921875,-0.996826171875,0.078369140625,-0.42748091603053434,-0.09923664122137404,-1.3969465648854962
0.25,0.04638671875,-1.00537109375,0.08056640625,-0.6259541984732825,0.07633587786259542,-1.4732824427480915
0.26,0.0439453125,-1.0009765625,0.091064453125,-0.7404580152671756,0.030534351145038167,-1.2748091603053435
0.27,0.041748046875,-1.001953125,0.085205078125,-0.816793893129771,-0.11450381679389313,-1.4045801526717556
0.28,0.04248046875,-1.00244140625,0.09228515625,-0.5801526717557252,0.22900763358778625,-1.3969465648854962
0.29,0.040771484375,-1.002197265625,0.078125,-0.44274809160305345,-0.1450381679389313,-1.4122137404580153
0.3,0.04248046875,-1.005126953125,0.07861328125,-0.4961832061068702,0.07633587786259542,-1.3282442748091603
0.31,0.037353515625,-1.001220703125,0.080322265625,-0.37404580152671757,-0.13740458015267176,-1.3358778625954197
0.32,0.04052734375,-1.006103515625,0.078369140625,-0.5038167938931297,-0.17557251908396945,-1.4885496183206106
0.33,0.03955078125,-1.0068359375,0.07568359375,-0.5267175572519084,-0.061068702290076333,-1.366412213740458
0.34,0.04052734375,-1.005615234375,0.07373046875,-0.3893129770992366,1.9312977099236641,-1.4122137404580153
0.35,0.044677734375,-1.001220703125,0.0927734375,-0.44274809160305345,-0.2900763358778626,-1.381679389312977
0.36,0.040771484375,-1.00390625,0.0751953125,-0.2824427480916031,0.16030534351145037,-1.3740458015267176
0.37,0.041259765625,-1.005126953125,0.080322265625,-0.3816793893129771,1.9312977099236641,-1.381679389312977
0.38,0.043212890625,-1.00390625,0.074951171875,-0.2595419847328244,0.06870229007633588,-1.2595419847328244
0.39,0.061279296875,-1.00830078125,0.07958984375,-0.5267175572519084,0.015267175572519083,-1.3511450381679388
0.4,0.045654296875,-1.001953125,0.093017578125,-0.7480916030534351,-0.13740458015267176,-1.3282442748091603
0.41,0.0390625,-1.004638671875,0.091796875,-0.6183206106870229,-1.8931297709923665,-1.2061068702290076
0.42,0.0458984375,-1.005859375,0.081787109375,-0.5725190839694656,0.24427480916030533,-1.5038167938931297
0.43,0.040771484375,-1.0009765625,0.0771484375,-0.5114503816793893,-0.03816793893129771,-1.4274809160305344
0.44,0.046142578125,-1.00634765625,0.072265625,-0.5038167938931297,0.09923664122137404,-1.3129770992366412
0.45,0.045166015625,-1.006103515625,0.090087890625,-0.3435114503816794,-0.04580152671755725,-1.366412213740458
0.46,0.043701171875,-1.01171875,0.08349609375,-0.5725190839694656,-0.09923664122137404,-1.4885496183206106
0.47,0.0458984375,-1.01513671875,0.07958984375,-0.4580152671755725,-0.16030534351145037,-1.2900763358778626
0.48,0.044921875,-1.001220703125,0.07763671875,-0.4580152671755725,-0.10687022900763359,-1.3358778625954197
0.49,0.04736328125,-1.000244140625,0.093017578125,-0.5267175572519084,1.9465648854961832,-1.5190839694656488
0.5,0.043701171875,-1.00537109375,0.074951171875,-0.29770992366412213,-0.007633587786259542,-1.251908396946565
0.51,0.04052734375,-1.004638671875,0.078369140625,-0.1984732824427481,-0.061068702290076333,-1.3206106870229009
0.52,0.037109375,-1.00244140625,0.08544921875,-0.48854961832061067,-0.05343511450381679,-1.4427480916030535
0.53,0.045166015625,-1.01318359375,0.08447265625,-0.3969465648854962,0.007633587786259542,-1.4274809160305344
0.54,0.040283203125,-0.990234375,0.082275390625,-0.6335877862595419,0.04580152671755725,-1.3511450381679388
0.55,0.04443359375,-1.0087890625,0.07861328125,-0.5190839694656488,-0.08396946564885496,-1.2748091603053435
0.56,0.04345703125,-1.001708984375,0.065673828125,-0.6335877862595419,0.061068702290076333,-1.3969465648854962
0.57,0.04443359375,-1.004638671875,0.0791015625,-0.5648854961832062,-0.22137404580152673,-1.5190839694656488
0.58,0.039794921875,-0.996826171875,0.077880859375,-0.40458015267175573,-0.12213740458015267,-1.3358778625954197
0.59,0.043701171875,-1.00830078125,0.076904296875,-0.20610687022900764,0.11450381679389313,-1.2061068702290076
0.6,0.043212890625,-0.986572265625,0.07421875,-0.2595419847328244,-0.2595419847328244,-1.2213740458015268
0.61,0.034912109375,-1.007080078125,0.063720703125,-0.31297709923664124,-0.0916030534351145,-1.4274809160305344
0.62,0.040771484375,-1.005615234375,0.0751953125,-0.4351145038167939,-0.12213740458015267,-1.3282442748091603
0.63,0.040771484375,-1.00146484375,0.065185546875,-0.5114503816793893,-0.1450381679389313,-1.2366412213740459
0.64,0.044921875,-1.005615234375,0.087158203125,-0.37404580152671757,-1.900763358778626,-1.5190839694656488
0.65,0.036865234375,-1.00048828125,0.077392578125,-0.5267175572519084,-0.0916030534351145,-1.5190839694656488
0.66,0.0400390625,-1.0048828125,0.0791015625,-0.5038167938931297,-0.15267175572519084,-1.3282442748091603
0.67,0.052734375,-1.00244140625,0.087646484375,-0.5190839694656488,-0.3282442748091603,-1.3358778625954197
0.68,0.06103515625,-1.00244140625,0.065185546875,-0.3816793893129771,-0.15267175572519084,-1.251908396946565
0.69,0.041015625,-1.00146484375,0.08642578125,-0.33587786259541985,-0.03816793893129771,-1.3282442748091603
0.7,0.04736328125,-1.003173828125,0.066162109375,-0.35877862595419846,-0.12213740458015267,-1.366412213740458
0.71,0.043701171875,-1.001953125,0.07666015625,-0.5648854961832062,-0.16030534351145037,-1.381679389312977
0.72,0.04150390625,-1.001953125,0.07958984375,-0.48091603053435117,-1.8931297709923665,-1.4427480916030535
0.73,0.03369140625,-1.000732421875,0.0771484375,-0.3816793893129771,-0.15267175572519084,-1.3053435114503817
0.74,0.0400390625,-1.0009765625,0.08544921875,-0.31297709923664124,0.0916030534351145,-1.5877862595419847
0.75,0.039794921875,-1.00732421875,0.073486328125,-0.4351145038167939,0.07633587786259542,-1.4198473282442747
0.76,0.046875,-1.001953125,0.091796875,-0.29770992366412213,0.09923664122137404,-1.3206106870229009
0.77,0.032958984375,-1.000244140625,0.0634765625,-0.5648854961832062,0.1450381679389313,-1.4274809160305344
0.78,0.045654296875,-1.00048828125,0.077880859375,-0.5114503816793893,0.05343511450381679,-1.465648854961832
0.79,0.04443359375,-1.006103515625,0.08544921875,-0.5419847328244275,-0.21374045801526717,-1.5419847328244274
0.8,0.04638671875,-1.005615234375,0.074951171875,-0.5419847328244275,-0.2366412213740458,-1.366412213740458
0.81,0.044921875,-1.005859375,0.06689453125,-0.4580152671755725,-0.061068702290076333,-1.251908396946565
0.82,0.0341796875,-0.9990234375,0.08837890625,-0.3435114503816794,-0.16030534351145037,-1.5038167938931297
0.83,0.042236328125,-1.0048828125,0.08251953125,-0.32061068702290074,-0.21374045801526717,-1.4732824427480915
0.84,0.039306640625,-1.009521484375,0.08349609375,-0.45038167938931295,-0.183206106870229,-1.5190839694656488
0.85,0.044189453125,-1.000732421875,0.0693359375,-0.4351145038167939,-0.1297709923664122,-1.4122137404580153
0.86,0.04345703125,-1.003173828125,0.07666015625,-0.5725190839694656,-0.13740458015267176,-1.3511450381679388
0.87,0.045166015625,-1.00146484375,0.080810546875,-0.6412213740458015,-0.15267175572519084,-1.2748091603053435
0.88,0.03662109375,-1.0068359375,0.072265625,-0.6564885496183206,0.1297709923664122,-1.450381679389313
0.89,0.0439453125,-1.006103515625,0.093017578125,-0.3893129770992366,-0.1297709923664122,-1.4122137404580153
0.9,0.04541015625,-1.0068359375,0.078369140625,-0.3511450381679389,-0.21374045801526717,-1.4045801526717556
0.91,0.038330078125,-0.997314453125,0.091064453125,-0.366412213740458,-0.05343511450381679,-1.4198473282442747
0.92,0.045654296875,-1.00244140625,0.077880859375,-0.40458015267175573,0.13740458015267176,-1.450381679389313
0.93,0.047607421875,-1.005859375,0.076904296875,-0.32061068702290074,-0.16793893129770993,-1.4732824427480915
0.94,0.0439453125,-0.999267578125,0.080078125,-0.5801526717557252,0.08396946564885496,-1.4427480916030535
0.95,0.043212890625,-1.002685546875,0.078125,-0.7480916030534351,0.11450381679389313,-1.3587786259541985
0.96,0.04052734375,-1.004150390625,0.0810546875,-0.6641221374045801,-0.07633587786259542,-1.2061068702290076
0.97,0.047607421875,-0.984619140625,0.06591796875,-0.6106870229007634,-0.1984732824427481,-1.3206106870229009
0.98,0.04248046875,-1.009521484375,0.068359375,-0.37404580152671757,0.007633587786259542,-1.2900763358778626
0.99,0.046630859375,-1.005615234375,0.081298828125,-0.3511450381679389,1.9465648854961832,-1.3435114503816794
1.0,0.042236328125,-0.999267578125,0.080810546875,-0.3893129770992366,-0.10687022900763359,-1.381679389312977
1.01,0.046630859375,-1.0029296875,0.075439453125,-0.5038167938931297,-0.030534351145038167,-1.4274809160305344
1.02,0.039306640625,-1.0009765625,0.079345703125,-0.48091603053435117,0.030534351145038167,-1.4045801526717556
1.03,0.041259765625,-1.00537109375,0.07080078125,-0.3282442748091603,0.12213740458015267,-1.3358778625954197
1.04,0.042236328125,-1.001708984375,0.064453125,-0.2900763358778626,-0.03816793893129771,-1.5419847328244274
1.05,0.040771484375,-1.00634765625,0.08544921875,-0.17557251908396945,-0.061068702290076333,-1.4122137404580153
1.06,0.041259765625,-1.001220703125,0.084716796875,-0.33587786259541985,0.16030534351145037,-1.2366412213740459
1.07,0.040771484375,-1.0048828125,0.080810546875,-0.4580152671755725,-0.183206106870229,-1.4122137404580153
1.08,0.032958984375,-1.007568359375,0.084716796875,-0.6717557251908397,-0.32061068702290074,-1.3435114503816794
1.09,0.03857421875,-1.005126953125,0.077392578125,-0.7099236641221374,-1.9465648854961832,-1.4961832061068703
1.1,0.0439453125,-1.001953125,0.065673828125,-0.732824427480916,0.07633587786259542,-1.2748091603053435
1.11,0.039306640625,-1.008056640625,0.07763671875,-0.48091603053435117,-0.08396946564885496,-1.3511450381679388
1.12,0.046630859375,-1.00439453125,0.09033203125,-0.5725190839694656,-0.1984732824427481,-1.4809160305343512
1.13,0.0400390625,-1.0,0.0712890625,-0.366412213740458,-0.0916030534351145,-1.5267175572519085
1.14,0.048095703125,-1.002197265625,0.076171875,-0.2366412213740458,-0.09923664122137404,-1.3053435114503817
1.15,0.038818359375,-1.00146484375,0.075439453125,-0.366412213740458,0.061068702290076333,-1.366412213740458
1.16,0.047119140625,-1.01513671875,0.076416015625,-0.4580152671755725,-0.061068702290076333,-1.3969465648854962
1.17,0.043701171875,-1.001953125,0.06494140625,-0.5114503816793893,-0.05343511450381679,-1.3206106870229009
1.18,0.044189453125,-1.000732421875,0.07373046875,-0.42748091603053434,1.9236641221374047,-1.3053435114503817
1.19,0.040283203125,-1.00537109375,0.074462890625,-0.6870229007633588,-0.20610687022900764,-1.4198473282442747
1.2,0.04296875,-0.999755859375,0.079345703125,-0.3816793893129771,0.05343511450381679,-1.4045801526717556
1.21,0.04736328125,-1.0087890625,0.07421875,-0.3282442748091603,-1.900763358778626,-1.5648854961832062
1.22,0.0390625,-1.0048828125,0.07421875,-0.4580152671755725,-0.030534351145038167,-1.2671755725190839
1.23,0.0419921875,-1.015380859375,0.07763671875,-0.3053435114503817,-0.05343511450381679,-1.2213740458015268
1.24,0.061767578125,-1.00830078125,0.084716796875,-0.5954198473282443,-0.2824427480916031,-1.3053435114503817
1.25,0.044921875,-0.99169921875,0.091552734375,-0.4351145038167939,0.12213740458015267,-1.4580152671755726
1.26,0.0439453125,-1.008544921875,0.08203125,-0.3816793893129771,0.04580152671755725,-1.297709923664122
1.27,0.044921875,-1.000244140625,0.080810546875,-0.5954198473282443,-0.06870229007633588,-1.534351145038168
1.28,0.046875,-1.00537109375,0.077392578125,-0.5954198473282443,-0.16030534351145037,-1.183206106870229
1.29,0.040771484375,-1.005615234375,0.083740234375,-0.366412213740458,-0.04580152671755725,-1.450381679389313
1.3,0.041259765625,-1.015380859375,0.06787109375,-0.48854961832061067,-0.1297709923664122,-1.4809160305343512
1.31,0.035888671875,-1.003662109375,0.068115234375,-0.48091603053435117,-0.11450381679389313,-1.3282442748091603
1.32,0.038818359375,-0.984619140625,0.080078125,-0.5572519083969466,1.916030534351145,-1.297709923664122
1.33,0.046142578125,-1.005615234375,0.087890625,-0.46564885496183206,-0.16030534351145037,-1.4885496183206106
1.34,0.03955078125,-1.00341796875,0.08056640625,-0.4961832061068702,-0.0916030534351145,-1.3282442748091603
1.35,0.041015625,-1.004150390625,0.08154296875,-0.5954198473282443,-1.900763358778626,-1.2213740458015268
1.36,0.038330078125,-1.000732421875,0.08544921875,-0.31297709923664124,-0.1450381679389313,-1.465648854961832
1.37,0.044189453125,-1.00390625,0.072265625,-0.35877862595419846,-0.21374045801526717,-1.4122137404580153
1.38,0.037353515625,-1.0068359375,0.070556640625,-0.48091603053435117,0.03816793893129771,-1.2213740458015268
1.39,0.037353515625,-0.9873046875,0.09326171875,-0.5190839694656488,0.16793893129770993,-1.4198473282442747
1.4,0.044189453125,-1.00439453125,0.079345703125,-0.5343511450381679,-0.015267175572519083,-1.4274809160305344
1.41,0.046142578125,-1.0,0.081787109375,-0.5419847328244275,-0.007633587786259542,-1.3282442748091603
1.42,0.042236328125,-1.005859375,0.0771484375,-0.48091603053435117,-0.17557251908396945,-1.213740458015267
1.43,0.04248046875,-1.005859375,0.078369140625,-0.5725190839694656,-0.030534351145038167,-1.4122137404580153
1.44,0.0341796875,-0.987060546875,0.071533203125,-0.5267175572519084,-0.1984732824427481,-1.4732824427480915
1.45,0.044189453125,-1.00732421875,0.07861328125,-0.5419847328244275,-0.11450381679389313,-1.2748091603053435
1.46,0.040771484375,-1.004150390625,0.068359375,-0.2595419847328244,0.030534351145038167,-1.381679389312977
1.47,0.042236328125,-0.99951171875,0.065673828125,-0.19083969465648856,-0.15267175572519084,-1.4427480916030535
1.48,0.04833984375,-1.001708984375,0.07861328125,-0.2366412213740458,-0.06870229007633588,-1.3358778625954197
1.49,0.044677734375,-1.004150390625,0.075439453125,-0.17557251908396945,1.916030534351145,-1.3740458015267176
1.5,0.041015625,-1.004150390625,0.07763671875,-0.4732824427480916,-0.2824427480916031,-1.3740458015267176
1.51,0.03857421875,-1.00732421875,0.086181640625,-0.4580152671755725,-0.007633587786259542,-1.3740458015267176
1.52,0.042724609375,-1.0068359375,0.0791015625,-0.732824427480916,-0.06870229007633588,-1.3893129770992367
1.53,0.046142578125,-0.986328125,0.077392578125,-0.5572519083969466,-0.183206106870229,-1.1755725190839694
1.54,0.0400390625,-1.005126953125,0.0927734375,-0.5267175572519084,-1.9541984732824427,-1.5572519083969465
1.55,0.043212890625,-1.0009765625,0.091796875,-0.3282442748091603,-0.15267175572519084,-1.3206106870229009
1.56,0.044677734375,-1.008544921875,0.07861328125,-0.20610687022900764,-0.09923664122137404,-1.183206106870229
1.57,0.0390625,-1.00439453125,0.080322265625,-0.37404580152671757,-0.16793893129770993,-1.3511450381679388
1.58,0.046875,-1.00390625,0.08056640625,-0.6946564885496184,-0.030534351145038167,-1.5572519083969465
1.59,0.031494140625,-1.003662109375,0.0927734375,-0.17557251908396945,-0.21374045801526717,-1.366412213740458
1.6,0.04345703125,-1.007568359375,0.082763671875,-0.21374045801526717,0.022900763358778626,-1.4198473282442747
1.61,0.036376953125,-1.00537109375,0.063232421875,-0.5114503816793893,0.11450381679389313,-1.2061068702290076
1.62,0.03515625,-1.0068359375,0.07470703125,-0.3969465648854962,0.0916030534351145,-1.3969465648854962
1.63,0.041748046875,-1.003662109375,0.075927734375,-0.40458015267175573,-1.9389312977099236,-1.4274809160305344
1.64,0.04345703125,-1.004150390625,0.088134765625,-0.5419847328244275,-0.31297709923664124,-1.3511450381679388
1.65,0.040283203125,-1.00341796875,0.07421875,-0.29770992366412213,-0.183206106870229,-1.4580152671755726
1.66,0.059814453125,-1.000732421875,0.076416015625,-0.6183206106870229,-0.17557251908396945,-1.5725190839694656
1.67,0.04345703125,-1.003173828125,0.0859375,-0.5954198473282443,-0.0916030534351145,-1.2213740458015268
1.68,0.043212890625,-1.003662109375,0.091796875,-0.31297709923664124,0.030534351145038167,-1.5190839694656488
1.69,0.040771484375,-1.00146484375,0.070068359375,-0.45038167938931295,-0.10687022900763359,-1.282442748091603
1.7,0.0380859375,-1.000244140625,0.07275390625,-0.33587786259541985,-0.1450381679389313,-1.3587786259541985
1.71,0.041259765625,-1.006103515625,0.079833984375,-0.42748091603053434,-0.2366412213740458,-1.3587786259541985
1.72,0.041259765625,-1.001953125,0.0830078125,-0.366412213740458,0.04580152671755725,-1.366412213740458
1.73,0.041259765625,-1.00732421875,0.06396484375,-0.5572519083969466,-0.030534351145038167,-1.3435114503816794
1.74,0.035888671875,-1.005126953125,0.07568359375,-0.5954198473282443,-0.04580152671755725,-1.3282442748091603
1.75,0.046142578125,-1.005126953125,0.09326171875,-0.5343511450381679,-0.05343511450381679,-1.3511450381679388
1.76,0.04345703125,-1.009765625,0.088623046875,-0.4198473282442748,0.03816793893129771,-1.3435114503816794
1.77,0.04150390625,-1.006103515625,0.079833984375,-0.6412213740458015,-0.007633587786259542,-1.2595419847328244
1.78,0.04248046875,-1.00341796875,0.073974609375,-0.31297709923664124,0.1297709923664122,-1.3129770992366412
1.79,0.0390625,-1.0048828125,0.078369140625,-0.5954198473282443,-0.10687022900763359,-1.3740458015267176
1.8,0.046630859375,-1.00146484375,0.076904296875,-0.48091603053435117,1.9389312977099236,-1.2671755725190839
1.81,0.038818359375,-1.00341796875,0.089599609375,-0.3511450381679389,-0.03816793893129771,-1.2290076335877862
1.82,0.04345703125,-1.0029296875,0.0869140625,-0.2748091603053435,-0.10687022900763359,-1.5114503816793894
1.83,0.04150390625,-1.003173828125,0.07861328125,-0.4580152671755725,0.061068702290076333,-1.381679389312977
1.84,0.04736328125,-0.998046875,0.087158203125,-0.45038167938931295,-0.09923664122137404,-1.2366412213740459
1.85,0.04296875,-1.000732421875,0.084716796875,-0.5114503816793893,-0.1984732824427481,-1.465648854961832
1.86,0.03955078125,-1.005126953125,0.0810546875,-0.5419847328244275,0.03816793893129771,-1.1755725190839694
1.87,0.044921875,-1.00146484375,0.093505859375,-0.5648854961832062,-0.10687022900763359,-1.2900763358778626
1.88,0.046630859375,-1.001708984375,0.093017578125,-0.7404580152671756,1.916030534351145,-1.2595419847328244
1.89,0.039794921875,-1.00537109375,0.093017578125,-0.4732824427480916,-0.0916030534351145,-1.450381679389313
1.9,0.045654296875,-1.003662109375,0.068115234375,-0.7862595419847328,1.9389312977099236,-1.3053435114503817
1.91,0.041748046875,-1.001220703125,0.068603515625,-0.5648854961832062,0.030534351145038167,-1.3435114503816794
1.92,0.043701171875,-1.004150390625,0.077392578125,-0.3511450381679389,-0.2824427480916031,-1.4122137404580153
1.93,0.041015625,-0.999755859375,0.085205078125,-0.366412213740458,0.015267175572519083,-1.3587786259541985
1.94,0.057373046875,-1.005859375,0.079833984375,-0.5190839694656488,1.9389312977099236,-1.4122137404580153
1.95,0.040283203125,-1.00927734375,0.0810546875,-0.32061068702290074,-0.10687022900763359,-1.3587786259541985
1.96,0.040283203125,-1.00048828125,0.0791015625,-0.6335877862595419,-0.015267175572519083,-1.465648854961832
1.97,0.040283203125,-1.005615234375,0.082275390625,-0.366412213740458,1.9083969465648856,-1.4885496183206106
1.98,0.040771484375,-1.003662109375,0.0791015625,-0.4732824427480916,0.030534351145038167,-1.366412213740458
1.99,0.041259765625,-1.000732421875,0.0703125,-0.32061068702290074,-0.10687022900763359,-1.4732824427480915
2.0,0.042236328125,-1.0009765625,0.081787109375,-0.6106870229007634,0.08396946564885496,-1.3358778625954197
2.01,0.04150390625,-1.00244140625,0.08544921875,-0.5190839694656488,-0.16030534351145037,-1.2442748091603053
2.02,0.044189453125,-1.00146484375,0.08544921875,-0.5267175572519084,1.9312977099236641,-1.5267175572519085
2.03,0.049072265625,-1.00244140625,0.064697265625,-0.5648854961832062,-0.03816793893129771,-1.2900763358778626
2.04,0.04345703125,-1.009033203125,0.082763671875,-0.366412213740458,0.030534351145038167,-1.534351145038168
2.05,0.04931640625,-0.998291015625,0.08056640625,-0.5954198473282443,0.12213740458015267,-1.3358778625954197
2.06,0.03857421875,-1.0029296875,0.08447265625,-0.5267175572519084,-0.10687022900763359,-1.450381679389313
2.07,0.044677734375,-1.012939453125,0.083984375,-0.4732824427480916,0.015267175572519083,-1.3740458015267176
2.08,0.037109375,-1.007568359375,0.073974609375,-0.5648854961832062,-0.061068702290076333,-1.450381679389313
2.09,0.044189453125,-1.003662109375,0.081787109375,-0.5038167938931297,-0.183206106870229,-1.549618320610687
2.1,0.044189453125,-1.00634765625,0.077880859375,-0.4351145038167939,0.25190839694656486,-1.465648854961832
2.11,0.04296875,-1.00390625,0.07080078125,-0.45038167938931295,-0.1297709923664122,-1.282442748091603
2.12,0.047607421875,-1.00341796875,0.08203125,-0.5190839694656488,-0.16030534351145037,-1.4351145038167938
2.13,0.0390625,-1.00732421875,0.064208984375,-0.5114503816793893,-0.1297709923664122,-1.1984732824427482
2.14,0.04150390625,-1.010498046875,0.0859375,-0.3053435114503817,0.07633587786259542,-1.3206106870229009
2.15,0.037841796875,-1.00634765625,0.082275390625,-0.6564885496183206,-0.16030534351145037,-1.3053435114503817
2.16,0.0439453125,-1.000732421875,0.06884765625,-0.5267175572519084,-0.030534351145038167,-1.450381679389313
2.17,0.043212890625,-1.00048828125,0.085205078125,-0.4122137404580153,0.15267175572519084,-1.3587786259541985
2.18,0.04150390625,-1.003662109375,0.081787109375,-0.2824427480916031,-0.07633587786259542,-1.4427480916030535
2.19,0.04541015625,-1.005859375,0.07421875,-0.366412213740458,-0.16030534351145037,-1.5190839694656488
2.2,0.040771484375,-1.005615234375,0.078369140625,-0.2824427480916031,-0.13740458015267176,-1.465648854961832
2.21,0.0439453125,-0.99658203125,0.077880859375,-0.5648854961832062,-0.15267175572519084,-1.2748091603053435
2.22,0.04150390625,-0.986328125,0.066650390625,-0.3893129770992366,-0.17557251908396945,-1.381679389312977
2.23,0.0390625,-1.009521484375,0.08447265625,-0.44274809160305345,-0.17557251908396945,-1.465648854961832
2.24,0.045166015625,-1.001953125,0.082275390625,-0.3893129770992366,1.8549618320610688,-1.4274809160305344
2.25,0.045654296875,-1.00634765625,0.080322265625,-0.46564885496183206,-0.04580152671755725,-1.2213740458015268
2.26,0.041748046875,-0.997314453125,0.06884765625,-0.5648854961832062,-1.9389312977099236,-1.282442748091603
2.27,0.04345703125,-0.99951171875,0.085693359375,-0.7175572519083969,0.07633587786259542,-1.366412213740458
2.28,0.039306640625,-1.014892578125,0.083984375,-0.549618320610687,1.9465648854961832,-1.3587786259541985
2.29,0.040771484375,-0.98779296875,0.08642578125,-0.42748091603053434,-0.09923664122137404,-1.2366412213740459
2.3,0.03955078125,-1.005615234375,0.076904296875,-0.45038167938931295,0.061068702290076333,-1.3969465648854962
2.31,0.044677734375,-1.0048828125,0.0693359375,-0.5877862595419847,0.05343511450381679,-1.5114503816793894
2.32,0.043212890625,-1.0048828125,0.07763671875,-0.33587786259541985,-0.2366412213740458,-1.213740458015267
2.33,0.039794921875,-1.001953125,0.07373046875,-0.33587786259541985,-0.25190839694656486,-1.3893129770992367
2.34,0.045166015625,-1.00390625,0.08056640625,-0.20610687022900764,-0.04580152671755725,-1.3740458015267176
2.35,0.042724609375,-1.0048828125,0.074951171875,-0.45038167938931295,-0.16030534351145037,-1.2290076335877862
2.36,0.06103515625,-1.01513671875,0.07763671875,-0.40458015267175573,-0.015267175572519083,-1.251908396946565
2.37,0.046630859375,-1.00634765625,0.07861328125,-0.4580152671755725,-0.183206106870229,-1.2671755725190839
2.38,0.0400390625,-1.007568359375,0.07470703125,-0.5954198473282443,-0.21374045801526717,-1.381679389312977
2.39,0.040771484375,-0.99755859375,0.084716796875,-0.45038167938931295,1.9083969465648856,-1.2748091603053435
2.4,0.040283203125,-1.00537109375,0.0703125,-0.4122137404580153,-0.13740458015267176,-1.297709923664122
2.41,0.039794921875,-1.008056640625,0.082275390625,-0.6946564885496184,-0.05343511450381679,-1.1984732824427482
2.42,0.041748046875,-0.9853515625,0.076416015625,-0.5190839694656488,-0.08396946564885496,-1.5190839694656488
2.43,0.0400390625,-1.009521484375,0.09228515625,-0.4580152671755725,-0.12213740458015267,-1.5267175572519085
2.44,0.037109375,-1.006103515625,0.062744140625,-0.4732824427480916,-0.13740458015267176,-1.4198473282442747
2.45,0.042236328125,-1.00537109375,0.077880859375,-0.5877862595419847,0.05343511450381679,-1.2748091603053435
2.46,0.047119140625,-1.0068359375,0.089599609375,-0.4122137404580153,-0.061068702290076333,-1.2290076335877862
2.47,0.03955078125,-1.0068359375,0.083740234375,-0.183206106870229,-0.22900763358778625,-1.1755725190839694
2.48,0.046875,-1.00390625,0.074951171875,-0.5038167938931297,-1.9465648854961832,-1.3969465648854962
2.49,0.046630859375,-0.99853515625,0.081787109375,-0.366412213740458,0.07633587786259542,-1.3511450381679388
2.5,0.04248046875,-1.007080078125,0.083251953125,-0.26717557251908397,-0.07633587786259542,-1.3587786259541985
2.51,0.042236328125,-1.006591796875,0.081787109375,-0.46564885496183206,-1.9312977099236641,-1.3435114503816794
2.52,0.043212890625,-1.001953125,0.067138671875,-0.6793893129770993,-0.11450381679389313,-1.3740458015267176
2.53,0.04052734375,-1.0068359375,0.076904296875,-0.6564885496183206,0.007633587786259542,-1.3969465648854962
2.54,0.0400390625,-1.01025390625,0.082275390625,-0.5725190839694656,-0.11450381679389313,-1.5038167938931297
2.55,0.04736328125,-1.00146484375,0.074462890625,-0.4580152671755725,-0.022900763358778626,-1.4732824427480915
2.56,0.059814453125,-1.001708984375,0.07666015625,-0.7175572519083969,-1.9465648854961832,-1.3740458015267176
2.57,0.06103515625,-0.998046875,0.079833984375,-0.5801526717557252,-0.0916030534351145,-1.4122137404580153
2.58,0.04638671875,-0.98779296875,0.072998046875,-0.32061068702290074,-0.10687022900763359,-1.4427480916030535
2.59,0.046875,-1.001953125,0.075927734375,-0.0916030534351145,0.07633587786259542,-1.3969465648854962
2.6,0.0498046875,-0.99755859375,0.091064453125,-0.35877862595419846,-0.06870229007633588,-1.4274809160305344
2.61,0.0419921875,-1.0078125,0.081298828125,-0.4580152671755725,0.16793893129770993,-1.4580152671755726
2.62,0.0380859375,-1.010498046875,0.081298828125,-0.29770992366412213,0.05343511450381679,-1.4809160305343512
2.63,0.04150390625,-1.00537109375,0.074462890625,-0.6106870229007634,-0.13740458015267176,-1.3358778625954197
2.64,0.04638671875,-1.001220703125,0.077392578125,-0.48854961832061067,-0.13740458015267176,-1.4198473282442747
2.65,0.04541015625,-0.98974609375,0.082763671875,-0.6030534351145038,-0.08396946564885496,-1.3206106870229009
2.66,0.044189453125,-1.004150390625,0.072021484375,-0.5877862595419847,-0.13740458015267176,-1.3435114503816794
2.67,0.04443359375,-1.009033203125,0.07177734375,-0.4351145038167939,-0.04580152671755725,-1.3282442748091603
2.68,0.049072265625,-1.00244140625,0.079833984375,-0.6564885496183206,-1.9465648854961832,-1.3511450381679388
2.69,0.036376953125,-0.996826171875,0.086181640625,-0.46564885496183206,0.03816793893129771,-1.282442748091603
2.7,0.044189453125,-1.008544921875,0.083251953125,-0.3511450381679389,1.916030534351145,-1.2748091603053435
2.71,0.044189453125,-0.994384765625,0.0771484375,-0.5114503816793893,-0.16030534351145037,-1.297709923664122
2.72,0.034912109375,-1.001708984375,0.063232421875,-0.37404580152671757,0.10687022900763359,-1.4274809160305344
2.73,0.041259765625,-1.01513671875,0.086181640625,-0.3816793893129771,-0.1450381679389313,-1.1374045801526718
2.74,0.0380859375,-1.005126953125,0.0634765625,-0.2748091603053435,-1.9312977099236641,-1.3893129770992367
2.75,0.0419921875,-1.00244140625,0.08447265625,-0.4198473282442748,0.15267175572519084,-1.5038167938931297
2.76,0.04345703125,-0.998046875,0.078369140625,-0.4580152671755725,-0.10687022900763359,-1.2748091603053435
2.77,0.04296875,-0.995361328125,0.083984375,-0.3435114503816794,0.061068702290076333,-1.2290076335877862
2.78,0.04150390625,-1.005126953125,0.08056640625,-0.6564885496183206,-0.1984732824427481,-1.4045801526717556
2.79,0.038330078125,-1.008544921875,0.08251953125,-0.5267175572519084,-0.15267175572519084,-1.3435114503816794
2.8,0.03564453125,-1.00439453125,0.069580078125,-0.40458015267175573,-0.2366412213740458,-1.4045801526717556
2.81,0.04248046875,-1.0087890625,0.065673828125,-0.40458015267175573,1.9312977099236641,-1.3129770992366412
2.82,0.0458984375,-1.00390625,0.080078125,-0.5648854961832062,-0.2366412213740458,-1.2748091603053435
2.83,0.037841796875,-1.00634765625,0.087646484375,-0.5343511450381679,-0.16793893129770993,-1.2748091603053435
2.84,0.039794921875,-1.007568359375,0.0869140625,-0.5419847328244275,-0.10687022900763359,-1.3969465648854962
2.85,0.037353515625,-1.003662109375,0.081787109375,-0.40458015267175573,-0.007633587786259542,-1.3358778625954197
2.86,0.042236328125,-1.005859375,0.064697265625,-0.35877862595419846,-0.16793893129770993,-1.3511450381679388
2.87,0.04296875,-1.004638671875,0.08349609375,-0.3282442748091603,0.05343511450381679,-1.5419847328244274
2.88,0.04248046875,-1.00390625,0.0888671875,-0.3282442748091603,-0.21374045801526717,-1.4274809160305344
2.89,0.043701171875,-1.0009765625,0.078125,-0.32061068702290074,0.022900763358778626,-1.450381679389313
2.9,0.044677734375,-1.005615234375,0.080322265625,-0.549618320610687,-0.22137404580152673,-1.3893129770992367
2.91,0.047607421875,-0.997802734375,0.07958984375,-0.6259541984732825,-0.15267175572519084,-1.4732824427480915
2.92,0.038818359375,-1.000732421875,0.075439453125,-0.5954198473282443,1.916030534351145,-1.297709923664122
2.93,0.043212890625,-1.000732421875,0.0634765625,-0.6030534351145038,-0.19083969465648856,-1.3282442748091603
2.94,0.039794921875,-1.00341796875,0.081787109375,-0.26717557251908397,-0.08396946564885496,-1.4732824427480915
2.95,0.038818359375,-1.00390625,0.093505859375,-0.6259541984732825,-0.030534351145038167,-1.465648854961832
2.96,0.046875,-1.0,0.08447265625,-0.17557251908396945,-0.12213740458015267,-1.4198473282442747
2.97,0.04736328125,-1.005615234375,0.084228515625,-0.4198473282442748,-1.9465648854961832,-1.450381679389313
2.98,0.043701171875,-1.00634765625,0.08203125,-0.366412213740458,1.9312977099236641,-1.4961832061068703
2.99,0.0380859375,-1.00341796875,0.0830078125,-0.5190839694656488,0.07633587786259542,-1.5114503816793894
3.0,0.042236328125,-1.004150390625,0.064453125,-0.6335877862595419,-0.05343511450381679,-1.3358778625954197
3.01,0.041015625,-1.0078125,0.092041015625,-0.6030534351145038,0.061068702290076333,-1.5114503816793894
3.02,0.04443359375,-1.000244140625,0.082275390625,-0.33587786259541985,0.12213740458015267,-1.4198473282442747
3.03,0.042724609375,-1.0009765625,0.064208984375,-0.3435114503816794,-0.07633587786259542,-1.3129770992366412
3.04,0.039306640625,-1.00341796875,0.07373046875,-0.5343511450381679,-0.1297709923664122,-1.3893129770992367
3.05,0.04296875,-1.005126953125,0.072998046875,-0.4198473282442748,-0.20610687022900764,-1.4427480916030535
3.06,0.038330078125,-1.000732421875,0.079345703125,-0.3435114503816794,-0.33587786259541985,-1.4045801526717556
3.07,0.06201171875,-0.990234375,0.077392578125,-0.6641221374045801,0.061068702290076333,-1.3129770992366412
3.08,0.04443359375,-1.0078125,0.0625,-0.5572519083969466,0.04580152671755725,-1.4122137404580153
3.09,0.037353515625,-1.001220703125,0.082275390625,-0.25190839694656486,-0.08396946564885496,-1.3893129770992367
3.1,0.042236328125,-1.001953125,0.068115234375,-0.1450381679389313,-0.22900763358778625,-1.6030534351145038
3.11,0.047119140625,-1.00634765625,0.08056640625,-0.2595419847328244,-0.08396946564885496,-1.3969465648854962
3.12,0.04296875,-1.009765625,0.086669921875,-0.22900763358778625,1.9083969465648856,-1.4580152671755726
3.13,0.04345703125,-1.0009765625,0.074462890625,-0.48091603053435117,-0.2366412213740458,-1.282442748091603
3.14,0.040283203125,-1.00537109375,0.079833984375,-0.5877862595419847,-0.183206106870229,-1.183206106870229
3.15,0.042236328125,-0.986083984375,0.078125,-0.6412213740458015,0.08396946564885496,-1.3969465648854962
3.16,0.044677734375,-1.005126953125,0.093505859375,-0.7022900763358778,-0.1450381679389313,-1.2748091603053435
3.17,0.041259765625,-1.009521484375,0.093505859375,-0.4198473282442748,-0.12213740458015267,-1.3511450381679388
3.18,0.042236328125,-1.003173828125,0.082763671875,-0.42748091603053434,-0.20610687022900764,-1.3969465648854962
3.19,0.045166015625,-1.005859375,0.083251953125,-0.5038167938931297,-0.13740458015267176,-1.4122137404580153
3.2,0.03466796875,-1.004638671875,0.083740234375,-0.3435114503816794,-0.12213740458015267,-1.2290076335877862
3.21,0.042724609375,-1.001953125,0.076416015625,-0.5190839694656488,-0.183206106870229,-1.2900763358778626
3.22,0.041748046875,-1.00390625,0.09130859375,-0.5725190839694656,0.0916030534351145,-1.1984732824427482
3.23,0.041748046875,-0.984619140625,0.092041015625,-0.6259541984732825,-0.24427480916030533,-1.4122137404580153
3.24,0.04052734375,-1.008544921875,0.084716796875,-0.22900763358778625,-0.030534351145038167,-1.3740458015267176
3.25,0.041748046875,-1.002197265625,0.0771484375,-0.4580152671755725,-0.007633587786259542,-1.3740458015267176
3.26,0.04052734375,-1.000732421875,0.076416015625,-0.5267175572519084,-0.04580152671755725,-1.381679389312977
3.27,0.041748046875,-1.00146484375,0.082275390625,-0.549618320610687,-0.08396946564885496,-1.5267175572519085
3.28,0.056396484375,-0.986572265625,0.08154296875,-0.7709923664122137,-0.04580152671755725,-1.297709923664122
3.29,0.031494140625,-1.001220703125,0.06787109375,-0.6259541984732825,-0.17557251908396945,-1.4274809160305344
3.3,0.041259765625,-1.001220703125,0.0927734375,-0.8625954198473282,-0.03816793893129771,-1.3206106870229009
3.31,0.039306640625,-1.00634765625,0.076904296875,-0.5572519083969466,-0.366412213740458,-1.5038167938931297
3.32,0.044189453125,-1.007080078125,0.075439453125,-0.5038167938931297,1.916030534351145,-1.251908396946565
3.33,0.04931640625,-0.997314453125,0.07373046875,-0.2824427480916031,-0.16793893129770993,-1.4351145038167938
3.34,0.04541015625,-0.999267578125,0.081298828125,-0.29770992366412213,0.05343511450381679,-1.4045801526717556
3.35,0.04052734375,-1.00146484375,0.078369140625,-0.4122137404580153,-0.183206106870229,-1.3587786259541985
3.36,0.037109375,-1.0068359375,0.076904296875,-0.1984732824427481,-0.2824427480916031,-1.3206106870229009
3.37,0.044189453125,-1.01025390625,0.063232421875,-0.46564885496183206,-0.17557251908396945,-1.381679389312977
3.38,0.04296875,-1.004150390625,0.08740234375,-0.4351145038167939,-0.04580152671755725,-1.4580152671755726
3.39,0.044677734375,-1.00146484375,0.086669921875,-0.4122137404580153,-0.1450381679389313,-1.3358778625954197
3.4,0.042236328125,-1.002197265625,0.076416015625,-0.25190839694656486,-1.8931297709923665,-1.3206106870229009
3.41,0.040283203125,-1.002685546875,0.07958984375,-0.5572519083969466,-0.09923664122137404,-1.5801526717557253
3.42,0.0458984375,-1.013916015625,0.0830078125,-0.5954198473282443,-0.07633587786259542,-1.3587786259541985
3.43,0.044677734375,-0.98828125,0.083251953125,-0.4580152671755725,-0.09923664122137404,-1.4045801526717556
3.44,0.044921875,-0.998779296875,0.079345703125,-0.3053435114503817,-0.11450381679389313,-1.3893129770992367
3.45,0.04052734375,-1.003662109375,0.092529296875,-0.4961832061068702,-0.1450381679389313,-1.3129770992366412
3.46,0.041748046875,-1.00732421875,0.082275390625,-0.3893129770992366,-0.0916030534351145,-1.3587786259541985
3.47,0.045166015625,-1.002685546875,0.078857421875,-0.3435114503816794,-1.8931297709923665,-1.099236641221374
3.48,0.04345703125,-1.009765625,0.07763671875,-0.3969465648854962,-0.09923664122137404,-1.282442748091603
3.49,0.044677734375,-1.009521484375,0.07177734375,-0.3053435114503817,-0.061068702290076333,-1.2900763358778626
3.5,0.04345703125,-1.01416015625,0.064208984375,-0.4122137404580153,-0.12213740458015267,-1.251908396946565
3.51,0.0439453125,-1.000732421875,0.07568359375,-0.3511450381679389,0.061068702290076333,-1.381679389312977
3.52,0.038818359375,-1.004638671875,0.078125,-0.7480916030534351,-0.08396946564885496,-1.2366412213740459
3.53,0.0380859375,-1.00341796875,0.079345703125,-0.45038167938931295,-0.10687022900763359,-1.4351145038167938
3.54,0.045654296875,-1.010009765625,0.072265625,-0.8091603053435115,-1.9389312977099236,-1.3206106870229009
3.55,0.0380859375,-0.996826171875,0.0810546875,-0.648854961832061,0.05343511450381679,-1.3282442748091603
3.56,0.03955078125,-1.003173828125,0.07763671875,-0.6793893129770993,0.0916030534351145,-1.4045801526717556
3.57,0.0419921875,-0.989013671875,0.093017578125,-0.44274809160305345,-0.04580152671755725,-1.3358778625954197
3.58,0.040283203125,-1.00830078125,0.0830078125,-0.6335877862595419,-0.15267175572519084,-1.3587786259541985
3.59,0.04345703125,-0.99951171875,0.07763671875,-0.44274809160305345,-0.04580152671755725,-1.5419847328244274
3.6,0.045654296875,-1.001708984375,0.080078125,-0.4122137404580153,-0.015267175572519083,-1.5267175572519085
3.61,0.0419921875,-1.0,0.0771484375,-0.2748091603053435,-0.06870229007633588,-1.3893129770992367
3.62,0.039306640625,-1.006103515625,0.08203125,-0.16030534351145037,-0.04580152671755725,-1.3129770992366412
3.63,0.0380859375,-1.00341796875,0.086669921875,-0.1984732824427481,-0.22900763358778625,-1.3129770992366412
3.64,0.037841796875,-1.001708984375,0.0849609375,-0.20610687022900764,-0.3435114503816794,-1.297709923664122
3.65,0.03857421875,-0.987548828125,0.089599609375,-0.6717557251908397,0.061068702290076333,-1.5190839694656488
3.66,0.043701171875,-1.004638671875,0.0634765625,-0.48091603053435117,-0.16793893129770993,-1.3511450381679388
3.67,0.039306640625,-0.9990234375,0.082763671875,-0.6106870229007634,0.0,-1.4045801526717556
3.68,0.03955078125,-0.999267578125,0.07763671875,-0.732824427480916,-0.15267175572519084,-1.2595419847328244
3.69,0.04150390625,-1.001220703125,0.083740234375,-0.46564885496183206,-0.1450381679389313,-1.1984732824427482
3.7,0.039306640625,-1.005126953125,0.076416015625,-0.2595419847328244,-0.32061068702290074,-1.4809160305343512
3.71,0.040283203125,-1.005126953125,0.082275390625,-0.16030534351145037,-0.03816793893129771,-1.3511450381679388
3.72,0.04052734375,-1.004150390625,0.064697265625,-0.3282442748091603,0.061068702290076333,-1.3206106870229009
3.73,0.042236328125,-1.000732421875,0.0927734375,-0.46564885496183206,-0.15267175572519084,-1.4198473282442747
3.74,0.040771484375,-1.00439453125,0.0791015625,-0.549618320610687,-0.09923664122137404,-1.381679389312977
3.75,0.041259765625,-1.006103515625,0.083251953125,-0.6564885496183206,-0.07633587786259542,-1.297709923664122
3.76,0.040283203125,-1.00146484375,0.079345703125,-0.7786259541984732,-0.10687022900763359,-1.4198473282442747
3.77,0.058837890625,-1.00634765625,0.07958984375,-0.33587786259541985,0.12213740458015267,-1.4351145038167938
3.78,0.041259765625,-1.005126953125,0.063720703125,-0.5877862595419847,-0.12213740458015267,-1.3969465648854962
3.79,0.04248046875,-1.00390625,0.0634765625,-0.7480916030534351,-0.06870229007633588,-1.3129770992366412
3.8,0.043701171875,-1.015625,0.064208984375,-0.48091603053435117,-0.030534351145038167,-1.297709923664122
3.81,0.044189453125,-1.00146484375,0.07763671875,-0.3053435114503817,-0.10687022900763359,-1.6106870229007633
3.82,0.038818359375,-0.9951171875,0.075439453125,-0.35877862595419846,-0.21374045801526717,-1.5190839694656488
3.83,0.045166015625,-1.00537109375,0.07470703125,-0.5343511450381679,-0.061068702290076333,-1.3740458015267176
3.84,0.040283203125,-1.0068359375,0.08740234375,-0.05343511450381679,-0.2595419847328244,-1.1374045801526718
3.85,0.04541015625,-1.0,0.09326171875,-0.030534351145038167,-0.061068702290076333,-1.4580152671755726
3.86,0.044921875,-1.0048828125,0.078369140625,-0.12213740458015267,0.11450381679389313,-1.282442748091603
3.87,0.0361328125,-1.00048828125,0.07666015625,-0.4732824427480916,-0.13740458015267176,-1.3587786259541985
3.88,0.046875,-0.99853515625,0.0791015625,-0.5954198473282443,1.8854961832061068,-1.2748091603053435
3.89,0.0380859375,-1.002197265625,0.072998046875,-0.42748091603053434,-0.19083969465648856,-1.549618320610687
3.9,0.044189453125,-1.00341796875,0.087646484375,-0.45038167938931295,0.061068702290076333,-1.4274809160305344
3.91,0.043212890625,-1.000244140625,0.08203125,-0.7709923664122137,0.0,-1.549618320610687
3.92,0.042236328125,-1.000244140625,0.0791015625,-0.4580152671755725,-0.15267175572519084,-1.4732824427480915
3.93,0.045166015625,-1.002197265625,0.084228515625,-0.45038167938931295,-0.24427480916030533,-1.4122137404580153
3.94,0.04638671875,-1.00732421875,0.07666015625,-0.3511450381679389,-0.07633587786259542,-1.5267175572519085
3.95,0.04296875,-0.997802734375,0.08203125,-0.3969465648854962,-0.25190839694656486,-1.2595419847328244
3.96,0.040771484375,-1.001708984375,0.074462890625,-0.5419847328244275,1.9465648854961832,-1.3358778625954197
3.97,0.044677734375,-1.003173828125,0.073486328125,-0.4198473282442748,-0.06870229007633588,-1.4122137404580153
3.98,0.0419921875,-1.0009765625,0.07763671875,-0.2595419847328244,0.015267175572519083,-1.3969465648854962
3.99,0.043212890625,-1.00732421875,0.0810546875,-0.3816793893129771,-0.12213740458015267,-1.381679389312977
4.0,0.041015625,-1.00244140625,0.064697265625,-0.4732824427480916,-0.04580152671755725,-1.381679389312977
4.01,0.036865234375,-1.00341796875,0.07958984375,-0.46564885496183206,-0.15267175572519084,-1.3358778625954197
4.02,0.040771484375,-1.0029296875,0.08740234375,-0.5267175572519084,-0.061068702290076333,-1.366412213740458
4.03,0.043212890625,-1.004150390625,0.082763671875,-0.5801526717557252,-0.09923664122137404,-1.2900763358778626
4.04,0.043701171875,-0.99462890625,0.07958984375,-0.6793893129770993,-0.10687022900763359,-1.3969465648854962
4.05,0.041748046875,-1.004150390625,0.084716796875,-0.6870229007633588,-0.32061068702290074,-1.3587786259541985
4.06,0.045166015625,-0.99072265625,0.08349609375,-0.4198473282442748,0.08396946564885496,-1.1526717557251909
4.07,0.038818359375,-1.008056640625,0.062744140625,-0.29770992366412213,-0.15267175572519084,-1.4732824427480915
4.08,0.037841796875,-1.003662109375,0.0673828125,-0.19083969465648856,-0.061068702290076333,-1.2290076335877862
4.09,0.0419921875,-0.9970703125,0.07763671875,-0.22137404580152673,-0.11450381679389313,-1.3740458015267176
4.1,0.041015625,-1.0029296875,0.079345703125,-0.1297709923664122,-0.183206106870229,-1.2900763358778626
4.11,0.039794921875,-1.004638671875,0.080810546875,-0.29770992366412213,-0.15267175572519084,-1.3893129770992367
4.12,0.0458984375,-1.0068359375,0.078857421875,-0.5419847328244275,-0.2595419847328244,-1.3053435114503817
4.13,0.04296875,-0.988037109375,0.068115234375,-0.6335877862595419,-1.9465648854961832,-1.3893129770992367
4.14,0.045654296875,-1.001220703125,0.08154296875,-0.6946564885496184,-0.022900763358778626,-1.3587786259541985
4.15,0.041015625,-1.007568359375,0.08251953125,-0.5725190839694656,-0.13740458015267176,-1.3893129770992367
4.16,0.042724609375,-1.008544921875,0.076171875,-0.6030534351145038,0.03816793893129771,-1.3511450381679388
4.17,0.04248046875,-1.009033203125,0.08642578125,-0.44274809160305345,-0.21374045801526717,-1.3435114503816794
4.18,0.040771484375,-1.00390625,0.079833984375,-0.5954198473282443,-0.06870229007633588,-1.534351145038168
4.19,0.04052734375,-1.001220703125,0.0732421875,-0.48854961832061067,1.9083969465648856,-1.3129770992366412
4.2,0.04248046875,-1.013916015625,0.063720703125,-0.5038167938931297,-0.1984732824427481,-1.3511450381679388
4.21,0.03662109375,-1.010009765625,0.069091796875,-0.46564885496183206,-0.1984732824427481,-1.2290076335877862
4.22,0.0380859375,-1.014892578125,0.089599609375,-0.20610687022900764,-0.05343511450381679,-1.3587786259541985
4.23,0.044677734375,-1.004638671875,0.088134765625,-0.13740458015267176,-0.015267175572519083,-1.4351145038167938
4.24,0.048583984375,-1.0029296875,0.08984375,-0.46564885496183206,-0.31297709923664124,-1.2290076335877862
4.25,0.04248046875,-1.002685546875,0.080810546875,-0.3435114503816794,-0.022900763358778626,-1.4274809160305344
4.26,0.039794921875,-0.996826171875,0.082763671875,-0.3893129770992366,-0.22137404580152673,-1.3129770992366412
4.27,0.043212890625,-1.004638671875,0.080322265625,-0.5114503816793893,-0.25190839694656486,-1.2213740458015268
4.28,0.04638671875,-1.013671875,0.09228515625,-0.5419847328244275,-0.24427480916030533,-1.2595419847328244
4.29,0.04296875,-1.00341796875,0.0625,-0.5572519083969466,-0.07633587786259542,-1.5114503816793894
4.3,0.041748046875,-1.001953125,0.072509765625,-0.648854961832061,0.22137404580152673,-1.3129770992366412
4.31,0.04345703125,-1.002197265625,0.0693359375,-0.366412213740458,-0.1450381679389313,-1.282442748091603
4.32,0.046630859375,-1.008544921875,0.079833984375,-0.44274809160305345,-0.015267175572519083,-1.251908396946565
4.33,0.043212890625,-1.004638671875,0.072509765625,-0.3282442748091603,-0.13740458015267176,-1.4045801526717556
4.34,0.04345703125,-1.003662109375,0.08056640625,-0.31297709923664124,1.9389312977099236,-1.3969465648854962
4.35,0.0361328125,-1.013427734375,0.079833984375,-0.2366412213740458,-0.22137404580152673,-1.4427480916030535
4.36,0.04248046875,-1.00634765625,0.079833984375,-0.4580152671755725,-0.3053435114503817,-1.3969465648854962
4.37,0.042236328125,-0.996337890625,0.07763671875,-0.07633587786259542,-0.11450381679389313,-1.4809160305343512
4.38,0.047119140625,-1.01220703125,0.0830078125,-0.3816793893129771,-0.0916030534351145,-1.4732824427480915
4.39,0.042236328125,-1.00537109375,0.083251953125,-0.4351145038167939,-0.04580152671755725,-1.3511450381679388
4.4,0.044677734375,-1.005126953125,0.079833984375,-0.48091603053435117,-0.08396946564885496,-1.4427480916030535
4.41,0.041015625,-1.007080078125,0.07275390625,-0.5267175572519084,-0.09923664122137404,-1.4045801526717556
4.42,0.039794921875,-0.98583984375,0.08837890625,-0.7709923664122137,-0.061068702290076333,-1.3893129770992367
4.43,0.04248046875,-1.001953125,0.096923828125,-0.648854961832061,-0.24427480916030533,-1.5877862595419847
4.44,0.040771484375,-1.00244140625,0.08154296875,-0.44274809160305345,-0.2595419847328244,-1.3358778625954197
4.45,0.041259765625,-1.004150390625,0.08154296875,-0.29770992366412213,-0.03816793893129771,-1.4580152671755726
4.46,0.044677734375,-0.99951171875,0.07421875,-0.03816793893129771,-0.183206106870229,-1.3206106870229009
4.47,0.045166015625,-1.005126953125,0.082275390625,-0.3282442748091603,0.007633587786259542,-1.3206106870229009
4.48,0.0439453125,-1.00341796875,0.087890625,-0.48091603053435117,0.09923664122137404,-1.2442748091603053
4.49,0.04248046875,-1.000732421875,0.080322265625,-0.33587786259541985,-0.16793893129770993,-1.3282442748091603
4.5,0.0498046875,-1.004638671875,0.087158203125,-0.5038167938931297,-1.9083969465648856,-1.2595419847328244
4.51,0.0439453125,-1.0068359375,0.08642578125,-0.7099236641221374,-0.2595419847328244,-1.5114503816793894
4.52,0.042236328125,-1.00439453125,0.07470703125,-0.42748091603053434,-0.10687022900763359,-1.3435114503816794
4.53,0.0439453125,-1.004150390625,0.077392578125,-0.48091603053435117,0.030534351145038167,-1.3282442748091603
4.54,0.042724609375,-1.0048828125,0.076904296875,-0.25190839694656486,0.03816793893129771,-1.450381679389313
4.55,0.04541015625,-1.00244140625,0.088623046875,-0.22900763358778625,-0.015267175572519083,-1.3587786259541985
4.56,0.044921875,-1.0146484375,0.0908203125,-0.3511450381679389,0.04580152671755725,-1.4198473282442747
4.57,0.04248046875,-1.004638671875,0.066162109375,-0.7175572519083969,0.022900763358778626,-1.297709923664122
4.58,0.04345703125,-1.001953125,0.07373046875,-0.6335877862595419,-0.0916030534351145,-1.4885496183206106
4.59,0.04345703125,-1.01220703125,0.072265625,-0.5419847328244275,-0.015267175572519083,-1.4122137404580153
4.6,0.044677734375,-1.001953125,0.085205078125,-0.2900763358778626,0.007633587786259542,-1.549618320610687
4.61,0.042236328125,-1.000732421875,0.082763671875,-0.37404580152671757,-0.1984732824427481,-1.5114503816793894
4.62,0.03759765625,-1.006591796875,0.081298828125,-0.3816793893129771,-0.0916030534351145,-1.4732824427480915
4.63,0.04248046875,-1.008056640625,0.078369140625,-0.183206106870229,-0.26717557251908397,-1.4427480916030535
4.64,0.04052734375,-1.000732421875,0.079833984375,-0.48091603053435117,-0.2366412213740458,-1.4351145038167938
4.65,0.044677734375,-1.00146484375,0.0771484375,-0.5648854961832062,0.022900763358778626,-1.3358778625954197
4.66,0.041259765625,-1.0048828125,0.08251953125,-0.4732824427480916,-0.32061068702290074,-1.2748091603053435
4.67,0.044189453125,-1.006591796875,0.082763671875,-0.4732824427480916,-0.19083969465648856,-1.4580152671755726
4.68,0.04296875,-1.00537109375,0.084228515625,-0.33587786259541985,-0.1297709923664122,-1.251908396946565
4.69,0.04541015625,-1.00048828125,0.08740234375,-0.33587786259541985,0.10687022900763359,-1.3511450381679388
4.7,0.041015625,-1.014892578125,0.07763671875,-0.4732824427480916,-0.07633587786259542,-1.3358778625954197
4.71,0.0419921875,-1.001708984375,0.0634765625,-0.4198473282442748,0.15267175572519084,-1.3893129770992367
4.72,0.04443359375,-1.004638671875,0.06640625,-0.40458015267175573,1.9236641221374047,-1.3511450381679388
4.73,0.04150390625,-1.00390625,0.076904296875,-0.4732824427480916,-0.03816793893129771,-1.381679389312977
4.74,0.043701171875,-1.00390625,0.0771484375,-0.5725190839694656,-0.061068702290076333,-1.5267175572519085
4.75,0.042724609375,-1.01318359375,0.075927734375,-0.4351145038167939,-0.0916030534351145,-1.3587786259541985
4.76,0.036865234375,-1.00146484375,0.086669921875,-0.4961832061068702,0.17557251908396945,-1.4427480916030535
4.77,0.039794921875,-1.013427734375,0.065673828125,-0.7862595419847328,0.061068702290076333,-1.297709923664122
4.78,0.040771484375,-1.005615234375,0.078125,-0.6870229007633588,-0.04580152671755725,-1.3435114503816794
4.79,0.04541015625,-1.002685546875,0.081298828125,-0.5343511450381679,-0.17557251908396945,-1.3740458015267176
4.8,0.037841796875,-1.003662109375,0.07421875,-0.48854961832061067,1.9236641221374047,-1.4351145038167938
4.81,0.04443359375,-1.006103515625,0.082275390625,-0.37404580152671757,-0.10687022900763359,-1.2900763358778626
4.82,0.04296875,-1.0087890625,0.08447265625,-0.40458015267175573,-0.16793893129770993,-1.2442748091603053
4.83,0.040771484375,-1.002197265625,0.093505859375,-0.4198473282442748,-0.12213740458015267,-1.6259541984732824
4.84,0.0390625,-1.011962890625,0.081787109375,-0.44274809160305345,-0.29770992366412213,-1.2290076335877862
4.85,0.039794921875,-1.004638671875,0.089111328125,-0.46564885496183206,-0.05343511450381679,-1.297709923664122
4.86,0.042724609375,-1.00830078125,0.08056640625,-0.7175572519083969,-0.0916030534351145,-1.4045801526717556
4.87,0.041259765625,-1.005126953125,0.078125,-0.6030534351145038,-0.20610687022900764,-1.3893129770992367
4.88,0.046875,-1.007080078125,0.078369140625,-0.45038167938931295,0.1297709923664122,-1.4427480916030535
4.89,0.05615234375,-1.000732421875,0.08056640625,-0.5725190839694656,-0.022900763358778626,-1.3053435114503817
4.9,0.042724609375,-1.008544921875,0.0673828125,-0.3511450381679389,-0.030534351145038167,-1.3740458015267176
4.91,0.04736328125,-1.004150390625,0.08544921875,-0.5343511450381679,-0.015267175572519083,-1.2595419847328244
4.92,0.0439453125,-0.999755859375,0.080322265625,-0.3969465648854962,0.10687022900763359,-1.5038167938931297
4.93,0.041748046875,-1.007568359375,0.07958984375,-0.6641221374045801,-0.1297709923664122,-1.3435114503816794
4.94,0.04052734375,-1.005615234375,0.080078125,-0.3816793893129771,0.061068702290076333,-1.4732824427480915
4.95,0.04345703125,-1.009033203125,0.078369140625,-0.29770992366412213,0.030534351145038167,-1.3969465648854962
4.96,0.04345703125,-1.002685546875,0.085693359375,-0.5419847328244275,0.030534351145038167,-1.3740458015267176
4.97,0.043701171875,-1.0029296875,0.08349609375,-0.4198473282442748,0.022900763358778626,-1.534351145038168
4.98,0.0419921875,-1.001220703125,0.093017578125,-0.2366412213740458,-0.1984732824427481,-1.4732824427480915
4.99,0.047607421875,-1.007568359375,0.091796875,-0.3893129770992366,-0.1297709923664122,-1.465648854961832
5.0,0.042236328125,-1.0029296875,0.08056640625,-0.5267175572519084,-0.12213740458015267,-1.3282442748091603
5.01,0.04150390625,-1.01123046875,0.07861328125,-0.5343511450381679,-0.13740458015267176,-1.450381679389313
5.02,0.04052734375,-1.00146484375,0.077880859375,-0.7022900763358778,-0.08396946564885496,-1.366412213740458
5.03,0.043212890625,-1.01171875,0.079345703125,-0.7022900763358778,0.022900763358778626,-1.465648854961832
5.04,0.041259765625,-1.0146484375,0.080322265625,-0.45038167938931295,-0.0916030534351145,-1.3282442748091603
5.05,0.04248046875,-1.003173828125,0.089111328125,-0.4122137404580153,-0.16030534351145037,-1.1755725190839694
5.06,0.045166015625,-1.001220703125,0.0869140625,-0.11450381679389313,-0.05343511450381679,-1.4045801526717556
5.07,0.042724609375,-1.0068359375,0.081787109375,-0.4580152671755725,-0.10687022900763359,-1.3206106870229009
5.08,0.04150390625,-1.004638671875,0.07568359375,-0.5419847328244275,-0.11450381679389313,-1.4274809160305344
5.09,0.044677734375,-1.006103515625,0.08056640625,-0.6412213740458015,1.8778625954198473,-1.5190839694656488
5.1,0.0361328125,-1.0126953125,0.07763671875,-0.42748091603053434,-0.15267175572519084,-1.4580152671755726
5.11,0.035888671875,-1.0078125,0.080810546875,-0.5343511450381679,-0.10687022900763359,-1.4427480916030535
5.12,0.03466796875,-1.003662109375,0.08056640625,-0.4961832061068702,-0.1984732824427481,-1.3969465648854962
5.13,0.0390625,-0.987548828125,0.086181640625,-0.42748091603053434,-0.06870229007633588,-1.4351145038167938
5.14,0.044677734375,-1.006591796875,0.07373046875,-0.4122137404580153,0.05343511450381679,-1.4274809160305344
5.15,0.04443359375,-1.005126953125,0.084228515625,-0.3435114503816794,-0.2366412213740458,-1.6106870229007633
5.16,0.043701171875,-1.00048828125,0.072998046875,-0.48091603053435117,0.0916030534351145,-1.3435114503816794
5.17,0.04296875,-0.99853515625,0.0771484375,-0.3435114503816794,1.9312977099236641,-1.3435114503816794
5.18,0.045166015625,-1.00048828125,0.08154296875,-0.5114503816793893,-1.9541984732824427,-1.2442748091603053
5.19,0.031982421875,-1.01318359375,0.06494140625,-0.5190839694656488,-0.1297709923664122,-1.4274809160305344
5.2,0.0380859375,-0.987548828125,0.08203125,-0.3969465648854962,0.1297709923664122,-1.297709923664122
5.21,0.04052734375,-1.001953125,0.0771484375,-0.45038167938931295,-0.030534351145038167,-1.4885496183206106
5.22,0.0390625,-1.013671875,0.080322265625,-0.4198473282442748,-0.16793893129770993,-1.3587786259541985
5.23,0.04638671875,-1.0048828125,0.083251953125,-0.3053435114503817,0.07633587786259542,-1.2061068702290076
5.24,0.059814453125,-1.004150390625,0.080322265625,-0.33587786259541985,-0.183206106870229,-1.4427480916030535
5.25,0.044677734375,-1.001953125,0.0830078125,-0.3969465648854962,-0.25190839694656486,-1.3587786259541985
5.26,0.043701171875,-1.001708984375,0.063232421875,-0.3816793893129771,1.9389312977099236,-1.5877862595419847
5.27,0.0439453125,-1.000732421875,0.0927734375,-0.48091603053435117,1.8778625954198473,-1.381679389312977
5.28,0.042724609375,-1.0048828125,0.0634765625,-0.6335877862595419,-1.9389312977099236,-1.2748091603053435
5.29,0.0390625,-1.0029296875,0.07958984375,-0.2824427480916031,1.9389312977099236,-1.282442748091603
5.3,0.03955078125,-1.003173828125,0.08251953125,-0.4961832061068702,-0.08396946564885496,-1.4732824427480915
5.31,0.043701171875,-1.005615234375,0.079833984375,-0.48091603053435117,-0.1297709923664122,-1.5419847328244274
5.32,0.041748046875,-1.00732421875,0.08349609375,-0.22137404580152673,0.05343511450381679,-1.3129770992366412
5.33,0.032470703125,-1.000732421875,0.09326171875,-0.0916030534351145,0.05343511450381679,-1.4732824427480915
5.34,0.0419921875,-1.001953125,0.08056640625,-0.3816793893129771,-0.2900763358778626,-1.4274809160305344
5.35,0.042724609375,-1.00390625,0.082275390625,-0.40458015267175573,-0.09923664122137404,-1.2366412213740459
5.36,0.03662109375,-1.001708984375,0.079833984375,-0.6335877862595419,-0.13740458015267176,-1.4351145038167938
5.37,0.0478515625,-1.005126953125,0.080322265625,-0.7633587786259542,-0.11450381679389313,-1.2595419847328244
5.38,0.04248046875,-1.001708984375,0.083984375,-0.5190839694656488,-0.061068702290076333,-1.5267175572519085
5.39,0.04052734375,-1.009765625,0.080322265625,-0.549618320610687,-1.9312977099236641,-1.083969465648855
5.4,0.033447265625,-1.00244140625,0.087158203125,-0.4961832061068702,-0.07633587786259542,-1.4045801526717556
5.41,0.04541015625,-1.00732421875,0.08740234375,-0.37404580152671757,0.12213740458015267,-1.4885496183206106
5.42,0.046630859375,-0.999755859375,0.069091796875,-0.15267175572519084,-0.16030534351145037,-1.183206106870229
5.43,0.03955078125,-1.00146484375,0.07470703125,-0.45038167938931295,-0.0916030534351145,-1.2671755725190839
5.44,0.045654296875,-1.0029296875,0.079345703125,-0.16793893129770993,-0.1450381679389313,-1.183206106870229
5.45,0.03369140625,-1.004150390625,0.08447265625,-0.20610687022900764,0.10687022900763359,-1.3740458015267176
5.46,0.043212890625,-1.00244140625,0.080322265625,-0.2824427480916031,0.17557251908396945,-1.465648854961832
5.47,0.042236328125,-1.00341796875,0.085205078125,-0.5419847328244275,-0.06870229007633588,-1.4045801526717556
5.48,0.036865234375,-1.0146484375,0.077392578125,-0.3893129770992366,1.8702290076335877,-1.549618320610687
5.49,0.04248046875,-1.002197265625,0.08447265625,-0.648854961832061,-0.015267175572519083,-1.4732824427480915
5.5,0.0390625,-0.997314453125,0.08984375,-0.5648854961832062,-0.22137404580152673,-1.2671755725190839
5.51,0.051025390625,-0.9990234375,0.08544921875,-0.5038167938931297,-0.11450381679389313,-1.4122137404580153
5.52,0.03369140625,-1.00048828125,0.0771484375,-0.5114503816793893,-0.31297709923664124,-1.4045801526717556
5.53,0.03955078125,-0.98486328125,0.072998046875,-0.5648854961832062,-1.9541984732824427,-1.2900763358778626
5.54,0.039794921875,-1.00634765625,0.073974609375,-0.6717557251908397,-0.09923664122137404,-1.4580152671755726
5.55,0.049072265625,-1.00244140625,0.08056640625,-0.5190839694656488,0.015267175572519083,-1.465648854961832
5.56,0.04541015625,-1.005126953125,0.0751953125,-0.37404580152671757,-0.16793893129770993,-1.4885496183206106
5.57,0.04150390625,-1.00390625,0.072998046875,-0.5877862595419847,-0.16793893129770993,-1.3587786259541985
5.58,0.0380859375,-1.003662109375,0.0751953125,-0.3511450381679389,-0.183206106870229,-1.4122137404580153
5.59,0.040283203125,-1.003173828125,0.076904296875,-0.25190839694656486,-0.030534351145038167,-1.450381679389313
5.6,0.042724609375,-1.001953125,0.080078125,-0.29770992366412213,1.8549618320610688,-1.4427480916030535
5.61,0.04833984375,-1.004150390625,0.072998046875,-0.6183206106870229,0.0916030534351145,-1.4198473282442747
5.62,0.04345703125,-1.003173828125,0.084716796875,-0.6030534351145038,-0.06870229007633588,-1.297709923664122
5.63,0.0419921875,-1.00341796875,0.0732421875,-0.6793893129770993,0.022900763358778626,-1.4427480916030535
5.64,0.046630859375,-1.000244140625,0.08154296875,-0.6259541984732825,0.08396946564885496,-1.3435114503816794
5.65,0.042724609375,-0.998291015625,0.081787109375,-0.45038167938931295,-0.26717557251908397,-1.2595419847328244
5.66,0.041748046875,-1.00341796875,0.07568359375,-0.32061068702290074,-0.22137404580152673,-1.4809160305343512
5.67,0.04150390625,-1.015380859375,0.074951171875,-0.48854961832061067,0.05343511450381679,-1.3893129770992367
5.68,0.043701171875,-1.00927734375,0.089599609375,-0.25190839694656486,-0.0916030534351145,-1.4809160305343512
5.69,0.03857421875,-1.002197265625,0.075439453125,-0.4732824427480916,-1.9236641221374047,-1.4274809160305344
5.7,0.046142578125,-1.00537109375,0.079833984375,-0.5190839694656488,-1.9465648854961832,-1.2442748091603053
5.71,0.04150390625,-1.00732421875,0.0791015625,-0.35877862595419846,-0.1450381679389313,-1.381679389312977
5.72,0.041015625,-1.003662109375,0.072265625,-0.35877862595419846,-0.09923664122137404,-1.3969465648854962
5.73,0.0439453125,-1.008056640625,0.077880859375,-0.29770992366412213,-0.03816793893129771,-1.4045801526717556
5.74,0.04150390625,-1.00048828125,0.08642578125,-0.366412213740458,-0.12213740458015267,-1.3435114503816794
5.75,0.044189453125,-1.01513671875,0.081787109375,-0.6335877862595419,-0.03816793893129771,-1.16793893129771
5.76,0.042236328125,-0.99951171875,0.078857421875,-0.6793893129770993,-0.12213740458015267,-1.2900763358778626
5.77,0.043212890625,-1.009521484375,0.092529296875,-0.6564885496183206,-0.03816793893129771,-1.2671755725190839
5.78,0.0439453125,-0.996337890625,0.079833984375,-0.48091603053435117,-0.19083969465648856,-1.3511450381679388
5.79,0.041259765625,-1.00634765625,0.083251953125,-0.3893129770992366,0.022900763358778626,-1.5419847328244274
5.8,0.04443359375,-1.003662109375,0.07958984375,-0.35877862595419846,-0.0916030534351145,-1.2061068702290076
5.81,0.04541015625,-1.0029296875,0.0869140625,-0.2900763358778626,0.08396946564885496,-1.16793893129771
5.82,0.0380859375,-1.000732421875,0.082275390625,-0.20610687022900764,0.022900763358778626,-1.3511450381679388
5.83,0.042236328125,-1.003662109375,0.06884765625,-0.37404580152671757,-1.9541984732824427,-1.465648854961832
5.84,0.04052734375,-1.0,0.078857421875,-0.5267175572519084,-0.24427480916030533,-1.3587786259541985
5.85,0.04052734375,-1.000732421875,0.083740234375,-0.5572519083969466,1.9236641221374047,-1.1984732824427482
5.86,0.038818359375,-1.004150390625,0.08056640625,-0.6259541984732825,-0.11450381679389313,-1.4198473282442747
5.87,0.0380859375,-1.003662109375,0.083740234375,-0.3816793893129771,-0.19083969465648856,-1.4580152671755726
5.88,0.05810546875,-1.001708984375,0.07275390625,-0.2595419847328244,-0.06870229007633588,-1.2290076335877862
5.89,0.056640625,-1.006103515625,0.0625,-0.4732824427480916,-0.0916030534351145,-1.4885496183206106
5.9,0.050537109375,-1.00390625,0.06298828125,-0.3969465648854962,-0.061068702290076333,-1.4198473282442747
5.91,0.038330078125,-1.004150390625,0.07763671875,-0.6641221374045801,1.9083969465648856,-1.2900763358778626
5.92,0.03955078125,-1.007080078125,0.07666015625,-0.7862595419847328,-0.12213740458015267,-1.4580152671755726
5.93,0.039306640625,-1.000732421875,0.0791015625,-0.5954198473282443,-0.13740458015267176,-1.4122137404580153
5.94,0.045166015625,-1.005126953125,0.089599609375,-0.6946564885496184,-0.26717557251908397,-1.381679389312977
5.95,0.041259765625,-0.98486328125,0.080810546875,-0.3816793893129771,-0.04580152671755725,-1.3206106870229009
5.96,0.035400390625,-1.0068359375,0.076416015625,-0.2366412213740458,-1.9236641221374047,-1.3358778625954197
5.97,0.04296875,-0.98681640625,0.06591796875,-0.21374045801526717,-0.07633587786259542,-1.2671755725190839
5.98,0.0419921875,-1.001708984375,0.08447265625,-0.08396946564885496,-0.11450381679389313,-1.5267175572519085
5.99,0.03515625,-1.003662109375,0.085205078125,-0.17557251908396945,0.04580152671755725,-1.3587786259541985
6.0,0.05029296875,-1.005126953125,0.087158203125,-0.366412213740458,0.030534351145038167,-1.3129770992366412
6.01,0.04248046875,-1.005615234375,0.08349609375,-0.6259541984732825,1.9312977099236641,-1.297709923664122
6.02,0.04296875,-1.001953125,0.078857421875,-0.732824427480916,-0.26717557251908397,-1.2748091603053435
6.03,0.04248046875,-1.00146484375,0.08544921875,-0.8549618320610687,-0.19083969465648856,-1.4198473282442747
6.04,0.04345703125,-1.00146484375,0.068359375,-0.48091603053435117,-0.11450381679389313,-1.465648854961832
6.05,0.04248046875,-1.009521484375,0.078369140625,-0.648854961832061,-0.061068702290076333,-1.3282442748091603
6.06,0.039794921875,-1.00537109375,0.081298828125,-0.549618320610687,0.06870229007633588,-1.3053435114503817
6.07,0.046630859375,-1.00341796875,0.072265625,-0.366412213740458,0.05343511450381679,-1.3511450381679388
6.08,0.045166015625,-0.99853515625,0.0869140625,-0.5190839694656488,-0.16793893129770993,-1.4198473282442747
6.09,0.060302734375,-1.00732421875,0.072998046875,-0.35877862595419846,-1.8778625954198473,-1.3587786259541985
6.1,0.041259765625,-1.002197265625,0.08984375,-0.2595419847328244,0.030534351145038167,-1.2061068702290076
6.11,0.045654296875,-1.004638671875,0.064453125,-0.4122137404580153,0.16030534351145037,-1.4351145038167938
6.12,0.042724609375,-1.003173828125,0.07861328125,-0.6641221374045801,1.9236641221374047,-1.5725190839694656
6.13,0.04150390625,-1.005859375,0.08203125,-0.5114503816793893,0.015267175572519083,-1.366412213740458
6.14,0.0458984375,-1.0029296875,0.080078125,-0.48091603053435117,-0.12213740458015267,-1.3206106870229009
6.15,0.043212890625,-1.000244140625,0.07666015625,-0.7022900763358778,0.007633587786259542,-1.4427480916030535
6.16,0.039306640625,-0.98876953125,0.084716796875,-0.6030534351145038,1.9389312977099236,-1.3511450381679388
6.17,0.03564453125,-1.00439453125,0.08203125,-0.33587786259541985,0.007633587786259542,-1.3206106870229009
6.18,0.040283203125,-1.015380859375,0.0927734375,-0.5267175572519084,0.022900763358778626,-1.2061068702290076
6.19,0.045166015625,-1.01025390625,0.07861328125,-0.3053435114503817,-0.07633587786259542,-1.4427480916030535
6.2,0.04052734375,-1.002197265625,0.080810546875,-0.4198473282442748,-0.1450381679389313,-1.3206106870229009
6.21,0.044677734375,-1.0048828125,0.082275390625,-0.3435114503816794,-1.9389312977099236,-1.3206106870229009
6.22,0.05078125,-1.008544921875,0.07568359375,-0.48854961832061067,-1.8854961832061068,-1.4198473282442747
6.23,0.037841796875,-1.005126953125,0.08056640625,-0.4198473282442748,-0.16793893129770993,-1.3282442748091603
6.24,0.032958984375,-1.001953125,0.082275390625,-0.5877862595419847,-1.9083969465648856,-1.3511450381679388
6.25,0.03564453125,-1.00439453125,0.0927734375,-0.5801526717557252,-0.15267175572519084,-1.3358778625954197
6.26,0.044189453125,-1.0029296875,0.09228515625,-0.183206106870229,-0.22900763358778625,-1.4351145038167938
6.27,0.04150390625,-1.000244140625,0.076904296875,-0.46564885496183206,0.04580152671755725,-1.3206106870229009
6.28,0.043212890625,-1.000732421875,0.07958984375,-0.40458015267175573,-1.900763358778626,-1.3435114503816794
6.29,0.04248046875,-1.00732421875,0.072265625,-0.42748091603053434,0.03816793893129771,-1.381679389312977
6.3,0.04443359375,-1.01220703125,0.077880859375,-0.6564885496183206,1.916030534351145,-1.4045801526717556
6.31,0.043701171875,-1.008544921875,0.0908203125,-0.8320610687022901,0.04580152671755725,-1.4198473282442747
6.32,0.056396484375,-1.002197265625,0.079345703125,-0.48091603053435117,-0.12213740458015267,-1.2900763358778626
6.33,0.04248046875,-1.01025390625,0.077392578125,-0.26717557251908397,-0.12213740458015267,-1.465648854961832
6.34,0.043701171875,-1.006591796875,0.082763671875,-0.31297709923664124,-0.04580152671755725,-1.297709923664122
6.35,0.039306640625,-1.001708984375,0.075927734375,-0.48854961832061067,-0.2824427480916031,-1.4122137404580153
6.36,0.03955078125,-1.00341796875,0.0869140625,-0.48091603053435117,1.8702290076335877,-1.5190839694656488
6.37,0.043701171875,-1.007080078125,0.080322265625,-0.549618320610687,-0.16793893129770993,-1.366412213740458
6.38,0.045654296875,-1.00341796875,0.09130859375,-0.732824427480916,-0.015267175572519083,-1.3511450381679388
6.39,0.043212890625,-0.986572265625,0.074462890625,-0.29770992366412213,-0.05343511450381679,-1.4885496183206106
6.4,0.04345703125,-1.00439453125,0.073486328125,-0.22900763358778625,-0.20610687022900764,-1.4427480916030535
6.41,0.038818359375,-1.00390625,0.076904296875,-0.29770992366412213,-0.15267175572519084,-1.5267175572519085
6.42,0.04150390625,-1.00146484375,0.08154296875,-0.48091603053435117,-0.07633587786259542,-1.3053435114503817
6.43,0.043701171875,-1.005615234375,0.074462890625,-0.3893129770992366,-0.1297709923664122,-1.4045801526717556
6.44,0.04150390625,-1.00537109375,0.083251953125,-0.5343511450381679,-0.183206106870229,-1.282442748091603
6.45,0.0390625,-1.005615234375,0.080810546875,-0.5954198473282443,-1.916030534351145,-1.3358778625954197
6.46,0.035400390625,-1.00537109375,0.085205078125,-0.7022900763358778,-0.015267175572519083,-1.3969465648854962
6.47,0.046630859375,-1.00732421875,0.079833984375,-0.4961832061068702,-0.19083969465648856,-1.4580152671755726
6.48,0.038330078125,-1.003662109375,0.07421875,-0.5267175572519084,-0.15267175572519084,-1.465648854961832
6.49,0.042724609375,-1.0029296875,0.076171875,-0.366412213740458,1.9236641221374047,-1.2595419847328244
6.5,0.041015625,-1.00048828125,0.071533203125,-0.5801526717557252,-0.05343511450381679,-1.633587786259542
6.51,0.055908203125,-1.000732421875,0.081298828125,-0.37404580152671757,0.09923664122137404,-1.2595419847328244
6.52,0.061279296875,-1.00390625,0.087890625,-0.6030534351145038,-0.40458015267175573,-1.450381679389313
6.53,0.0400390625,-1.000244140625,0.080078125,-0.7862595419847328,-0.015267175572519083,-1.4351145038167938
6.54,0.036376953125,-1.0146484375,0.07080078125,-0.3435114503816794,-0.0916030534351145,-1.465648854961832
6.55,0.04345703125,-1.00244140625,0.080810546875,-0.37404580152671757,1.9083969465648856,-1.213740458015267
6.56,0.0439453125,-1.00146484375,0.090087890625,-0.32061068702290074,0.10687022900763359,-1.4122137404580153
6.57,0.037353515625,-1.007568359375,0.080322265625,-0.5419847328244275,-0.15267175572519084,-1.4198473282442747
6.58,0.03271484375,-1.002197265625,0.083984375,-0.40458015267175573,-0.061068702290076333,-1.3435114503816794
6.59,0.044189453125,-0.99755859375,0.081298828125,-0.4732824427480916,0.11450381679389313,-1.4885496183206106
6.6,0.043701171875,-1.004150390625,0.089111328125,-0.7938931297709924,-0.0916030534351145,-1.5038167938931297
6.61,0.040283203125,-1.005859375,0.076904296875,-0.4580152671755725,-0.07633587786259542,-1.3435114503816794
6.62,0.041015625,-1.004150390625,0.08154296875,-0.4198473282442748,0.03816793893129771,-1.366412213740458
6.63,0.0380859375,-1.007080078125,0.078369140625,-0.4580152671755725,-0.09923664122137404,-1.3969465648854962
6.64,0.041015625,-1.00341796875,0.07861328125,-0.33587786259541985,-0.15267175572519084,-1.4809160305343512
6.65,0.043212890625,-1.00244140625,0.082275390625,-0.3816793893129771,-1.9389312977099236,-1.4961832061068703
6.66,0.041748046875,-1.004638671875,0.08251953125,-0.6030534351145038,-0.16793893129770993,-1.4198473282442747
6.67,0.032470703125,-1.00439453125,0.086669921875,-0.6870229007633588,-0.25190839694656486,-1.3893129770992367
6.68,0.045166015625,-1.001708984375,0.083984375,-0.35877862595419846,1.9465648854961832,-1.381679389312977
6.69,0.0458984375,-1.010009765625,0.083251953125,-0.20610687022900764,-0.022900763358778626,-1.5038167938931297
6.7,0.044677734375,-1.001953125,0.076171875,-0.5038167938931297,-0.022900763358778626,-1.4885496183206106
6.71,0.0380859375,-1.006591796875,0.074462890625,-0.5725190839694656,-0.0916030534351145,-1.2213740458015268
6.72,0.041015625,-1.010009765625,0.07275390625,-0.5877862595419847,-0.061068702290076333,-1.3129770992366412
6.73,0.0390625,-1.0068359375,0.092529296875,-0.6793893129770993,-0.04580152671755725,-1.3358778625954197
6.74,0.04296875,-1.00390625,0.079345703125,-0.7404580152671756,0.061068702290076333,-1.5114503816793894
6.75,0.04443359375,-1.00439453125,0.073486328125,-0.6030534351145038,-0.16030534351145037,-1.4274809160305344
6.76,0.04052734375,-1.00341796875,0.0732421875,-0.48091603053435117,0.03816793893129771,-1.2595419847328244
6.77,0.0439453125,-1.00048828125,0.08203125,-0.5267175572519084,-0.366412213740458,-1.4427480916030535
6.78,0.040283203125,-1.004638671875,0.078369140625,-0.5038167938931297,-0.3053435114503817,-1.4045801526717556
6.79,0.038818359375,-0.996337890625,0.071533203125,-0.33587786259541985,0.04580152671755725,-1.1755725190839694
6.8,0.0400390625,-1.0146484375,0.076416015625,-0.37404580152671757,-0.09923664122137404,-1.4809160305343512
6.81,0.040771484375,-1.00390625,0.08251953125,-0.5267175572519084,-0.06870229007633588,-1.4580152671755726
6.82,0.04541015625,-1.00634765625,0.08251953125,-0.4122137404580153,-1.8931297709923665,-1.4122137404580153
6.83,0.039794921875,-1.00341796875,0.0732421875,-0.6564885496183206,0.06870229007633588,-1.4885496183206106
6.84,0.04443359375,-1.0068359375,0.0791015625,-0.48091603053435117,-0.05343511450381679,-1.4580152671755726
6.85,0.041259765625,-1.007568359375,0.08154296875,-0.5190839694656488,-0.16030534351145037,-1.2748091603053435
6.86,0.04443359375,-1.001953125,0.0859375,-0.5267175572519084,-0.15267175572519084,-1.3969465648854962
6.87,0.061767578125,-1.002685546875,0.09033203125,-0.5725190839694656,-0.17557251908396945,-1.381679389312977
6.88,0.042724609375,-1.0048828125,0.080322265625,-0.6870229007633588,-0.183206106870229,-1.4580152671755726
6.89,0.048095703125,-1.002197265625,0.080078125,-0.648854961832061,-0.05343511450381679,-1.2442748091603053
6.9,0.04345703125,-1.0029296875,0.080078125,-0.8473282442748091,-0.19083969465648856,-1.2061068702290076
6.91,0.044921875,-0.998779296875,0.073974609375,-0.6641221374045801,-0.022900763358778626,-1.3740458015267176
6.92,0.04736328125,-1.009521484375,0.0791015625,-0.4198473282442748,-0.1450381679389313,-1.4198473282442747
6.93,0.032470703125,-0.999755859375,0.07421875,-0.35877862595419846,-0.061068702290076333,-1.3969465648854962
6.94,0.044189453125,-1.002685546875,0.076416015625,-0.4580152671755725,-0.20610687022900764,-1.4885496183206106
6.95,0.044921875,-1.015380859375,0.091064453125,-0.3282442748091603,-0.06870229007633588,-1.5267175572519085
6.96,0.039794921875,-1.006591796875,0.086669921875,-0.6259541984732825,-0.2824427480916031,-1.2748091603053435
6.97,0.041259765625,-1.000244140625,0.079833984375,-0.40458015267175573,-0.022900763358778626,-1.450381679389313
6.98,0.039306640625,-0.99951171875,0.078369140625,-0.48854961832061067,0.15267175572519084,-1.2748091603053435
6.99,0.0458984375,-1.00634765625,0.06591796875,-0.2748091603053435,-0.08396946564885496,-1.3206106870229009
7.0,0.044189453125,-0.99951171875,0.086181640625,-0.2900763358778626,-1.8931297709923665,-1.3206106870229009
7.01,0.0322265625,-1.00439453125,0.081298828125,-0.366412213740458,-0.20610687022900764,-1.465648854961832
7.02,0.040283203125,-1.00244140625,0.0751953125,-0.5572519083969466,0.1297709923664122,-1.3587786259541985
7.03,0.0458984375,-1.00341796875,0.0771484375,-0.44274809160305345,-0.21374045801526717,-1.4351145038167938
7.04,0.035400390625,-1.003662109375,0.07861328125,-0.7404580152671756,-0.1450381679389313,-1.465648854961832
7.05,0.041748046875,-0.998291015625,0.076904296875,-0.48854961832061067,-1.9312977099236641,-1.4427480916030535
7.06,0.0439453125,-1.0029296875,0.08056640625,-0.5801526717557252,-0.06870229007633588,-1.3358778625954197
7.07,0.044677734375,-1.002685546875,0.080810546875,-0.3893129770992366,-0.04580152671755725,-1.251908396946565
7.08,0.039794921875,-1.00146484375,0.08544921875,-0.4732824427480916,0.07633587786259542,-1.4580152671755726
7.09,0.055908203125,-1.001708984375,0.07275390625,-0.061068702290076333,-0.17557251908396945,-1.3587786259541985
7.1,0.0458984375,-1.0009765625,0.091552734375,-0.4351145038167939,1.8702290076335877,-1.5190839694656488
7.11,0.04443359375,-1.010009765625,0.082763671875,-0.8015267175572519,-0.2366412213740458,-1.366412213740458
7.12,0.036865234375,-1.00341796875,0.0830078125,-0.5725190839694656,-0.2900763358778626,-1.3893129770992367
7.13,0.037841796875,-1.0029296875,0.0771484375,-0.6259541984732825,-0.1297709923664122,-1.5419847328244274
7.14,0.0439453125,-1.011474609375,0.08544921875,-0.6946564885496184,-0.19083969465648856,-1.3893129770992367
7.15,0.039794921875,-1.00537109375,0.082763671875,-0.42748091603053434,-0.12213740458015267,-1.4122137404580153
7.16,0.0439453125,-1.00341796875,0.0810546875,-0.5038167938931297,-1.9389312977099236,-1.1984732824427482
7.17,0.04296875,-1.00390625,0.0634765625,-0.4580152671755725,-0.03816793893129771,-1.4809160305343512
7.18,0.04833984375,-1.005126953125,0.09033203125,-0.6183206106870229,-0.08396946564885496,-1.3053435114503817
7.19,0.043701171875,-1.0009765625,0.0751953125,-0.3435114503816794,-0.1450381679389313,-1.3358778625954197
7.2,0.04150390625,-1.006591796875,0.07275390625,-0.6030534351145038,-0.04580152671755725,-1.3129770992366412
7.21,0.043701171875,-1.00048828125,0.076416015625,-0.31297709923664124,-0.183206106870229,-1.534351145038168
7.22,0.046630859375,-0.985107421875,0.077880859375,-0.3969465648854962,-0.13740458015267176,-1.3282442748091603
7.23,0.05224609375,-1.009033203125,0.08056640625,-0.2900763358778626,-0.08396946564885496,-1.1908396946564885
7.24,0.042724609375,-1.005126953125,0.08935546875,-0.4961832061068702,0.16030534351145037,-1.3435114503816794
7.25,0.0400390625,-1.005615234375,0.08837890625,-0.6793893129770993,-1.9541984732824427,-1.3358778625954197
7.26,0.044921875,-0.999755859375,0.080810546875,-0.6335877862595419,0.022900763358778626,-1.4274809160305344
7.27,0.04736328125,-0.998046875,0.07568359375,-0.7709923664122137,-0.1297709923664122,-1.5267175572519085
7.28,0.04296875,-1.003173828125,0.07568359375,-0.6106870229007634,-0.04580152671755725,-1.450381679389313
7.29,0.03466796875,-1.0009765625,0.084716796875,-0.6335877862595419,-0.12213740458015267,-1.4122137404580153
7.3,0.03759765625,-1.001708984375,0.073486328125,-0.366412213740458,0.0916030534351145,-1.5648854961832062
7.31,0.042236328125,-1.00341796875,0.065185546875,-0.5419847328244275,-0.20610687022900764,-1.3206106870229009
7.32,0.04052734375,-0.998291015625,0.0810546875,-0.32061068702290074,-0.15267175572519084,-1.2213740458015268
7.33,0.04541015625,-1.001220703125,0.08251953125,-0.4732824427480916,0.1297709923664122,-1.5114503816793894
7.34,0.035888671875,-1.00390625,0.080810546875,-0.37404580152671757,-0.12213740458015267,-1.2900763358778626
7.35,0.0400390625,-1.001953125,0.07861328125,-0.26717557251908397,-0.0916030534351145,-1.3053435114503817
7.36,0.044921875,-1.003662109375,0.08154296875,-0.4351145038167939,-0.061068702290076333,-1.4885496183206106
7.37,0.043701171875,-1.0068359375,0.07666015625,-0.48854961832061067,-1.9083969465648856,-1.4122137404580153
7.38,0.044189453125,-0.98681640625,0.066650390625,-0.6335877862595419,1.9389312977099236,-1.251908396946565
7.39,0.05078125,-0.999755859375,0.0712890625,-0.5648854961832062,-0.24427480916030533,-1.4809160305343512
7.4,0.044189453125,-1.007568359375,0.081787109375,-0.7633587786259542,-0.17557251908396945,-1.3053435114503817
7.41,0.04150390625,-1.009033203125,0.07666015625,-0.5190839694656488,-0.17557251908396945,-1.3129770992366412
7.42,0.0400390625,-1.0078125,0.080078125,-0.6564885496183206,0.030534351145038167,-1.3206106870229009
7.43,0.04345703125,-1.007080078125,0.078857421875,-0.6564885496183206,-0.1984732824427481,-1.5267175572519085
7.44,0.060302734375,-1.00634765625,0.0791015625,-0.40458015267175573,0.030534351145038167,-1.366412213740458
7.45,0.04052734375,-1.00634765625,0.070068359375,-0.3053435114503817,-0.03816793893129771,-1.4580152671755726
7.46,0.0439453125,-1.004150390625,0.074951171875,-0.366412213740458,-0.15267175572519084,-1.3358778625954197
7.47,0.037841796875,-1.00390625,0.072021484375,-0.22137404580152673,-0.26717557251908397,-1.4427480916030535
7.48,0.0380859375,-1.004638671875,0.086181640625,-0.15267175572519084,0.25190839694656486,-1.4274809160305344
7.49,0.03857421875,-1.0009765625,0.07958984375,-0.3511450381679389,-0.15267175572519084,-1.4580152671755726
7.5,0.0419921875,-1.001220703125,0.0751953125,-0.648854961832061,-0.10687022900763359,-1.3282442748091603
7.51,0.04248046875,-1.0068359375,0.07275390625,-0.6412213740458015,1.9236641221374047,-1.251908396946565
7.52,0.04443359375,-1.00390625,0.080810546875,-0.7404580152671756,0.03816793893129771,-1.2442748091603053
7.53,0.044921875,-1.00537109375,0.091064453125,-0.5648854961832062,-0.24427480916030533,-1.3587786259541985
7.54,0.039794921875,-0.996337890625,0.072998046875,-0.5648854961832062,-0.09923664122137404,-1.4122137404580153
7.55,0.049560546875,-1.00244140625,0.08447265625,-0.31297709923664124,0.0916030534351145,-1.3740458015267176
7.56,0.04296875,-1.002685546875,0.0751953125,-0.5419847328244275,0.16793893129770993,-1.3282442748091603
7.57,0.039794921875,-0.9873046875,0.08544921875,-0.5725190839694656,-0.015267175572519083,-1.4122137404580153
7.58,0.037841796875,-1.00146484375,0.07763671875,-0.6030534351145038,-0.33587786259541985,-1.2671755725190839
7.59,0.04541015625,-1.0078125,0.076904296875,-0.44274809160305345,-0.2900763358778626,-1.5419847328244274
7.6,0.04443359375,-1.004150390625,0.084716796875,-0.42748091603053434,0.015267175572519083,-1.4122137404580153
7.61,0.0390625,-1.00341796875,0.07763671875,-0.2900763358778626,-0.183206106870229,-1.3969465648854962
7.62,0.034912109375,-1.000732421875,0.0869140625,-0.3435114503816794,-0.25190839694656486,-1.2900763358778626
7.63,0.04443359375,-1.005126953125,0.074462890625,-0.5419847328244275,-0.21374045801526717,-1.4045801526717556
7.64,0.041259765625,-1.00244140625,0.0791015625,-0.3969465648854962,-0.06870229007633588,-1.4351145038167938
7.65,0.0380859375,-1.004638671875,0.070068359375,-0.4198473282442748,1.8854961832061068,-1.4885496183206106
7.66,0.044921875,-1.014892578125,0.082275390625,-0.3435114503816794,-0.1450381679389313,-1.450381679389313
7.67,0.047607421875,-1.005615234375,0.091552734375,-0.3282442748091603,-0.15267175572519084,-1.5419847328244274
7.68,0.044189453125,-1.002197265625,0.080078125,-0.45038167938931295,-0.007633587786259542,-1.366412213740458
7.69,0.0400390625,-1.004638671875,0.075439453125,-0.5648854961832062,-0.183206106870229,-1.3969465648854962
7.7,0.04443359375,-1.005859375,0.082763671875,-0.6564885496183206,-0.11450381679389313,-1.3587786259541985
7.71,0.038818359375,-1.004638671875,0.07421875,-0.9083969465648855,-0.20610687022900764,-1.4961832061068703
7.72,0.04248046875,-1.005126953125,0.093505859375,-0.6564885496183206,-0.21374045801526717,-1.7557251908396947
7.73,0.04541015625,-1.000244140625,0.063720703125,-0.46564885496183206,-0.15267175572519084,-1.450381679389313
7.74,0.04150390625,-1.005859375,0.078125,-0.48854961832061067,0.05343511450381679,-1.3206106870229009
7.75,0.042236328125,-1.00048828125,0.080078125,-0.42748091603053434,0.13740458015267176,-1.2442748091603053
7.76,0.038818359375,-1.0009765625,0.083740234375,-0.32061068702290074,0.061068702290076333,-1.381679389312977
7.77,0.04345703125,-1.005615234375,0.07763671875,-0.4122137404580153,-0.007633587786259542,-1.2900763358778626
7.78,0.060546875,-1.0029296875,0.08154296875,-0.46564885496183206,0.007633587786259542,-1.4961832061068703
7.79,0.032470703125,-1.01025390625,0.080810546875,-0.29770992366412213,-0.1450381679389313,-1.251908396946565
7.8,0.04052734375,-1.007080078125,0.085693359375,-0.4351145038167939,-1.9389312977099236,-1.4045801526717556
7.81,0.04296875,-1.0029296875,0.080078125,-0.37404580152671757,-0.11450381679389313,-1.366412213740458
7.82,0.046630859375,-1.004638671875,0.085693359375,-0.6106870229007634,-1.9389312977099236,-1.4427480916030535
7.83,0.044921875,-1.00390625,0.07861328125,-0.6259541984732825,-0.1450381679389313,-1.4351145038167938
7.84,0.040771484375,-1.001220703125,0.08203125,-0.5725190839694656,0.007633587786259542,-1.4732824427480915
7.85,0.041748046875,-1.0029296875,0.084228515625,-0.732824427480916,-0.20610687022900764,-1.282442748091603
7.86,0.0458984375,-1.005126953125,0.0732421875,-0.3893129770992366,0.22900763358778625,-1.3969465648854962
7.87,0.0439453125,-1.0068359375,0.081298828125,-0.42748091603053434,-0.07633587786259542,-1.4427480916030535
7.88,0.047607421875,-1.0009765625,0.07958984375,-0.32061068702290074,-0.0916030534351145,-1.282442748091603
7.89,0.038818359375,-1.0068359375,0.082763671875,-0.366412213740458,-0.061068702290076333,-1.2748091603053435
7.9,0.042236328125,-1.001220703125,0.082275390625,-0.32061068702290074,-0.022900763358778626,-1.5190839694656488
7.91,0.044677734375,-1.0029296875,0.08203125,-0.4732824427480916,-0.061068702290076333,-1.4809160305343512
7.92,0.0400390625,-1.015625,0.07568359375,-0.5725190839694656,-0.007633587786259542,-1.450381679389313
7.93,0.046142578125,-1.005126953125,0.07177734375,-0.3893129770992366,-0.33587786259541985,-1.366412213740458
7.94,0.043212890625,-1.001953125,0.07958984375,-0.37404580152671757,1.9312977099236641,-1.3511450381679388
7.95,0.04443359375,-1.00927734375,0.07177734375,-0.46564885496183206,-0.08396946564885496,-1.4198473282442747
7.96,0.037353515625,-1.001953125,0.0791015625,-0.5343511450381679,-0.0916030534351145,-1.2061068702290076
7.97,0.03955078125,-1.005126953125,0.08251953125,-0.6030534351145038,-0.10687022900763359,-1.3053435114503817
7.98,0.0380859375,-1.00146484375,0.07861328125,-0.4580152671755725,-0.10687022900763359,-1.465648854961832
7.99,0.045166015625,-1.0048828125,0.080078125,-0.5267175572519084,-0.06870229007633588,-1.3511450381679388
8.0,0.044677734375,-1.006103515625,0.07421875,-0.4198473282442748,0.030534351145038167,-1.1755725190839694
8.01,0.04248046875,-1.002685546875,0.08056640625,-0.6030534351145038,0.1450381679389313,-1.4122137404580153
8.02,0.040283203125,-0.999267578125,0.081298828125,-0.5419847328244275,1.8778625954198473,-1.4351145038167938
8.03,0.048095703125,-1.00341796875,0.078369140625,-0.5267175572519084,-1.9465648854961832,-1.3511450381679388
8.04,0.04052734375,-1.000244140625,0.075927734375,-0.31297709923664124,-0.0916030534351145,-1.2366412213740459
8.05,0.036376953125,-1.005126953125,0.083740234375,-0.2595419847328244,1.9465648854961832,-1.4045801526717556
8.06,0.04150390625,-1.001220703125,0.078857421875,-0.48091603053435117,-0.09923664122137404,-1.4198473282442747
8.07,0.0419921875,-0.9990234375,0.070556640625,-0.4580152671755725,-0.09923664122137404,-1.4122137404580153
8.08,0.043212890625,-0.9853515625,0.07275390625,-0.5190839694656488,-0.09923664122137404,-1.549618320610687
8.09,0.04248046875,-1.010009765625,0.06298828125,-0.5114503816793893,-0.12213740458015267,-1.5190839694656488
8.1,0.044189453125,-1.006103515625,0.076904296875,-0.3435114503816794,-0.16793893129770993,-1.5114503816793894
8.11,0.047119140625,-1.003173828125,0.079833984375,-0.48854961832061067,-0.22900763358778625,-1.4580152671755726
8.12,0.03125,-1.00341796875,0.078857421875,-0.4961832061068702,-0.16030534351145037,-1.213740458015267
8.13,0.060791015625,-1.006103515625,0.073486328125,-0.5114503816793893,-1.9465648854961832,-1.4961832061068703
8.14,0.041015625,-1.001708984375,0.080810546875,-0.5801526717557252,-0.13740458015267176,-1.2748091603053435
8.15,0.045654296875,-1.005126953125,0.09326171875,-0.2595419847328244,-0.030534351145038167,-1.3358778625954197
8.16,0.042236328125,-1.003173828125,0.0673828125,-0.3969465648854962,0.12213740458015267,-1.4732824427480915
8.17,0.0400390625,-1.0,0.09130859375,-0.4580152671755725,-0.2595419847328244,-1.4809160305343512
8.18,0.0439453125,-1.008056640625,0.077880859375,-0.3511450381679389,0.05343511450381679,-1.4351145038167938
8.19,0.0380859375,-1.00439453125,0.077880859375,-0.3511450381679389,-0.0916030534351145,-1.4809160305343512
8.2,0.0419921875,-1.01513671875,0.083740234375,-0.3511450381679389,-0.2900763358778626,-1.3206106870229009
8.21,0.042724609375,-1.005615234375,0.06396484375,-0.37404580152671757,-0.17557251908396945,-1.2748091603053435
8.22,0.04345703125,-1.00634765625,0.091064453125,-0.5954198473282443,-0.17557251908396945,-1.4351145038167938
8.23,0.045166015625,-1.003662109375,0.065673828125,-0.6259541984732825,-0.015267175572519083,-1.3435114503816794
8.24,0.038818359375,-1.0009765625,0.0791015625,-0.5954198473282443,0.03816793893129771,-1.4122137404580153
8.25,0.045654296875,-1.0068359375,0.085693359375,-0.4732824427480916,1.8549618320610688,-1.3129770992366412
8.26,0.04248046875,-1.000244140625,0.08447265625,-0.4732824427480916,-1.9541984732824427,-1.2213740458015268
8.27,0.041015625,-1.005859375,0.080810546875,-0.6183206106870229,-0.37404580152671757,-1.5801526717557253
8.28,0.03857421875,-1.0048828125,0.07861328125,-0.32061068702290074,0.030534351145038167,-1.618320610687023
8.29,0.03955078125,-1.0048828125,0.08642578125,-0.46564885496183206,-0.04580152671755725,-1.5267175572519085
8.3,0.0400390625,-1.00146484375,0.092529296875,-0.5419847328244275,1.9083969465648856,-1.4351145038167938
8.31,0.041748046875,-1.0009765625,0.083251953125,-0.48091603053435117,0.15267175572519084,-1.5877862595419847
8.32,0.0419921875,-1.0009765625,0.076416015625,-0.2366412213740458,-0.06870229007633588,-1.4732824427480915
8.33,0.046875,-1.00439453125,0.07763671875,-0.4732824427480916,-0.09923664122137404,-1.4274809160305344
8.34,0.044189453125,-1.0029296875,0.083740234375,-0.549618320610687,-0.07633587786259542,-1.5801526717557253
8.35,0.047119140625,-1.005615234375,0.091796875,-0.6946564885496184,-0.030534351145038167,-1.3740458015267176
8.36,0.0458984375,-1.00390625,0.07275390625,-0.4580152671755725,-0.08396946564885496,-1.0763358778625953
8.37,0.043212890625,-1.0029296875,0.0791015625,-0.648854961832061,-0.06870229007633588,-1.4274809160305344
8.38,0.0419921875,-1.0068359375,0.076416015625,-0.8473282442748091,-0.17557251908396945,-1.4580152671755726
8.39,0.04296875,-1.002685546875,0.08056640625,-0.45038167938931295,1.8473282442748091,-1.4274809160305344
8.4,0.041015625,-1.00341796875,0.080078125,-0.3893129770992366,-0.061068702290076333,-1.282442748091603
8.41,0.031494140625,-1.007080078125,0.07861328125,-0.33587786259541985,-0.061068702290076333,-1.366412213740458
8.42,0.04150390625,-1.0068359375,0.079833984375,-0.21374045801526717,-0.12213740458015267,-1.4045801526717556
8.43,0.041748046875,-1.01416015625,0.0927734375,-0.2824427480916031,-0.06870229007633588,-1.3893129770992367
8.44,0.04638671875,-1.00244140625,0.0771484375,-0.48091603053435117,-0.21374045801526717,-1.4122137404580153
8.45,0.04638671875,-1.004638671875,0.084228515625,-0.3893129770992366,-1.9541984732824427,-1.4274809160305344
8.46,0.044189453125,-1.0009765625,0.0791015625,-0.5725190839694656,-0.15267175572519084,-1.4198473282442747
8.47,0.040771484375,-1.00341796875,0.075927734375,-0.4961832061068702,1.8091603053435115,-1.366412213740458
8.48,0.04541015625,-1.005615234375,0.08056640625,-0.4580152671755725,-0.1984732824427481,-1.2290076335877862
8.49,0.043212890625,-1.001953125,0.069091796875,-0.5572519083969466,-1.9541984732824427,-1.4045801526717556
8.5,0.039306640625,-1.00048828125,0.087158203125,-0.5419847328244275,-0.08396946564885496,-1.1603053435114503
8.51,0.0390625,-1.00830078125,0.093505859375,-0.5725190839694656,-0.15267175572519084,-1.5038167938931297
8.52,0.0458984375,-1.0078125,0.076416015625,-0.6183206106870229,-0.1297709923664122,-1.3282442748091603
8.53,0.03759765625,-1.005126953125,0.081298828125,-0.366412213740458,-0.2595419847328244,-1.3206106870229009
8.54,0.06201171875,-1.0048828125,0.0771484375,-0.31297709923664124,-0.09923664122137404,-1.3511450381679388
8.55,0.047607421875,-1.006591796875,0.075927734375,-0.31297709923664124,-1.900763358778626,-1.3053435114503817
8.56,0.041015625,-1.00390625,0.081787109375,-0.2748091603053435,-0.10687022900763359,-1.5038167938931297
8.57,0.046142578125,-1.0029296875,0.077392578125,-0.35877862595419846,-0.15267175572519084,-1.1755725190839694
8.58,0.0439453125,-1.00439453125,0.079833984375,-0.549618320610687,-0.1450381679389313,-1.297709923664122
8.59,0.04248046875,-0.997314453125,0.0888671875,-0.40458015267175573,-0.030534351145038167,-1.3969465648854962
8.6,0.04443359375,-1.00390625,0.078369140625,-0.5267175572519084,-0.015267175572519083,-1.3282442748091603
8.61,0.0380859375,-1.002197265625,0.07763671875,-0.6106870229007634,-0.16793893129770993,-1.2671755725190839
8.62,0.044677734375,-1.0009765625,0.07421875,-0.44274809160305345,-0.030534351145038167,-1.3053435114503817
8.63,0.041015625,-1.01513671875,0.07421875,-0.46564885496183206,-0.08396946564885496,-1.3053435114503817
8.64,0.036376953125,-1.007080078125,0.076416015625,-0.6946564885496184,-1.916030534351145,-1.3740458015267176
8.65,0.04248046875,-1.00146484375,0.08056640625,-0.5725190839694656,0.08396946564885496,-1.381679389312977
8.66,0.04248046875,-1.00537109375,0.083251953125,-0.42748091603053434,-0.183206106870229,-1.3282442748091603
8.67,0.040771484375,-1.003173828125,0.077880859375,-0.5114503816793893,-0.1450381679389313,-1.2595419847328244
8.68,0.038818359375,-1.002197265625,0.07666015625,-0.6335877862595419,-0.22900763358778625,-1.4122137404580153
8.69,0.042724609375,-0.989990234375,0.07958984375,-0.5114503816793893,-0.15267175572519084,-1.381679389312977
8.7,0.04052734375,-1.003662109375,0.09326171875,-0.3893129770992366,-0.19083969465648856,-1.465648854961832
8.71,0.05908203125,-1.004638671875,0.083740234375,-0.5267175572519084,-0.09923664122137404,-1.282442748091603
8.72,0.04296875,-1.0029296875,0.091796875,-0.183206106870229,-0.2595419847328244,-1.366412213740458
8.73,0.04052734375,-0.9990234375,0.07763671875,-0.5419847328244275,-1.916030534351145,-1.4961832061068703
8.74,0.04150390625,-1.006103515625,0.077880859375,-0.6641221374045801,0.07633587786259542,-1.5572519083969465
8.75,0.035888671875,-1.002197265625,0.072265625,-0.7786259541984732,-0.11450381679389313,-1.251908396946565
8.76,0.041015625,-1.01416015625,0.085205078125,-0.7862595419847328,0.10687022900763359,-1.4122137404580153
8.77,0.04248046875,-1.009765625,0.093017578125,-0.549618320610687,0.1450381679389313,-1.4198473282442747
8.78,0.0390625,-1.00537109375,0.07275390625,-0.5038167938931297,-0.1984732824427481,-1.3129770992366412
8.79,0.04296875,-0.998779296875,0.08544921875,-0.4122137404580153,0.16793893129770993,-1.3282442748091603
8.8,0.045166015625,-1.0068359375,0.0791015625,-0.6106870229007634,0.07633587786259542,-1.4580152671755726
8.81,0.045166015625,-1.003662109375,0.074462890625,-0.33587786259541985,-0.05343511450381679,-1.2366412213740459
8.82,0.042236328125,-1.001220703125,0.07568359375,-0.20610687022900764,-0.26717557251908397,-1.5954198473282444
8.83,0.041259765625,-1.00634765625,0.079833984375,-0.45038167938931295,-0.11450381679389313,-1.297709923664122
8.84,0.04052734375,-1.01123046875,0.065185546875,-0.6412213740458015,0.12213740458015267,-1.6106870229007633
8.85,0.04296875,-1.013671875,0.09130859375,-0.4122137404580153,-0.10687022900763359,-1.3511450381679388
8.86,0.04345703125,-1.005126953125,0.086181640625,-0.31297709923664124,-0.08396946564885496,-1.6488549618320612
8.87,0.04833984375,-1.00146484375,0.0673828125,-0.4198473282442748,-0.03816793893129771,-1.4580152671755726
8.88,0.040771484375,-1.00244140625,0.0791015625,-0.549618320610687,-0.10687022900763359,-1.2900763358778626
8.89,0.0439453125,-1.004150390625,0.080810546875,-0.6335877862595419,1.9465648854961832,-1.297709923664122
8.9,0.042236328125,-1.009033203125,0.072509765625,-0.8091603053435115,-0.0916030534351145,-1.3358778625954197
8.91,0.042236328125,-1.014892578125,0.091552734375,-0.5725190839694656,-0.08396946564885496,-1.297709923664122
8.92,0.042236328125,-0.990234375,0.078369140625,-0.2748091603053435,-0.33587786259541985,-1.4885496183206106
8.93,0.038818359375,-1.004150390625,0.068603515625,-0.09923664122137404,-0.16030534351145037,-1.4198473282442747
8.94,0.037841796875,-1.0087890625,0.076171875,-0.16793893129770993,-0.022900763358778626,-1.3053435114503817
8.95,0.04736328125,-1.002197265625,0.07470703125,-0.48854961832061067,0.022900763358778626,-1.297709923664122
8.96,0.041015625,-0.99951171875,0.0791015625,-0.6412213740458015,1.9312977099236641,-1.3740458015267176
8.97,0.0322265625,-1.00244140625,0.07470703125,-0.8091603053435115,0.17557251908396945,-1.2442748091603053
8.98,0.04052734375,-1.01416015625,0.068115234375,-0.6335877862595419,-0.21374045801526717,-1.3206106870229009
8.99,0.0439453125,-1.00390625,0.08154296875,-0.5343511450381679,-0.11450381679389313,-1.282442748091603
9.0,0.04443359375,-0.996826171875,0.07958984375,-0.3435114503816794,-0.21374045801526717,-1.297709923664122
9.01,0.041748046875,-1.00048828125,0.073486328125,-0.32061068702290074,-0.13740458015267176,-1.4427480916030535
9.02,0.044921875,-1.001953125,0.086181640625,-0.3282442748091603,-1.9312977099236641,-1.3129770992366412
9.03,0.048095703125,-1.0009765625,0.079833984375,-0.4580152671755725,1.9465648854961832,-1.3206106870229009
9.04,0.044921875,-1.010498046875,0.081298828125,-0.33587786259541985,1.9465648854961832,-1.1984732824427482
9.05,0.04248046875,-1.00048828125,0.090576171875,-0.5343511450381679,0.13740458015267176,-1.4198473282442747
9.06,0.03125,-1.001953125,0.093505859375,-0.40458015267175573,-0.15267175572519084,-1.4580152671755726
9.07,0.04150390625,-1.007568359375,0.075439453125,-0.3053435114503817,-0.16030534351145037,-1.5190839694656488
9.08,0.041015625,-1.004150390625,0.0791015625,-0.5801526717557252,0.06870229007633588,-1.2671755725190839
9.09,0.04736328125,-0.9990234375,0.083740234375,-0.6641221374045801,-0.1450381679389313,-1.3053435114503817
9.1,0.04052734375,-1.00341796875,0.076171875,-0.6717557251908397,0.03816793893129771,-1.2748091603053435
9.11,0.04345703125,-1.00146484375,0.08154296875,-0.6641221374045801,-0.13740458015267176,-1.4122137404580153
9.12,0.060546875,-1.00244140625,0.07666015625,-0.44274809160305345,1.8625954198473282,-1.2748091603053435
9.13,0.044677734375,-1.00341796875,0.0634765625,-0.2824427480916031,-0.007633587786259542,-1.450381679389313
9.14,0.03857421875,-1.008056640625,0.072265625,-0.2748091603053435,-0.16793893129770993,-1.297709923664122
9.15,0.043212890625,-1.00146484375,0.062744140625,-0.44274809160305345,-0.05343511450381679,-1.3358778625954197
9.16,0.0439453125,-1.00537109375,0.0810546875,-0.42748091603053434,-1.9312977099236641,-1.3969465648854962
9.17,0.044189453125,-1.00146484375,0.0732421875,-0.37404580152671757,-0.022900763358778626,-1.465648854961832
9.18,0.0390625,-1.00439453125,0.072021484375,-0.4351145038167939,0.12213740458015267,-1.4961832061068703
9.19,0.041015625,-1.015625,0.064697265625,-0.5419847328244275,-0.17557251908396945,-1.4198473282442747
9.2,0.04345703125,-1.005126953125,0.084716796875,-0.5267175572519084,0.17557251908396945,-1.3435114503816794
9.21,0.044189453125,-1.005615234375,0.07861328125,-0.732824427480916,-0.13740458015267176,-1.366412213740458
9.22,0.0390625,-0.997802734375,0.081298828125,-0.40458015267175573,0.13740458015267176,-1.3740458015267176
9.23,0.042236328125,-1.002685546875,0.086669921875,-0.7251908396946565,-0.2595419847328244,-1.465648854961832
9.24,0.040283203125,-1.010498046875,0.081298828125,-0.5572519083969466,-0.32061068702290074,-1.1603053435114503
9.25,0.04052734375,-1.00830078125,0.075439453125,-0.2748091603053435,0.07633587786259542,-1.534351145038168
9.26,0.039306640625,-1.01171875,0.073486328125,-0.21374045801526717,-0.21374045801526717,-1.3358778625954197
9.27,0.031494140625,-1.0029296875,0.07958984375,-0.32061068702290074,1.9236641221374047,-1.4198473282442747
9.28,0.039306640625,-0.986083984375,0.090087890625,-0.6183206106870229,1.8931297709923665,-1.6412213740458015
9.29,0.04248046875,-1.001220703125,0.079833984375,-0.33587786259541985,-0.05343511450381679,-1.366412213740458
9.3,0.037109375,-1.006103515625,0.07421875,-0.549618320610687,-0.13740458015267176,-1.2290076335877862
9.31,0.0458984375,-1.006103515625,0.072021484375,-0.6564885496183206,-0.3053435114503817,-1.4809160305343512
9.32,0.0439453125,-1.005859375,0.07275390625,-0.5725190839694656,-0.10687022900763359,-1.3740458015267176
9.33,0.0390625,-1.015380859375,0.0751953125,-0.3893129770992366,-0.183206106870229,-1.3969465648854962
9.34,0.044921875,-1.001220703125,0.074462890625,-0.3511450381679389,-0.09923664122137404,-1.381679389312977
9.35,0.041015625,-1.003662109375,0.072509765625,-0.25190839694656486,-0.21374045801526717,-1.282442748091603
9.36,0.0390625,-1.006103515625,0.079833984375,-0.366412213740458,-0.2748091603053435,-1.4198473282442747
9.37,0.03857421875,-1.00830078125,0.0732421875,-0.4351145038167939,-0.007633587786259542,-1.381679389312977
9.38,0.043701171875,-1.004150390625,0.084228515625,-0.3969465648854962,0.22900763358778625,-1.450381679389313
9.39,0.04150390625,-1.003662109375,0.0859375,-0.366412213740458,-0.03816793893129771,-1.3435114503816794
9.4,0.0400390625,-1.003662109375,0.08251953125,-0.33587786259541985,-0.26717557251908397,-1.3740458015267176
9.41,0.040771484375,-1.005615234375,0.091796875,-0.32061068702290074,-0.06870229007633588,-1.534351145038168
9.42,0.04150390625,-0.987060546875,0.0830078125,-0.2595419847328244,1.9465648854961832,-1.4351145038167938
9.43,0.0458984375,-1.00244140625,0.087890625,-0.5572519083969466,0.04580152671755725,-1.282442748091603
9.44,0.03955078125,-1.003173828125,0.078857421875,-0.9236641221374046,0.04580152671755725,-1.099236641221374
9.45,0.04248046875,-1.005126953125,0.078369140625,-0.7709923664122137,-0.04580152671755725,-1.4198473282442747
9.46,0.044921875,-1.002685546875,0.083251953125,-0.7786259541984732,-0.06870229007633588,-1.3969465648854962
9.47,0.044921875,-1.011962890625,0.080078125,-0.2748091603053435,-0.015267175572519083,-1.3358778625954197
9.48,0.04638671875,-1.004150390625,0.078125,-0.2748091603053435,-0.12213740458015267,-1.5114503816793894
9.49,0.04541015625,-0.98828125,0.086181640625,-0.3816793893129771,0.06870229007633588,-1.2671755725190839
9.5,0.050537109375,-1.000732421875,0.081787109375,-0.2824427480916031,0.03816793893129771,-1.3358778625954197
9.51,0.044921875,-1.0029296875,0.083251953125,-0.48091603053435117,-0.1297709923664122,-1.3969465648854962
9.52,0.042236328125,-1.0029296875,0.072265625,-0.7404580152671756,-0.19083969465648856,-1.5114503816793894
9.53,0.03125,-1.005859375,0.083740234375,-0.48854961832061067,-0.007633587786259542,-1.4122137404580153
9.54,0.044189453125,-1.003173828125,0.080078125,-0.5572519083969466,-0.20610687022900764,-1.5114503816793894
9.55,0.0400390625,-1.003662109375,0.082275390625,-0.3816793893129771,-0.030534351145038167,-1.297709923664122
9.56,0.045654296875,-1.007568359375,0.091552734375,-0.1297709923664122,-0.33587786259541985,-1.2061068702290076
9.57,0.0400390625,-1.003662109375,0.0927734375,-0.3893129770992366,0.06870229007633588,-1.3053435114503817
9.58,0.040771484375,-1.00341796875,0.081787109375,-0.5572519083969466,-0.0916030534351145,-1.3587786259541985
9.59,0.041259765625,-1.0068359375,0.08056640625,-0.6793893129770993,-1.900763358778626,-1.3587786259541985
9.6,0.060302734375,-1.009033203125,0.081787109375,-0.5954198473282443,-0.16793893129770993,-1.4351145038167938
9.61,0.04443359375,-1.001220703125,0.076416015625,-0.549618320610687,1.916030534351145,-1.4961832061068703
9.62,0.037353515625,-1.004150390625,0.06787109375,-0.3893129770992366,0.015267175572519083,-1.3969465648854962
9.63,0.0380859375,-1.00390625,0.066162109375,-0.3435114503816794,-0.16793893129770993,-1.282442748091603
9.64,0.045654296875,-1.010009765625,0.0908203125,-0.061068702290076333,0.15267175572519084,-1.4351145038167938
9.65,0.0439453125,-0.999755859375,0.07861328125,-0.44274809160305345,-1.900763358778626,-1.3893129770992367
9.66,0.041015625,-0.999755859375,0.08203125,-0.3511450381679389,-0.11450381679389313,-1.4122137404580153
9.67,0.03955078125,-1.00146484375,0.085693359375,-0.732824427480916,-0.35877862595419846,-1.3053435114503817
9.68,0.041015625,-1.00341796875,0.078369140625,-0.9770992366412213,-0.015267175572519083,-1.3129770992366412
9.69,0.045166015625,-1.006103515625,0.091064453125,-0.8778625954198473,-0.11450381679389313,-1.3969465648854962
9.7,0.042236328125,-0.988525390625,0.067138671875,-0.44274809160305345,-0.21374045801526717,-1.4045801526717556
9.71,0.047607421875,-1.006103515625,0.083984375,-0.2595419847328244,-0.15267175572519084,-1.2595419847328244
9.72,0.039794921875,-1.005126953125,0.08447265625,-0.183206106870229,-0.061068702290076333,-1.2671755725190839
9.73,0.042724609375,-1.005615234375,0.071533203125,-0.06870229007633588,-0.1450381679389313,-1.3587786259541985
9.74,0.04638671875,-1.004638671875,0.0888671875,-0.17557251908396945,-0.09923664122137404,-1.4809160305343512
9.75,0.04150390625,-1.0068359375,0.08203125,-0.4961832061068702,-0.20610687022900764,-1.3893129770992367
9.76,0.033935546875,-0.987060546875,0.083251953125,-0.5877862595419847,1.9389312977099236,-1.5190839694656488
9.77,0.038818359375,-1.004638671875,0.084228515625,-0.31297709923664124,1.900763358778626,-1.3740458015267176
9.78,0.047119140625,-0.998779296875,0.090087890625,-0.366412213740458,0.061068702290076333,-1.282442748091603
9.79,0.041259765625,-1.005126953125,0.088623046875,-0.6870229007633588,-0.16030534351145037,-1.4580152671755726
9.8,0.045166015625,-1.004638671875,0.08251953125,-0.7099236641221374,1.9312977099236641,-1.3282442748091603
9.81,0.041259765625,-1.005126953125,0.083740234375,-0.44274809160305345,-0.16793893129770993,-1.4122137404580153
9.82,0.044921875,-1.0078125,0.078857421875,-0.4961832061068702,-0.030534351145038167,-1.3587786259541985
9.83,0.04248046875,-1.002197265625,0.0625,-0.35877862595419846,-0.06870229007633588,-1.465648854961832
9.84,0.04150390625,-1.00927734375,0.0625,-0.5725190839694656,0.007633587786259542,-1.450381679389313
9.85,0.042236328125,-1.00341796875,0.083984375,-0.46564885496183206,-0.12213740458015267,-1.450381679389313
9.86,0.041748046875,-1.005859375,0.078369140625,-0.26717557251908397,-0.0916030534351145,-1.465648854961832
9.87,0.045166015625,-1.005126953125,0.07177734375,-0.22137404580152673,-0.09923664122137404,-1.4809160305343512
9.88,0.04296875,-1.001220703125,0.072509765625,-0.2595419847328244,0.0,-1.251908396946565
9.89,0.055908203125,-1.005859375,0.0810546875,-0.24427480916030533,-0.16030534351145037,-1.1984732824427482
9.9,0.031494140625,-1.01513671875,0.080322265625,-0.48091603053435117,-0.022900763358778626,-1.3740458015267176
9.91,0.04052734375,-1.005615234375,0.08447265625,-0.6412213740458015,-0.183206106870229,-1.3206106870229009
9.92,0.041748046875,-1.009033203125,0.080810546875,-0.44274809160305345,0.03816793893129771,-1.5038167938931297
9.93,0.044189453125,-1.00048828125,0.07763671875,-0.5954198473282443,1.9465648854961832,-1.3206106870229009
9.94,0.044189453125,-1.00537109375,0.0771484375,-0.5343511450381679,-0.11450381679389313,-1.4274809160305344
9.95,0.046142578125,-1.00048828125,0.072998046875,-0.48854961832061067,-0.030534351145038167,-1.3358778625954197
9.96,0.04248046875,-1.015625,0.076171875,-0.6106870229007634,-0.07633587786259542,-1.3129770992366412
9.97,0.04052734375,-1.0029296875,0.064453125,-0.33587786259541985,-0.11450381679389313,-1.5114503816793894
9.98,0.0390625,-1.011474609375,0.08935546875,-0.40458015267175573,1.9312977099236641,-1.3053435114503817
9.99,0.039306640625,-0.999755859375,0.092529296875,-0.40458015267175573,-1.9541984732824427,-1.366412213740458
10.0,0.044189453125,-1.002197265625,0.083984375,-0.3893129770992366,-0.08396946564885496,-1.2671755725190839
10.01,0.046142578125,-1.0048828125,0.08203125,-0.3893129770992366,0.030534351145038167,-1.4198473282442747
10.02,0.0400390625,-1.0078125,0.080322265625,-0.33587786259541985,0.07633587786259542,-1.3435114503816794
10.03,0.03515625,-1.01123046875,0.063720703125,-0.3969465648854962,0.007633587786259542,-1.381679389312977
10.04,0.036865234375,-1.00732421875,0.070556640625,-0.19083969465648856,1.9389312977099236,-1.4961832061068703
10.05,0.046630859375,-1.010986328125,0.088623046875,-0.5114503816793893,-0.21374045801526717,-1.450381679389313
10.06,0.04052734375,-1.005859375,0.08251953125,-0.7251908396946565,1.8931297709923665,-1.3969465648854962
10.07,0.043701171875,-1.007080078125,0.087890625,-1.0305343511450382,-0.015267175572519083,-1.381679389312977
10.08,0.046142578125,-0.99658203125,0.07958984375,-1.0076335877862594,-0.183206106870229,-1.4580152671755726
10.09,0.037841796875,-1.009765625,0.080078125,-0.6106870229007634,-0.07633587786259542,-1.3053435114503817
10.1,0.047607421875,-1.005126953125,0.084228515625,-0.3435114503816794,0.03816793893129771,-1.3358778625954197
10.11,0.041259765625,-1.004150390625,0.088134765625,-0.11450381679389313,0.0916030534351145,-1.4427480916030535
10.12,0.042724609375,-1.013916015625,0.074462890625,-0.20610687022900764,-0.12213740458015267,-1.3740458015267176
10.13,0.041015625,-1.001708984375,0.0849609375,-0.16793893129770993,0.08396946564885496,-1.3129770992366412
10.14,0.039794921875,-1.0029296875,0.08154296875,-0.31297709923664124,-0.09923664122137404,-1.2671755725190839
10.15,0.041015625,-1.007080078125,0.080810546875,-0.7633587786259542,0.015267175572519083,-1.4122137404580153
10.16,0.04541015625,-1.00634765625,0.085205078125,-0.6106870229007634,-0.10687022900763359,-1.297709923664122
10.17,0.040283203125,-1.00732421875,0.078125,-0.549618320610687,0.015267175572519083,-1.297709923664122
10.18,0.04248046875,-1.00390625,0.068359375,-0.1984732824427481,0.007633587786259542,-1.2061068702290076
10.19,0.0439453125,-0.986083984375,0.093017578125,-0.25190839694656486,-0.21374045801526717,-1.251908396946565
10.2,0.038330078125,-1.000244140625,0.0859375,-0.5190839694656488,-0.08396946564885496,-1.4427480916030535
10.21,0.043212890625,-1.001953125,0.08203125,-0.5954198473282443,1.9312977099236641,-1.282442748091603
10.22,0.040771484375,-1.004150390625,0.089111328125,-0.7404580152671756,-0.15267175572519084,-1.3893129770992367
10.23,0.044921875,-1.001708984375,0.0849609375,-0.5190839694656488,-0.12213740458015267,-1.2671755725190839
10.24,0.05615234375,-1.005615234375,0.0869140625,-0.4961832061068702,0.0,-1.4198473282442747
10.25,0.03759765625,-1.0029296875,0.083251953125,-0.3511450381679389,-0.04580152671755725,-1.4885496183206106
10.26,0.035400390625,-1.004638671875,0.081787109375,-0.3816793893129771,-0.20610687022900764,-1.2900763358778626
10.27,0.045654296875,-1.0029296875,0.090087890625,-0.35877862595419846,-0.0916030534351145,-1.3587786259541985
10.28,0.042236328125,-1.00390625,0.081298828125,-0.7022900763358778,-0.2900763358778626,-1.3587786259541985
10.29,0.04443359375,-1.0029296875,0.0771484375,-0.6641221374045801,-0.10687022900763359,-1.3129770992366412
10.3,0.0341796875,-1.003173828125,0.0849609375,-0.5267175572519084,-0.13740458015267176,-1.3969465648854962
10.31,0.03369140625,-1.01025390625,0.0830078125,-0.22137404580152673,-0.08396946564885496,-1.2748091603053435
10.32,0.03515625,-1.009033203125,0.072021484375,-0.12213740458015267,0.061068702290076333,-1.4351145038167938
10.33,0.041748046875,-1.015625,0.075927734375,-0.40458015267175573,-0.0916030534351145,-1.4274809160305344
10.34,0.04541015625,-1.008544921875,0.06689453125,-0.32061068702290074,-1.9541984732824427,-1.3358778625954197
10.35,0.0458984375,-1.0029296875,0.08935546875,-0.6717557251908397,0.05343511450381679,-1.4885496183206106
10.36,0.042236328125,-1.001708984375,0.08251953125,-0.8396946564885496,-0.13740458015267176,-1.3129770992366412
10.37,0.04296875,-1.006591796875,0.084228515625,-0.6870229007633588,-1.8702290076335877,-1.3893129770992367
10.38,0.059814453125,-1.00537109375,0.074462890625,-0.4961832061068702,-0.16030534351145037,-1.3969465648854962
10.39,0.041259765625,-1.003662109375,0.0712890625,-0.48854961832061067,-0.16793893129770993,-1.3740458015267176
10.4,0.039794921875,-1.007568359375,0.080078125,-0.06870229007633588,0.08396946564885496,-1.5801526717557253
10.41,0.043212890625,-1.003662109375,0.077392578125,-0.24427480916030533,-0.1450381679389313,-1.3587786259541985
10.42,0.045654296875,-1.005615234375,0.079345703125,-0.2748091603053435,0.1984732824427481,-1.450381679389313
10.43,0.04443359375,-1.00537109375,0.07861328125,-0.48091603053435117,-0.20610687022900764,-1.5267175572519085
10.44,0.043212890625,-1.00830078125,0.0771484375,-0.7633587786259542,-0.11450381679389313,-1.3206106870229009
10.45,0.0439453125,-1.002685546875,0.071533203125,-0.6717557251908397,1.8549618320610688,-1.4885496183206106
10.46,0.043212890625,-1.007080078125,0.0791015625,-0.6030534351145038,-0.21374045801526717,-1.2442748091603053
10.47,0.03759765625,-1.005615234375,0.07373046875,-0.6335877862595419,-0.12213740458015267,-1.4580152671755726
10.48,0.04150390625,-1.005126953125,0.07958984375,-0.4580152671755725,-1.9389312977099236,-1.3969465648854962
10.49,0.041015625,-1.00390625,0.073974609375,-0.3816793893129771,0.03816793893129771,-1.3587786259541985
10.5,0.043212890625,-1.00634765625,0.080810546875,-0.45038167938931295,-0.030534351145038167,-1.450381679389313
10.51,0.04296875,-1.0009765625,0.081298828125,-0.5267175572519084,-0.16793893129770993,-1.534351145038168
10.52,0.041015625,-1.0,0.08056640625,-0.3053435114503817,-0.03816793893129771,-1.3053435114503817
10.53,0.045166015625,-1.00830078125,0.07763671875,-0.21374045801526717,-0.13740458015267176,-1.5648854961832062
10.54,0.04345703125,-1.0029296875,0.083984375,-0.45038167938931295,-1.9465648854961832,-1.4351145038167938
10.55,0.0419921875,-1.00390625,0.08349609375,-0.3435114503816794,-0.10687022900763359,-1.5267175572519085
10.56,0.046630859375,-1.005126953125,0.080078125,-0.3511450381679389,-0.11450381679389313,-1.3893129770992367
10.57,0.0400390625,-1.009521484375,0.080078125,-0.6870229007633588,-0.10687022900763359,-1.282442748091603
10.58,0.04345703125,-1.000244140625,0.084228515625,-0.6335877862595419,-0.022900763358778626,-1.4045801526717556
10.59,0.038330078125,-1.00439453125,0.07958984375,-0.5877862595419847,-0.22900763358778625,-1.4274809160305344
10.6,0.04541015625,-1.005126953125,0.093017578125,-0.6183206106870229,-0.2900763358778626,-1.3053435114503817
10.61,0.042724609375,-0.98779296875,0.07861328125,-0.6030534351145038,-0.10687022900763359,-1.251908396946565
10.62,0.036865234375,-0.998291015625,0.089599609375,-0.37404580152671757,0.08396946564885496,-1.534351145038168
10.63,0.035400390625,-1.004638671875,0.081298828125,-0.3435114503816794,-0.22137404580152673,-1.4427480916030535
10.64,0.041748046875,-1.00537109375,0.08447265625,-0.2824427480916031,-0.16793893129770993,-1.4885496183206106
10.65,0.041748046875,-0.99951171875,0.077392578125,-0.5190839694656488,-0.22137404580152673,-1.2442748091603053
10.66,0.04345703125,-1.001708984375,0.07763671875,-0.4961832061068702,-0.19083969465648856,-1.2442748091603053
10.67,0.05712890625,-0.985107421875,0.0634765625,-0.3893129770992366,-1.9312977099236641,-1.3206106870229009
10.68,0.046630859375,-1.00537109375,0.068603515625,-0.3511450381679389,0.030534351145038167,-1.4961832061068703
10.69,0.04248046875,-1.000244140625,0.0908203125,-0.24427480916030533,-0.1297709923664122,-1.3282442748091603
10.7,0.044921875,-1.0048828125,0.07275390625,-0.33587786259541985,-0.16793893129770993,-1.297709923664122
10.71,0.04052734375,-1.005126953125,0.079345703125,-0.4732824427480916,0.16793893129770993,-1.2671755725190839
10.72,0.040283203125,-1.00537109375,0.079833984375,-0.32061068702290074,0.06870229007633588,-1.3435114503816794
10.73,0.039306640625,-0.998291015625,0.081298828125,-0.5419847328244275,0.022900763358778626,-1.3358778625954197
10.74,0.041748046875,-1.00634765625,0.071533203125,-0.40458015267175573,-0.07633587786259542,-1.465648854961832
10.75,0.045654296875,-1.004638671875,0.080322265625,-0.48854961832061067,-0.09923664122137404,-1.4885496183206106
10.76,0.0419921875,-0.984619140625,0.08154296875,-0.3893129770992366,-1.9541984732824427,-1.366412213740458
10.77,0.04443359375,-1.006103515625,0.077880859375,-0.5038167938931297,-0.17557251908396945,-1.3282442748091603
10.78,0.04052734375,-1.005615234375,0.083984375,-0.3816793893129771,0.07633587786259542,-1.4809160305343512
10.79,0.04150390625,-1.00732421875,0.082763671875,-0.3282442748091603,-0.22137404580152673,-1.4885496183206106
10.8,0.04443359375,-1.0107421875,0.072021484375,-0.4732824427480916,-1.8778625954198473,-1.4198473282442747
10.81,0.039306640625,-1.00439453125,0.08447265625,-0.26717557251908397,-0.09923664122137404,-1.3511450381679388
10.82,0.042724609375,-0.986083984375,0.0830078125,-0.32061068702290074,-0.13740458015267176,-1.4122137404580153
10.83,0.04052734375,-1.004150390625,0.0791015625,-0.4580152671755725,-0.2595419847328244,-1.4580152671755726
10.84,0.044677734375,-1.001708984375,0.076416015625,-0.5267175572519084,0.09923664122137404,-1.3435114503816794
10.85,0.04736328125,-1.0078125,0.0712890625,-0.6412213740458015,-0.1297709923664122,-1.2671755725190839
10.86,0.045654296875,-1.0029296875,0.08056640625,-0.5114503816793893,-0.13740458015267176,-1.1221374045801527
10.87,0.044677734375,-1.00634765625,0.072265625,-0.5343511450381679,-0.06870229007633588,-1.2442748091603053
10.88,0.043212890625,-1.01318359375,0.089111328125,-0.4122137404580153,-0.1297709923664122,-1.3893129770992367
10.89,0.042236328125,-1.000732421875,0.07373046875,-0.44274809160305345,-0.1297709923664122,-1.5725190839694656
10.9,0.040283203125,-1.005615234375,0.086181640625,-0.366412213740458,1.9083969465648856,-1.381679389312977
10.91,0.0419921875,-1.00146484375,0.088623046875,-0.2824427480916031,0.030534351145038167,-1.4885496183206106
10.92,0.039306640625,-1.00244140625,0.08056640625,-0.40458015267175573,-0.07633587786259542,-1.6106870229007633
10.93,0.047119140625,-1.00146484375,0.076904296875,-0.10687022900763359,-0.07633587786259542,-1.450381679389313
10.94,0.0439453125,-1.0068359375,0.076904296875,-0.31297709923664124,-0.1297709923664122,-1.465648854961832
10.95,0.04345703125,-0.985107421875,0.0810546875,-0.5725190839694656,-0.17557251908396945,-1.4427480916030535
10.96,0.04248046875,-1.003173828125,0.0634765625,-0.5877862595419847,-0.2595419847328244,-1.2748091603053435
10.97,0.044921875,-1.00634765625,0.08544921875,-0.7862595419847328,-0.1297709923664122,-1.3282442748091603
10.98,0.039306640625,-0.998291015625,0.08251953125,-0.7938931297709924,0.007633587786259542,-1.381679389312977
10.99,0.041748046875,-1.00244140625,0.077880859375,-0.7404580152671756,-0.09923664122137404,-1.465648854961832
11.0,0.044189453125,-1.0009765625,0.0771484375,-0.1984732824427481,-0.03816793893129771,-1.3129770992366412
11.01,0.04541015625,-1.00146484375,0.079345703125,-0.29770992366412213,-0.21374045801526717,-1.5190839694656488
11.02,0.042724609375,-1.013916015625,0.084228515625,-0.1984732824427481,-0.22137404580152673,-1.4961832061068703
11.03,0.04248046875,-1.002197265625,0.083251953125,-0.3816793893129771,-1.9541984732824427,-1.4351145038167938
