Time(s),AccX,AccY,AccZ,GyrX,GyrY,GyrZ
0.0,0.111083984375,-0.998046875,0.213134765625,-1.8091603053435115,-0.16030534351145037,-0.2595419847328244
0.01,0.12744140625,-0.986328125,0.21728515625,-1.8396946564885497,0.11450381679389313,-0.46564885496183206
0.02,0.122802734375,-1.000732421875,0.209716796875,-1.5954198473282444,0.061068702290076333,-0.4732824427480916
0.03,0.13134765625,-0.999755859375,0.204833984375,-1.702290076335878,0.0916030534351145,-0.6335877862595419
0.04,0.12353515625,-1.001708984375,0.208251953125,-1.7099236641221374,0.2900763358778626,-0.7404580152671756
0.05,0.130615234375,-1.003662109375,0.210205078125,-1.2748091603053435,0.2748091603053435,-0.8931297709923665
0.06,0.128662109375,-1.010986328125,0.201416015625,-0.9465648854961832,0.1984732824427481,-1.0305343511450382
0.07,0.113525390625,-1.009765625,0.209228515625,-1.381679389312977,0.33587786259541985,-1.3587786259541985
0.08,0.115234375,-1.0009765625,0.199462890625,-0.8015267175572519,0.45038167938931295,-1.5190839694656488
0.09,0.118896484375,-1.00048828125,0.20556640625,-0.7251908396946565,0.29770992366412213,-1.2900763358778626
0.1,0.113037109375,-0.993896484375,0.2158203125,-0.9694656488549618,0.16793893129770993,-1.2748091603053435
0.11,0.111083984375,-1.0029296875,0.206787109375,-0.8320610687022901,-0.015267175572519083,-1.3206106870229009
0.12,0.111328125,-0.998779296875,0.212890625,-0.5190839694656488,-0.16793893129770993,-1.3511450381679388
0.13,0.11767578125,-0.99365234375,0.213134765625,-0.8396946564885496,-0.16030534351145037,-1.1297709923664123
0.14,0.1201171875,-0.99560546875,0.21630859375,-0.9389312977099237,-0.3435114503816794,-1.0610687022900764
0.15,0.119873046875,-1.01513671875,0.2333984375,-0.9770992366412213,-0.3969465648854962,-0.8854961832061069
0.16,0.118408203125,-0.985595703125,0.203369140625,-1.0610687022900764,-0.17557251908396945,-1.0381679389312977
0.17,0.11376953125,-1.000244140625,0.20751953125,-0.6412213740458015,-0.10687022900763359,-1.1908396946564885
0.18,0.11572265625,-0.9990234375,0.2109375,-0.5190839694656488,1.9389312977099236,-1.083969465648855
0.19,0.118896484375,-1.004150390625,0.215087890625,-0.1984732824427481,-0.4351145038167939,-0.9389312977099237
0.2,0.122314453125,-0.996337890625,0.21142578125,-0.11450381679389313,-0.2900763358778626,-1.1297709923664123
0.21,0.123291015625,-0.9970703125,0.2080078125,-0.33587786259541985,-0.7022900763358778,-0.9847328244274809
0.22,0.12109375,-0.99169921875,0.212646484375,-0.183206106870229,-0.5877862595419847,-1.0
0.23,0.1220703125,-0.991455078125,0.206298828125,-0.5190839694656488,-0.6717557251908397,-1.0305343511450382
0.24,0.1201171875,-0.99462890625,0.2080078125,-0.7022900763358778,-0.8396946564885496,-0.8473282442748091
0.25,0.117431640625,-1.0029296875,0.203857421875,-0.6564885496183206,-0.6106870229007634,-0.8854961832061069
0.26,0.125732421875,-0.995849609375,0.202392578125,-1.0305343511450382,-0.48854961832061067,-0.9618320610687023
0.27,0.118408203125,-0.996826171875,0.21142578125,-1.0381679389312977,-0.5267175572519084,-0.8931297709923665
0.28,0.11962890625,-0.985595703125,0.210693359375,-1.0076335877862594,-0.4732824427480916,-0.7862595419847328
0.29,0.115234375,-0.998291015625,0.215576171875,-1.2290076335877862,-0.8320610687022901,-0.9007633587786259
0.3,0.111083984375,-1.005126953125,0.213134765625,-1.0534351145038168,-0.8549618320610687,-0.8702290076335878
0.31,0.108154296875,-1.00439453125,0.208740234375,-1.0229007633587786,-1.0076335877862594,-1.183206106870229
0.32,0.107177734375,-0.999267578125,0.2109375,-0.6106870229007634,-1.213740458015267,-1.0534351145038168
0.33,0.11279296875,-1.001708984375,0.209228515625,-0.4351145038167939,-1.297709923664122,-1.1221374045801527
0.34,0.11376953125,-0.9970703125,0.2177734375,-0.0916030534351145,-1.3511450381679388,-1.3053435114503817
0.35,0.099365234375,-0.99658203125,0.22021484375,0.007633587786259542,-1.8549618320610688,-1.3435114503816794
0.36,0.116943359375,-0.993896484375,0.219482421875,-0.030534351145038167,-1.7557251908396947,-1.3129770992366412
0.37,0.11669921875,-0.991455078125,0.23291015625,-0.2748091603053435,-1.8015267175572518,-1.5801526717557253
0.38,0.11328125,-0.99169921875,0.221923828125,-0.5038167938931297,-1.8778625954198473,-1.549618320610687
0.39,0.1142578125,-0.9951171875,0.212890625,-0.4351145038167939,-2.198473282442748,-1.816793893129771
0.4,0.128662109375,-0.9951171875,0.220947265625,-0.48854961832061067,-2.2900763358778624,-2.099236641221374
0.41,0.120849609375,-0.993896484375,0.21435546875,-0.3816793893129771,-2.3740458015267176,-2.1297709923664123
0.42,0.111572265625,-1.0009765625,0.22509765625,-0.48854961832061067,-2.8396946564885495,-2.015267175572519
0.43,0.11083984375,-1.015380859375,0.2236328125,-0.40458015267175573,-3.114503816793893,-2.114503816793893
0.44,0.109375,-0.988525390625,0.228515625,-0.2900763358778626,-2.9083969465648853,-2.3435114503816794
0.45,0.122314453125,-1.01416015625,0.220703125,0.25190839694656486,-3.0229007633587788,-2.4885496183206106
0.46,0.11962890625,-1.005126953125,0.239501953125,0.007633587786259542,-3.427480916030534,-2.877862595419847
0.47,0.128662109375,-1.0009765625,0.22705078125,0.9083969465648855,-3.801526717557252,-2.8625954198473282
0.48,0.1337890625,-0.999755859375,0.2236328125,1.8931297709923665,-4.633587786259542,-2.885496183206107
0.49,0.13720703125,-0.991943359375,0.226318359375,1.4122137404580153,-4.2748091603053435,-3.0610687022900764
0.5,0.138916015625,-0.9853515625,0.22119140625,0.6564885496183206,-4.473282442748092,-3.564885496183206
0.51,0.142822265625,-0.993896484375,0.230712890625,1.5038167938931297,-4.5038167938931295,-3.687022900763359
0.52,0.140380859375,-0.992919921875,0.222900390625,1.3511450381679388,-4.152671755725191,-3.8702290076335877
0.53,0.127197265625,-0.986328125,0.2255859375,0.9847328244274809,-4.526717557251908,-3.885496183206107
0.54,0.129638671875,-0.9892578125,0.224609375,0.4122137404580153,-4.488549618320611,-3.648854961832061
0.55,0.11865234375,-0.990234375,0.22021484375,0.3816793893129771,-4.557251908396947,-3.3435114503816794
0.56,0.112548828125,-0.99365234375,0.222900390625,0.8549618320610687,-4.99236641221374,-2.816793893129771
0.57,0.13720703125,-0.99951171875,0.224365234375,0.9312977099236641,-4.908396946564886,-2.114503816793893
0.58,0.12451171875,-0.990478515625,0.21435546875,0.3511450381679389,-4.740458015267175,-1.5419847328244274
0.59,0.129638671875,-0.989501953125,0.211181640625,1.1526717557251909,-4.488549618320611,-0.8931297709923665
0.6,0.136962890625,-0.98486328125,0.23095703125,0.9541984732824428,-4.251908396946565,-0.31297709923664124
0.61,0.13623046875,-0.98046875,0.21728515625,0.4732824427480916,-3.1297709923664123,1.9465648854961832
0.62,0.142578125,-0.982666015625,0.216552734375,0.4198473282442748,-2.9160305343511452,0.2748091603053435
0.63,0.14208984375,-0.9912109375,0.2177734375,0.33587786259541985,-2.0839694656488548,0.5343511450381679
0.64,0.144775390625,-0.99609375,0.22265625,-0.13740458015267176,-2.1297709923664123,0.6259541984732825
0.65,0.1552734375,-0.992919921875,0.211669921875,0.4580152671755725,-2.3435114503816794,0.8091603053435115
0.66,0.14404296875,-0.994140625,0.233642578125,0.6030534351145038,-1.9083969465648856,0.7862595419847328
0.67,0.144287109375,-0.9990234375,0.220458984375,0.0,-0.007633587786259542,0.7175572519083969
0.68,0.131591796875,-0.9970703125,0.22314453125,1.9389312977099236,-1.6946564885496183,0.9236641221374046
0.69,0.123046875,-0.9990234375,0.217529296875,-0.3053435114503817,-1.8244274809160306,1.099236641221374
0.7,0.124755859375,-1.001220703125,0.215576171875,-0.7175572519083969,-1.6106870229007633,1.3358778625954197
0.71,0.12060546875,-1.00244140625,0.226806640625,-0.6030534351145038,-1.7633587786259541,1.3893129770992367
0.72,0.135498046875,-0.99755859375,0.21826171875,-0.37404580152671757,-1.8854961832061068,1.549618320610687
0.73,0.12060546875,-1.004150390625,0.220703125,-1.9465648854961832,-1.5877862595419847,3.885496183206107
0.74,0.1259765625,-0.999267578125,0.218017578125,0.07633587786259542,-1.7251908396946565,2.282442748091603
0.75,0.12255859375,-0.99951171875,0.207275390625,0.15267175572519084,-1.6030534351145038,2.4732824427480917
0.76,0.124267578125,-0.990478515625,0.2216796875,0.22137404580152673,-1.3282442748091603,2.3435114503816794
0.77,0.123291015625,-0.986083984375,0.2255859375,-0.183206106870229,-1.618320610687023,2.183206106870229
0.78,0.128173828125,-0.990966796875,0.222900390625,-0.8091603053435115,-1.786259541984733,1.7938931297709924
0.79,0.128173828125,-0.9833984375,0.225830078125,-0.7786259541984732,-1.8015267175572518,1.4580152671755726
0.8,0.129150390625,-0.9990234375,0.212890625,-1.0229007633587786,-1.8625954198473282,1.0305343511450382
0.81,0.12890625,-0.982666015625,0.222900390625,-1.015267175572519,-1.7938931297709924,0.8015267175572519
0.82,0.128662109375,-0.998046875,0.211181640625,-0.9007633587786259,-1.5648854961832062,0.48091603053435117
0.83,0.134033203125,-0.99072265625,0.2236328125,-0.7099236641221374,-1.2900763358778626,0.24427480916030533
0.84,0.125244140625,-0.9970703125,0.22607421875,-0.648854961832061,-0.6564885496183206,0.015267175572519083
0.85,0.138427734375,-1.014892578125,0.21435546875,-0.5648854961832062,-0.4580152671755725,-0.31297709923664124
0.86,0.12646484375,-0.9931640625,0.2119140625,-0.5038167938931297,-0.1297709923664122,-0.24427480916030533
0.87,0.1298828125,-0.98974609375,0.229736328125,-0.9083969465648855,0.22900763358778625,-0.16793893129770993
0.88,0.127197265625,-0.985595703125,0.212890625,-1.1221374045801527,0.48091603053435117,-0.33587786259541985
0.89,0.12646484375,-0.980224609375,0.23388671875,-1.4809160305343512,0.916030534351145,-0.33587786259541985
0.9,0.121826171875,-0.9853515625,0.216552734375,-1.5954198473282444,1.4274809160305344,-0.24427480916030533
0.91,0.124267578125,-0.988037109375,0.223876953125,-1.7404580152671756,1.5114503816793894,-0.13740458015267176
0.92,0.1240234375,-0.989990234375,0.220947265625,-1.9083969465648856,1.450381679389313,-0.20610687022900764
0.93,0.124267578125,-0.995361328125,0.215087890625,-2.0916030534351147,1.2671755725190839,-0.29770992366412213
0.94,0.115478515625,-0.985107421875,0.221435546875,-1.8091603053435115,1.213740458015267,-0.5038167938931297
0.95,0.137939453125,-1.0146484375,0.23291015625,-1.702290076335878,1.0610687022900764,-0.5267175572519084
0.96,0.121337890625,-1.00390625,0.22021484375,-1.5419847328244274,0.9236641221374046,-0.7099236641221374
0.97,0.114013671875,-0.999755859375,0.227783203125,-1.4580152671755726,1.0610687022900764,-0.732824427480916
0.98,0.115966796875,-0.996337890625,0.225341796875,-1.3053435114503817,1.366412213740458,-0.7633587786259542
0.99,0.11279296875,-0.9970703125,0.21875,-1.534351145038168,0.9389312977099237,-0.6030534351145038
1.0,0.11474609375,-0.993896484375,0.220458984375,-1.4809160305343512,0.9618320610687023,-0.6793893129770993
1.01,0.113037109375,-0.999755859375,0.241943359375,-3.0839694656488548,0.7786259541984732,-0.6870229007633588
1.02,0.1201171875,-0.99462890625,0.220458984375,-1.6412213740458015,1.0534351145038168,-0.8702290076335878
1.03,0.121337890625,-0.996337890625,0.2060546875,-0.0916030534351145,-0.25190839694656486,-0.6106870229007634
1.04,0.110595703125,-0.9892578125,0.221435546875,-0.4122137404580153,0.8854961832061069,-0.6259541984732825
1.05,0.11083984375,-0.99755859375,0.23046875,-1.16793893129771,0.3282442748091603,-0.549618320610687
1.06,0.11083984375,-0.9853515625,0.230224609375,-0.9083969465648855,0.6641221374045801,-0.6030534351145038
1.07,0.11279296875,-0.9931640625,0.2255859375,-1.0,0.7251908396946565,-0.4732824427480916
1.08,0.111572265625,-0.990966796875,0.22265625,-1.0381679389312977,0.29770992366412213,-0.46564885496183206
1.09,0.114013671875,-0.991943359375,0.231201171875,-1.1297709923664123,0.2595419847328244,-0.9694656488549618
1.1,0.11376953125,-0.997314453125,0.225341796875,-1.6870229007633588,0.549618320610687,-0.9007633587786259
1.11,0.114013671875,-0.994384765625,0.2314453125,-1.8015267175572518,1.9389312977099236,-0.8778625954198473
1.12,0.112548828125,-1.0146484375,0.217529296875,-1.5725190839694656,-0.31297709923664124,-1.015267175572519
1.13,0.11376953125,-0.993408203125,0.22216796875,-1.4045801526717556,-0.3282442748091603,-0.9694656488549618
1.14,0.115966796875,-0.99609375,0.228759765625,-1.450381679389313,-0.20610687022900764,-1.0916030534351144
1.15,0.119873046875,-0.994873046875,0.2275390625,-1.748091603053435,-0.42748091603053434,-1.251908396946565
1.16,0.1142578125,-0.99462890625,0.228759765625,-1.1984732824427482,-0.37404580152671757,-1.3282442748091603
1.17,0.1162109375,-0.9951171875,0.218017578125,-1.083969465648855,-0.4732824427480916,-1.4045801526717556
1.18,0.11474609375,-0.995361328125,0.217529296875,-0.9923664122137404,-0.3511450381679389,-1.450381679389313
1.19,0.12060546875,-0.98876953125,0.216064453125,-1.0076335877862594,-0.4961832061068702,-1.3969465648854962
1.2,0.117919921875,-0.989501953125,0.2138671875,-0.9770992366412213,-0.09923664122137404,-1.4198473282442747
1.21,0.122314453125,-0.99462890625,0.2158203125,-0.9694656488549618,-0.03816793893129771,-1.3129770992366412
1.22,0.11865234375,-0.995361328125,0.22216796875,-1.3740458015267176,0.31297709923664124,-1.3893129770992367
1.23,0.115234375,-1.015625,0.22509765625,-1.3358778625954197,0.45038167938931295,-1.2671755725190839
1.24,0.12060546875,-0.995361328125,0.222412109375,-1.2442748091603053,0.32061068702290074,-1.381679389312977
1.25,0.12255859375,-0.99560546875,0.2060546875,-1.4427480916030535,0.40458015267175573,-1.5190839694656488
1.26,0.11083984375,-1.0009765625,0.229736328125,-1.5648854961832062,0.3511450381679389,-1.6564885496183206
1.27,0.11328125,-1.000244140625,0.23095703125,-1.3511450381679388,0.17557251908396945,-1.6946564885496183
1.28,0.119140625,-0.99072265625,0.22021484375,-1.6259541984732824,0.1984732824427481,-1.618320610687023
1.29,0.11572265625,-0.992431640625,0.21826171875,-3.900763358778626,0.4580152671755725,-1.6946564885496183
1.3,0.123779296875,-0.99169921875,0.21923828125,-2.0,0.3282442748091603,-1.6870229007633588
1.31,0.117431640625,-0.990478515625,0.205322265625,-2.1374045801526718,0.04580152671755725,-1.5572519083969465
1.32,0.11328125,-0.99365234375,0.221435546875,-3.9083969465648853,0.16030534351145037,-1.4198473282442747
1.33,0.107177734375,-0.995849609375,0.20654296875,-2.145038167938931,-1.9541984732824427,-1.4580152671755726
1.34,0.1064453125,-1.0029296875,0.219970703125,-2.2061068702290076,-0.20610687022900764,-1.2366412213740459
1.35,0.11572265625,-0.995361328125,0.22607421875,-2.3893129770992365,-0.24427480916030533,-1.282442748091603
1.36,0.111083984375,-0.989501953125,0.222900390625,-2.0610687022900764,-0.5954198473282443,-1.1374045801526718
1.37,0.097412109375,-0.99609375,0.223876953125,-1.7786259541984732,-0.7709923664122137,-1.0916030534351144
1.38,0.1220703125,-0.994140625,0.22607421875,-0.48091603053435117,2.480916030534351,-1.0381679389312977
1.39,0.07861328125,-0.984375,0.235107421875,-3.0,-2.6793893129770994,-1.4732824427480915
1.4,0.12451171875,-1.002685546875,0.207763671875,-1.3358778625954197,0.4580152671755725,-1.381679389312977
1.41,0.111328125,-0.98974609375,0.219482421875,-1.2671755725190839,0.15267175572519084,-1.633587786259542
1.42,0.125,-0.991943359375,0.23681640625,-1.2900763358778626,7.404580152671755,-1.2366412213740459
1.43,0.097412109375,-0.984375,0.21435546875,-1.6641221374045803,-2.633587786259542,-1.748091603053435
1.44,0.12548828125,-0.993896484375,0.22412109375,-3.8473282442748094,-1.4885496183206106,-1.6870229007633588
1.45,0.120849609375,-0.989501953125,0.21728515625,-0.5267175572519084,-2.0839694656488548,-1.5648854961832062
1.46,0.124267578125,-1.00732421875,0.226318359375,-0.7709923664122137,-1.7709923664122138,-1.4809160305343512
1.47,0.11865234375,-1.006103515625,0.221923828125,-0.6946564885496184,-1.6259541984732824,-1.1755725190839694
1.48,0.111572265625,-1.009033203125,0.21337890625,-0.4198473282442748,-2.015267175572519,-1.1984732824427482
1.49,0.11865234375,-1.00244140625,0.214599609375,-0.2900763358778626,-1.7328244274809161,-0.8320610687022901
1.5,0.12646484375,-0.994873046875,0.218505859375,-0.5190839694656488,-1.9465648854961832,-0.5267175572519084
1.51,0.1220703125,-0.999755859375,0.2197265625,-0.5954198473282443,-1.2748091603053435,-0.5954198473282443
1.52,0.124755859375,-0.9931640625,0.212890625,-0.5572519083969466,-1.213740458015267,-0.3969465648854962
1.53,0.13037109375,-0.9990234375,0.206787109375,-0.7557251908396947,-0.6717557251908397,-0.4732824427480916
1.54,0.112060546875,-0.9931640625,0.218505859375,-1.2748091603053435,-1.1984732824427482,-0.5343511450381679
1.55,0.12353515625,-0.994384765625,0.222900390625,-1.2366412213740459,-0.8091603053435115,-0.7099236641221374
1.56,0.110595703125,-0.995361328125,0.228759765625,-1.2213740458015268,-1.0458015267175573,-0.7557251908396947
1.57,0.119873046875,-0.991943359375,0.220703125,-0.8320610687022901,-0.8091603053435115,-0.9923664122137404
1.58,0.117431640625,-0.99609375,0.224609375,-1.4580152671755726,-0.9618320610687023,-1.2061068702290076
1.59,0.11279296875,-1.001953125,0.213134765625,-1.465648854961832,-1.213740458015267,-1.450381679389313
1.6,0.114013671875,-1.006103515625,0.219482421875,-1.015267175572519,-1.6030534351145038,-1.3969465648854962
1.61,0.11669921875,-1.01220703125,0.225341796875,-1.015267175572519,-1.7251908396946565,-1.633587786259542
1.62,0.119873046875,-0.985595703125,0.22314453125,-0.6183206106870229,-1.900763358778626,-1.618320610687023
1.63,0.10888671875,-0.999755859375,0.230712890625,-0.030534351145038167,-2.4427480916030535,-1.6412213740458015
1.64,0.1083984375,-1.004150390625,0.21875,0.17557251908396945,-2.717557251908397,-1.3893129770992367
1.65,0.107421875,-0.993408203125,0.219970703125,0.48091603053435117,-3.2213740458015265,-1.1984732824427482
1.66,0.110107421875,-0.99267578125,0.2255859375,0.8320610687022901,-3.717557251908397,-0.9236641221374046
1.67,0.113525390625,-0.989501953125,0.2275390625,0.6106870229007634,-3.8244274809160306,-0.8931297709923665
1.68,0.115478515625,-0.993408203125,0.21728515625,0.46564885496183206,-3.8702290076335877,-0.33587786259541985
1.69,0.138916015625,-0.992919921875,0.203125,0.3816793893129771,-5.862595419847328,-0.33587786259541985
1.7,0.12451171875,-0.969970703125,0.225830078125,0.0916030534351145,-3.3893129770992365,-0.3435114503816794
1.71,0.12744140625,-0.9814453125,0.22509765625,-0.8931297709923665,-3.145038167938931,-0.1450381679389313
1.72,0.1220703125,-0.982666015625,0.224609375,-0.648854961832061,-3.0610687022900764,-0.29770992366412213
1.73,0.11669921875,-0.98486328125,0.2197265625,-1.1984732824427482,-3.122137404580153,-0.44274809160305345
1.74,0.1142578125,-0.993408203125,0.219970703125,-1.3740458015267176,-3.3435114503816794,-0.40458015267175573
1.75,0.11474609375,-1.00390625,0.2197265625,-0.7862595419847328,-3.3740458015267176,-0.3282442748091603
1.76,0.1181640625,-1.001953125,0.22021484375,-0.09923664122137404,-3.145038167938931,0.0916030534351145
1.77,0.123046875,-1.01708984375,0.218994140625,0.366412213740458,-3.0763358778625953,0.24427480916030533
1.78,0.119140625,-1.01171875,0.226318359375,0.8473282442748091,-2.5419847328244276,0.45038167938931295
1.79,0.1103515625,-1.005126953125,0.2236328125,1.0381679389312977,-2.5267175572519083,0.6717557251908397
1.8,0.11328125,-1.0009765625,0.216064453125,1.083969465648855,-2.2748091603053435,0.7862595419847328
1.81,0.12060546875,-0.9931640625,0.2138671875,0.8473282442748091,-2.5343511450381677,0.9083969465648855
1.82,0.11279296875,-0.98193359375,0.219482421875,1.9465648854961832,-2.6106870229007635,0.8931297709923665
1.83,0.11474609375,-0.993408203125,0.21240234375,-0.7557251908396947,-2.351145038167939,0.8549618320610687
1.84,0.117919921875,-0.99365234375,0.2080078125,-0.916030534351145,-2.435114503816794,0.6946564885496184
1.85,0.114990234375,-0.993408203125,0.20458984375,-0.549618320610687,-2.3282442748091605,0.5572519083969466
1.86,0.114990234375,-0.98583984375,0.216796875,-0.7557251908396947,-2.2595419847328246,0.37404580152671757
1.87,0.12060546875,-0.990234375,0.2197265625,-0.9389312977099237,-2.366412213740458,0.2366412213740458
1.88,0.1142578125,-0.9873046875,0.2236328125,-1.1908396946564885,-2.3740458015267176,0.022900763358778626
1.89,0.115478515625,-0.990966796875,0.21435546875,-1.213740458015267,-2.4580152671755724,-0.3282442748091603
1.9,0.115966796875,-0.986083984375,0.212890625,-1.2290076335877862,-2.687022900763359,-0.40458015267175573
1.91,0.117431640625,-0.996337890625,0.225341796875,-1.083969465648855,-2.687022900763359,-0.26717557251908397
1.92,0.11474609375,-0.995361328125,0.220703125,-1.183206106870229,-2.4198473282442747,-0.6335877862595419
1.93,0.12109375,-0.994384765625,0.21630859375,-0.9694656488549618,-2.213740458015267,-0.7709923664122137
1.94,0.119873046875,-0.987548828125,0.2197265625,-1.1374045801526718,-1.9389312977099236,-1.0076335877862594
1.95,0.11962890625,-0.994873046875,0.21240234375,-1.5114503816793894,-1.618320610687023,-0.8549618320610687
1.96,0.120849609375,-0.997314453125,0.226806640625,-1.6488549618320612,-1.3358778625954197,-1.0076335877862594
1.97,0.11474609375,-0.99951171875,0.2236328125,-1.8091603053435115,-1.1984732824427482,-0.8854961832061069
1.98,0.11376953125,-0.998291015625,0.21875,-1.7251908396946565,-0.9541984732824428,-0.8320610687022901
1.99,0.116455078125,-1.005615234375,0.211669921875,-1.2671755725190839,-0.6412213740458015,-0.7022900763358778
2.0,0.119384765625,-1.015625,0.214599609375,-0.9236641221374046,-0.5801526717557252,-0.9007633587786259
2.01,0.115966796875,-0.996826171875,0.219482421875,-0.8702290076335878,-0.3969465648854962,-0.8778625954198473
2.02,0.116455078125,-1.004638671875,0.21875,-0.6183206106870229,-0.17557251908396945,-1.1221374045801527
2.03,0.11474609375,-0.9990234375,0.22021484375,-0.3816793893129771,0.22137404580152673,-1.1526717557251909
2.04,0.111572265625,-0.99755859375,0.2275390625,-0.19083969465648856,0.5648854961832062,-1.4351145038167938
2.05,0.11328125,-1.0029296875,0.216796875,-0.3511450381679389,0.7480916030534351,-1.2442748091603053
2.06,0.10986328125,-0.996337890625,0.224365234375,-0.26717557251908397,0.8091603053435115,-1.4122137404580153
2.07,0.107177734375,-0.996337890625,0.22412109375,-0.24427480916030533,0.916030534351145,-1.5190839694656488
2.08,0.104248046875,-1.01171875,0.223876953125,-1.9083969465648856,0.6641221374045801,-1.549618320610687
2.09,0.09912109375,-0.99560546875,0.22607421875,0.31297709923664124,0.5877862595419847,-1.366412213740458
2.1,0.0986328125,-0.98388671875,0.2314453125,-0.6183206106870229,-0.12213740458015267,-1.618320610687023
2.11,0.0927734375,-0.998779296875,0.22802734375,-0.22137404580152673,-0.8702290076335878,-1.7709923664122138
2.12,0.10400390625,-0.99658203125,0.231689453125,0.3282442748091603,-1.1526717557251909,-0.007633587786259542
2.13,0.102783203125,-0.99951171875,0.237060546875,0.46564885496183206,-1.4732824427480915,-2.2213740458015265
2.14,0.091064453125,-1.005126953125,0.225341796875,0.44274809160305345,-2.2061068702290076,-2.1755725190839694
2.15,0.09521484375,-1.023681640625,0.22021484375,1.282442748091603,-3.1374045801526718,-2.33587786259542
2.16,0.0908203125,-1.031494140625,0.226806640625,2.427480916030534,-4.068702290076335,-2.50381679389313
2.17,0.094482421875,-1.046875,0.242431640625,4.259541984732825,-5.091603053435114,-2.3053435114503817
2.18,0.083251953125,-1.054931640625,0.260498046875,5.977099236641221,-6.442748091603053,-1.8854961832061068
2.19,0.087890625,-1.05712890625,0.289794921875,7.541984732824427,-7.908396946564886,-1.450381679389313
2.2,0.087646484375,-1.06005859375,0.302490234375,9.122137404580153,-9.488549618320612,-0.7480916030534351
2.21,0.103515625,-1.04736328125,0.311767578125,10.763358778625955,-10.572519083969466,-0.3511450381679389
2.22,0.103271484375,-1.04296875,0.2978515625,11.923664122137405,-9.86259541984733,-0.12213740458015267
2.23,0.100341796875,-1.03076171875,0.26806640625,12.305343511450381,-9.954198473282442,0.7938931297709924
2.24,0.10791015625,-1.01513671875,0.260009765625,11.648854961832061,-9.038167938931299,2.114503816793893
2.25,0.137939453125,-1.005615234375,0.279052734375,9.465648854961833,-7.816793893129771,2.0076335877862594
2.26,0.16162109375,-0.99755859375,0.307373046875,5.6106870229007635,-4.740458015267175,6.0458015267175576
2.27,0.17333984375,-0.998291015625,0.311279296875,1.6488549618320612,-0.4580152671755725,7.633587786259542
2.28,0.1533203125,-0.976318359375,0.27880859375,-0.7633587786259542,3.3053435114503817,8.251908396946565
2.29,0.091064453125,-0.93115234375,0.224365234375,-1.748091603053435,4.114503816793893,7.6183206106870225
2.3,0.004638671875,-0.863037109375,0.161376953125,-3.099236641221374,0.6412213740458015,4.900763358778626
2.31,-0.0703125,-0.80908203125,0.088623046875,-5.595419847328245,-7.1603053435114505,1.1374045801526718
2.32,-0.0830078125,-0.81103515625,0.07666015625,-8.15267175572519,1.465648854961832,-0.13740458015267176
2.33,-0.13623046875,-0.830078125,0.020263671875,-8.854961832061068,-17.022900763358777,-5.351145038167939
2.34,-0.08056640625,-0.875732421875,-0.005859375,-8.145038167938932,-30.580152671755727,-7.320610687022901
2.35,-0.001953125,-0.894287109375,0.015625,-7.091603053435114,-33.541984732824424,-4.67175572519084
2.36,0.0458984375,-0.9580078125,0.116455078125,-7.152671755725191,-33.83206106870229,0.2748091603053435
2.37,0.112548828125,-1.0732421875,0.23828125,-7.778625954198473,-30.38167938931298,4.312977099236641
2.38,0.1796875,-1.129638671875,0.332763671875,-6.450381679389313,-29.557251908396946,6.320610687022901
2.39,0.261474609375,-1.165771484375,0.388916015625,-6.480916030534351,-22.458015267175572,5.702290076335878
2.4,0.250244140625,-1.149658203125,0.3896484375,-4.206106870229007,-17.198473282442748,4.267175572519084
2.41,0.21337890625,-1.120849609375,0.341552734375,-0.03816793893129771,-14.564885496183207,1.6793893129770991
2.42,0.1630859375,-1.0595703125,0.287841796875,2.763358778625954,-12.938931297709924,-1.5954198473282444
2.43,0.09619140625,-1.0126953125,0.24560546875,4.152671755725191,-10.969465648854962,-4.793893129770993
2.44,0.080810546875,-0.973876953125,0.220458984375,6.801526717557252,-3.6259541984732824,-6.694656488549619
2.45,0.0458984375,-0.9521484375,0.203125,6.396946564885496,-11.65648854961832,-8.908396946564885
2.46,0.072998046875,-0.919921875,0.157470703125,4.99236641221374,-8.366412213740459,-9.732824427480915
2.47,0.073974609375,-0.940185546875,0.16845703125,3.5801526717557253,-16.236641221374047,-10.297709923664122
2.48,0.1103515625,-0.943115234375,0.18359375,3.2595419847328246,-19.442748091603054,-10.045801526717558
2.49,0.13232421875,-0.959716796875,0.2041015625,1.7633587786259541,-19.870229007633586,-9.274809160305344
2.5,0.178955078125,-0.994873046875,0.246826171875,0.9694656488549618,-19.022900763358777,-8.076335877862595
2.51,0.193603515625,-1.00439453125,0.251953125,-0.2366412213740458,-17.221374045801525,-6.984732824427481
2.52,0.174560546875,-1.008544921875,0.252197265625,0.3816793893129771,-13.709923664122137,-5.6183206106870225
2.53,0.14453125,-0.993896484375,0.25634765625,1.282442748091603,-10.732824427480915,-4.290076335877862
2.54,0.106689453125,-0.97119140625,0.2607421875,2.595419847328244,-10.725190839694656,-2.9923664122137406
2.55,0.09716796875,-0.95849609375,0.25537109375,3.0610687022900764,-12.251908396946565,-1.786259541984733
2.56,0.109619140625,-0.958984375,0.23681640625,2.351145038167939,-13.351145038167939,-0.16793893129770993
2.57,0.122802734375,-1.00048828125,0.210693359375,3.8931297709923665,-13.442748091603054,1.7938931297709924
2.58,0.1328125,-1.01416015625,0.2265625,0.3893129770992366,-13.267175572519085,4.7251908396946565
2.59,0.176025390625,-1.01806640625,0.222900390625,-2.2061068702290076,-10.297709923664122,7.251908396946565
2.6,0.2099609375,-1.024169921875,0.22705078125,-4.297709923664122,-7.297709923664122,8.450381679389313
2.61,0.219482421875,-1.019287109375,0.2099609375,-4.809160305343512,-4.106870229007634,7.6106870229007635
2.62,0.195556640625,-1.018798828125,0.21240234375,-4.206106870229007,-4.572519083969466,5.511450381679389
2.63,0.175537109375,-0.98095703125,0.201171875,-5.083969465648855,-3.9160305343511452,3.122137404580153
2.64,0.165771484375,-0.947265625,0.213134765625,-5.099236641221374,-4.9541984732824424,1.1908396946564885
2.65,0.154296875,-0.927490234375,0.208984375,-6.320610687022901,-6.427480916030534,0.10687022900763359
2.66,0.155517578125,-0.930908203125,0.199462890625,-6.748091603053435,-7.022900763358779,-0.648854961832061
2.67,0.160400390625,-0.93115234375,0.213134765625,-6.809160305343512,-6.4961832061068705,-1.2900763358778626
2.68,0.188232421875,-0.925048828125,0.216552734375,-6.969465648854962,-6.656488549618321,-2.0381679389312977
2.69,0.193359375,-0.981689453125,0.2333984375,-6.564885496183206,-5.473282442748092,-2.6946564885496183
2.7,0.19970703125,-1.017578125,0.22705078125,-4.732824427480916,-5.022900763358779,-2.435114503816794
2.71,0.20654296875,-1.0322265625,0.232421875,-2.519083969465649,-6.175572519083969,-1.748091603053435
2.72,0.20849609375,-1.02734375,0.232421875,-1.2595419847328244,-5.068702290076335,-1.3206106870229009
2.73,0.219970703125,-1.012939453125,0.25390625,-2.5114503816793894,0.26717557251908397,-1.786259541984733
2.74,0.19140625,-0.989501953125,0.22998046875,-3.0763358778625953,0.8931297709923665,-2.7557251908396947
2.75,0.17529296875,-0.957763671875,0.19140625,-2.8702290076335877,0.030534351145038167,-3.618320610687023
2.76,0.1630859375,-0.9521484375,0.1865234375,-3.633587786259542,0.7022900763358778,-4.374045801526718
2.77,0.1416015625,-0.942626953125,0.206298828125,-6.938931297709924,0.3053435114503817,-5.091603053435114
2.78,0.117919921875,-0.959228515625,0.210205078125,-8.778625954198473,-1.3206106870229009,-4.9541984732824424
2.79,0.122802734375,-0.982421875,0.2177734375,-8.992366412213741,-2.1297709923664123,-4.259541984732825
2.8,0.1279296875,-0.98681640625,0.23779296875,-9.396946564885496,-2.7404580152671754,-3.50381679389313
2.81,0.130126953125,-1.046142578125,0.236083984375,-8.16030534351145,-3.595419847328244,-2.7022900763358777
2.82,0.134765625,-1.048583984375,0.21923828125,-7.687022900763359,-3.6030534351145036,-1.8931297709923665
2.83,0.140869140625,-1.0244140625,0.245361328125,-4.717557251908397,-3.0839694656488548,-1.3511450381679388
2.84,0.14599609375,-1.019287109375,0.230224609375,-4.129770992366412,-2.33587786259542,-0.7862595419847328
2.85,0.145751953125,-0.991943359375,0.206787109375,-3.198473282442748,-2.2213740458015265,-0.3282442748091603
2.86,0.136474609375,-0.987548828125,0.1943359375,-3.519083969465649,-0.7022900763358778,-0.45038167938931295
2.87,0.12548828125,-0.9619140625,0.19384765625,-5.404580152671755,-1.4045801526717556,-0.7786259541984732
2.88,0.13427734375,-0.95703125,0.193603515625,-6.740458015267175,-1.702290076335878,-0.9847328244274809
2.89,0.13916015625,-0.953369140625,0.195068359375,-7.175572519083969,-1.786259541984733,-0.7862595419847328
2.9,0.14306640625,-0.970947265625,0.193603515625,-8.01526717557252,-1.6106870229007633,-0.8625954198473282
2.91,0.14208984375,-0.99462890625,0.211181640625,-7.908396946564886,-1.0381679389312977,-0.8091603053435115
2.92,0.144775390625,-1.008544921875,0.2158203125,-7.374045801526718,-0.015267175572519083,-0.5954198473282443
2.93,0.145751953125,-1.024658203125,0.207275390625,-7.129770992366412,0.33587786259541985,-0.4580152671755725
2.94,0.143798828125,-1.01953125,0.21240234375,-6.847328244274809,0.7480916030534351,-0.7404580152671756
2.95,0.143798828125,-1.02685546875,0.20751953125,-6.022900763358779,1.2748091603053435,-0.7557251908396947
2.96,0.15478515625,-1.015869140625,0.212890625,-5.374045801526718,1.1450381679389312,-0.8320610687022901
2.97,0.1259765625,-1.009033203125,0.209716796875,-4.9541984732824424,0.183206106870229,-0.9923664122137404
2.98,0.12548828125,-1.00341796875,0.21044921875,-4.717557251908397,1.9236641221374047,-0.9389312977099237
2.99,0.12939453125,-1.001220703125,0.20458984375,-4.076335877862595,-0.40458015267175573,-1.0763358778625953
3.0,0.12744140625,-0.99267578125,0.20849609375,-4.442748091603053,-0.8625954198473282,-1.0610687022900764
3.01,0.13671875,-0.993408203125,0.21630859375,-4.244274809160306,-0.7862595419847328,-1.099236641221374
3.02,0.134033203125,-1.00537109375,0.21142578125,-3.877862595419847,-1.4045801526717556,-0.6793893129770993
3.03,0.1376953125,-1.00341796875,0.2119140625,-3.9618320610687023,-1.083969465648855,-0.5267175572519084
3.04,0.147216796875,-1.005615234375,0.20654296875,-4.122137404580153,-0.2748091603053435,-0.26717557251908397
3.05,0.134521484375,-1.013671875,0.207275390625,-3.854961832061069,-0.05343511450381679,-0.4198473282442748
3.06,0.131103515625,-1.010009765625,0.201171875,-3.5801526717557253,-0.022900763358778626,-0.44274809160305345
3.07,0.126708984375,-1.00390625,0.20361328125,-3.3587786259541983,0.40458015267175573,-0.5267175572519084
3.08,0.12109375,-0.994384765625,0.201904296875,-3.2061068702290076,0.3816793893129771,-0.7022900763358778
3.09,0.121337890625,-0.99267578125,0.207275390625,-3.267175572519084,0.4122137404580153,-0.7633587786259542
3.1,0.12060546875,-0.973388671875,0.19384765625,-3.4656488549618323,0.2595419847328244,-0.8702290076335878
3.11,0.11474609375,-0.99365234375,0.199462890625,-3.404580152671756,0.7251908396946565,-0.8320610687022901
3.12,0.122314453125,-0.99609375,0.2109375,-3.198473282442748,1.0534351145038168,-0.5954198473282443
3.13,0.128662109375,-1.00048828125,0.19775390625,-3.2213740458015265,1.3511450381679388,-0.5725190839694656
3.14,0.13427734375,-1.00146484375,0.20263671875,-2.7251908396946565,1.6564885496183206,-0.1450381679389313
3.15,0.128662109375,-1.017578125,0.20849609375,-2.2213740458015265,1.4732824427480915,-0.3435114503816794
3.16,0.119384765625,-1.01953125,0.2138671875,-1.465648854961832,1.465648854961832,-0.3511450381679389
3.17,0.127685546875,-1.009033203125,0.205810546875,-0.8625954198473282,1.3206106870229009,-0.3282442748091603
3.18,0.122802734375,-1.015625,0.19677734375,-0.5038167938931297,1.4122137404580153,-0.22900763358778625
3.19,0.119384765625,-1.010986328125,0.189697265625,-0.6183206106870229,1.0229007633587786,0.03816793893129771
3.2,0.12109375,-0.99658203125,0.197998046875,-0.648854961832061,0.8549618320610687,0.3282442748091603
3.21,0.123046875,-0.994140625,0.194580078125,-1.2595419847328244,0.5190839694656488,0.5038167938931297
3.22,0.122314453125,-1.000244140625,0.1953125,-1.6488549618320612,0.8854961832061069,0.8320610687022901
3.23,0.120849609375,-1.001220703125,0.197998046875,-1.9465648854961832,0.5725190839694656,0.7022900763358778
3.24,0.11669921875,-1.00634765625,0.20556640625,-1.9236641221374047,1.1984732824427482,0.6335877862595419
3.25,0.115966796875,-1.001708984375,0.211669921875,-2.0,1.297709923664122,0.6793893129770993
3.26,0.11865234375,-1.00146484375,0.20703125,-1.702290076335878,1.8625954198473282,0.3435114503816794
3.27,0.119873046875,-0.9970703125,0.207275390625,-1.3129770992366412,1.7251908396946565,0.12213740458015267
3.28,0.1279296875,-1.005859375,0.198974609375,-1.251908396946565,1.7251908396946565,0.07633587786259542
3.29,0.124267578125,-0.990966796875,0.198486328125,-1.1221374045801527,1.6717557251908397,-0.08396946564885496
3.3,0.1298828125,-0.9931640625,0.1904296875,-1.2900763358778626,0.9389312977099237,-0.2900763358778626
3.31,0.126953125,-0.98876953125,0.19970703125,-0.916030534351145,2.1374045801526718,-0.6946564885496184
3.32,0.124267578125,-0.99072265625,0.19091796875,-1.4045801526717556,0.022900763358778626,-0.8931297709923665
3.33,0.114501953125,-0.997314453125,0.205078125,-1.5954198473282444,0.6030534351145038,-1.297709923664122
3.34,0.1181640625,-1.009521484375,0.19775390625,-0.9007633587786259,1.6717557251908397,-1.2290076335877862
3.35,0.114501953125,-1.001953125,0.2041015625,-0.6106870229007634,1.5725190839694656,-1.366412213740458
3.36,0.10595703125,-0.998779296875,0.21142578125,-1.1908396946564885,1.0458015267175573,-1.6412213740458015
3.37,0.116455078125,-1.00390625,0.2001953125,-1.2748091603053435,1.5877862595419847,-1.2366412213740459
3.38,0.11279296875,-0.9951171875,0.20654296875,-0.9312977099236641,1.816793893129771,-1.2061068702290076
3.39,0.107177734375,-1.01416015625,0.205078125,-0.8931297709923665,1.5954198473282444,-0.7709923664122137
3.4,0.1064453125,-0.995849609375,0.204833984375,-0.5648854961832062,1.1526717557251909,-0.648854961832061
3.41,0.104248046875,-0.990234375,0.216064453125,-0.8396946564885496,0.8091603053435115,-0.37404580152671757
3.42,0.10693359375,-0.9931640625,0.2099609375,-1.2366412213740459,0.22137404580152673,-0.42748091603053434
3.43,0.0986328125,-0.99560546875,0.1982421875,-0.9923664122137404,0.04580152671755725,-0.7557251908396947
3.44,0.106689453125,-1.001708984375,0.201904296875,-1.2290076335877862,-0.15267175572519084,-0.8702290076335878
3.45,0.116455078125,-1.005859375,0.20263671875,-1.1603053435114503,-0.22900763358778625,-1.1755725190839694
3.46,0.11376953125,-1.010986328125,0.19677734375,-1.0916030534351144,-0.45038167938931295,-1.2213740458015268
3.47,0.117919921875,-1.004150390625,0.188232421875,-0.9770992366412213,-0.6030534351145038,-1.2748091603053435
3.48,0.114990234375,-1.002685546875,0.202392578125,-0.5801526717557252,-0.4961832061068702,-1.3893129770992367
3.49,0.120361328125,-0.99853515625,0.197998046875,-0.7404580152671756,-0.2748091603053435,-1.0305343511450382
3.5,0.121826171875,-1.00146484375,0.19677734375,-0.6641221374045801,-0.37404580152671757,-0.9847328244274809
3.51,0.120849609375,-0.995849609375,0.186767578125,-0.6793893129770993,-0.4580152671755725,-0.6564885496183206
3.52,0.115478515625,-0.99755859375,0.19384765625,-0.6106870229007634,-0.48854961832061067,-0.26717557251908397
3.53,0.1142578125,-0.994140625,0.195068359375,-0.9694656488549618,-0.366412213740458,-0.20610687022900764
3.54,0.112060546875,-1.001953125,0.20556640625,-0.9541984732824428,-0.21374045801526717,-0.32061068702290074
3.55,0.111328125,-1.00439453125,0.2099609375,-0.7938931297709924,-0.08396946564885496,-0.1450381679389313
3.56,0.11767578125,-1.015625,0.195068359375,-0.48091603053435117,-0.2595419847328244,-0.10687022900763359
3.57,0.112060546875,-1.004150390625,0.218017578125,0.20610687022900764,-0.35877862595419846,-0.015267175572519083
3.58,0.12451171875,-0.99658203125,0.20166015625,0.0916030534351145,-0.05343511450381679,0.030534351145038167
3.59,0.121826171875,-1.000244140625,0.203125,-0.10687022900763359,0.061068702290076333,-0.2900763358778626
3.6,0.14013671875,-0.999267578125,0.197998046875,-0.40458015267175573,0.3282442748091603,-0.4198473282442748
3.61,0.138916015625,-1.00390625,0.20263671875,-0.366412213740458,0.5725190839694656,-0.7786259541984732
3.62,0.119140625,-0.999267578125,0.201171875,-0.5954198473282443,0.8778625954198473,-1.0610687022900764
3.63,0.12353515625,-0.996826171875,0.196533203125,-0.8625954198473282,1.099236641221374,-1.282442748091603
3.64,0.1318359375,-0.99267578125,0.20654296875,-1.1297709923664123,1.183206106870229,-1.4045801526717556
3.65,0.1103515625,-0.998291015625,0.204345703125,-1.0534351145038168,1.16793893129771,-1.213740458015267
3.66,0.11181640625,-0.991455078125,0.2080078125,-0.7862595419847328,1.0305343511450382,-0.9389312977099237
3.67,0.113037109375,-1.0068359375,0.212890625,-0.6030534351145038,0.9694656488549618,-0.9618320610687023
3.68,0.12353515625,-1.01123046875,0.21240234375,-0.9389312977099237,0.9083969465648855,-0.5190839694656488
3.69,0.1162109375,-1.015869140625,0.201416015625,-0.2366412213740458,1.4045801526717556,-0.2595419847328244
3.7,0.123046875,-1.021728515625,0.198486328125,1.1297709923664123,1.702290076335878,0.030534351145038167
3.71,0.10986328125,-1.02685546875,0.189453125,2.145038167938931,1.748091603053435,-0.183206106870229
3.72,0.105712890625,-1.013427734375,0.202880859375,2.5877862595419847,1.015267175572519,-0.8015267175572519
3.73,0.10205078125,-1.012451171875,0.181640625,3.1603053435114505,0.35877862595419846,-1.1603053435114503
3.74,0.1015625,-1.001220703125,0.190673828125,3.213740458015267,-0.31297709923664124,-1.4809160305343512
3.75,0.101806640625,-0.992431640625,0.19384765625,2.66412213740458,-0.816793893129771,-1.717557251908397
3.76,0.1103515625,-0.996826171875,0.192626953125,2.3206106870229006,-0.7862595419847328,-1.786259541984733
3.77,0.1171875,-0.9853515625,0.19140625,1.7099236641221374,-0.6259541984732825,-1.717557251908397
3.78,0.1201171875,-0.9892578125,0.21728515625,1.4351145038167938,-0.061068702290076333,-0.007633587786259542
3.79,0.125732421875,-1.001708984375,0.192626953125,1.1984732824427482,0.3969465648854962,-2.0381679389312977
3.8,0.11962890625,-1.003662109375,0.197998046875,1.549618320610687,0.5267175572519084,-2.198473282442748
3.81,0.12109375,-1.0078125,0.204833984375,1.7557251908396947,0.8015267175572519,-2.122137404580153
3.82,0.115478515625,-1.011474609375,0.207275390625,1.8549618320610688,1.3206106870229009,-2.122137404580153
3.83,0.11962890625,-1.01416015625,0.196533203125,2.0076335877862594,1.6106870229007633,-2.3053435114503817
3.84,0.11376953125,-0.997314453125,0.194091796875,1.7709923664122138,1.7404580152671756,-2.312977099236641
3.85,0.11083984375,-0.988037109375,0.177978515625,1.816793893129771,1.816793893129771,-2.519083969465649
3.86,0.114501953125,-0.98974609375,0.197021484375,1.3511450381679388,1.4045801526717556,-2.7557251908396947
3.87,0.109130859375,-0.99560546875,0.203857421875,1.4045801526717556,0.816793893129771,-2.8702290076335877
3.88,0.113037109375,-0.99609375,0.2001953125,1.450381679389313,0.0916030534351145,-2.8396946564885495
3.89,0.1162109375,-0.997314453125,0.199462890625,1.6030534351145038,-0.2900763358778626,-3.099236641221374
3.9,0.12060546875,-1.002685546875,0.20361328125,2.3206106870229006,-0.9770992366412213,-3.0763358778625953
3.91,0.124755859375,-1.00439453125,0.211181640625,2.83206106870229,-1.0763358778625953,-3.114503816793893
3.92,0.125244140625,-1.009033203125,0.2080078125,2.877862595419847,-1.3969465648854962,-3.282442748091603
3.93,0.122802734375,-1.005615234375,0.210693359375,3.122137404580153,-1.748091603053435,-3.122137404580153
3.94,0.122802734375,-1.003173828125,0.205322265625,2.877862595419847,-3.900763358778626,-2.931297709923664
3.95,0.12060546875,-0.99462890625,0.20166015625,2.687022900763359,-2.1297709923664123,-2.6793893129770994
3.96,0.1201171875,-0.99658203125,0.205810546875,2.595419847328244,-2.435114503816794,-2.618320610687023
3.97,0.11376953125,-0.9931640625,0.202880859375,2.5419847328244276,-2.8625954198473282,-2.6564885496183206
3.98,0.116455078125,-0.985595703125,0.1884765625,1.5419847328244274,-3.1526717557251906,-2.633587786259542
3.99,0.116943359375,-0.97998046875,0.18701171875,1.6412213740458015,-2.6412213740458017,-2.687022900763359
4.0,0.1201171875,-0.980224609375,0.193115234375,1.0,-2.763358778625954,-2.648854961832061
4.01,0.131103515625,-0.981201171875,0.201171875,0.2900763358778626,-2.236641221374046,-2.618320610687023
4.02,0.133544921875,-1.0,0.201904296875,-0.21374045801526717,-1.3053435114503817,-2.4580152671755724
4.03,0.149658203125,-1.005126953125,0.209228515625,-0.35877862595419846,-1.297709923664122,-2.183206106870229
4.04,0.142578125,-1.006591796875,0.2099609375,-0.1297709923664122,-0.6870229007633588,-2.1755725190839694
4.05,0.142333984375,-1.01123046875,0.223876953125,0.48854961832061067,-0.6564885496183206,-3.900763358778626
4.06,0.140380859375,-0.99609375,0.229736328125,0.6564885496183206,-0.48091603053435117,-1.8625954198473282
4.07,0.132568359375,-0.997314453125,0.21923828125,0.9618320610687023,-0.9389312977099237,-1.7938931297709924
4.08,0.1357421875,-0.999267578125,0.232177734375,1.1755725190839694,-1.251908396946565,-3.83206106870229
4.09,0.119140625,-0.986572265625,0.231689453125,0.9312977099236641,-2.1374045801526718,-1.8625954198473282
4.1,0.12548828125,-0.98193359375,0.21435546875,0.4732824427480916,-2.435114503816794,-1.7404580152671756
4.11,0.120849609375,-0.9814453125,0.213623046875,-0.4580152671755725,-3.068702290076336,-1.6564885496183206
4.12,0.127197265625,-0.990478515625,0.204833984375,-0.8244274809160306,-3.1374045801526718,-1.4732824427480915
4.13,0.13427734375,-0.988037109375,0.2158203125,-0.8091603053435115,-3.2213740458015265,-0.9770992366412213
4.14,0.1357421875,-0.99072265625,0.214599609375,-0.8778625954198473,-3.0076335877862594,-1.0305343511450382
4.15,0.14111328125,-0.999755859375,0.2216796875,-1.1374045801526718,-2.9236641221374047,-0.8854961832061069
4.16,0.138671875,-0.990234375,0.22705078125,-0.9465648854961832,-2.8473282442748094,-0.8854961832061069
4.17,0.13916015625,-0.98974609375,0.214111328125,-0.816793893129771,-2.427480916030534,-1.1908396946564885
4.18,0.136962890625,-0.990478515625,0.223876953125,-1.0916030534351144,-2.351145038167939,-1.3129770992366412
4.19,0.141357421875,-0.991943359375,0.21533203125,-1.0534351145038168,-2.6564885496183206,-1.3969465648854962
4.2,0.14208984375,-0.998291015625,0.21923828125,-1.0381679389312977,-2.66412213740458,-1.4427480916030535
4.21,0.154541015625,-0.995849609375,0.218505859375,-1.0763358778625953,-2.427480916030534,-1.4274809160305344
4.22,0.13818359375,-1.015625,0.20556640625,-1.0,-2.6793893129770994,-1.213740458015267
4.23,0.145751953125,-0.998779296875,0.205322265625,-0.7938931297709924,-2.366412213740458,-1.4351145038167938
4.24,0.144287109375,-0.9931640625,0.214111328125,-0.8702290076335878,-2.015267175572519,-1.534351145038168
4.25,0.14208984375,-0.9912109375,0.205322265625,-1.0076335877862594,-1.8854961832061068,-1.7938931297709924
4.26,0.135498046875,-0.987060546875,0.216796875,-1.3206106870229009,-1.6946564885496183,-1.6259541984732824
4.27,0.1376953125,-0.990234375,0.2177734375,-1.366412213740458,-1.534351145038168,-1.4351145038167938
4.28,0.13134765625,-0.98876953125,0.2099609375,-1.465648854961832,-1.4961832061068703,-1.1526717557251909
4.29,0.1357421875,-0.9677734375,0.227783203125,-2.1526717557251906,-1.4427480916030535,-1.0305343511450382
4.3,0.124755859375,-0.999755859375,0.203369140625,-1.0381679389312977,-1.618320610687023,-0.648854961832061
4.31,0.139404296875,-0.98974609375,0.2109375,-1.5114503816793894,-1.0687022900763359,-0.4732824427480916
4.32,0.13623046875,-0.99951171875,0.22119140625,-1.6717557251908397,-0.29770992366412213,-0.07633587786259542
4.33,0.135009765625,-0.998779296875,0.22412109375,-1.3282442748091603,-0.8091603053435115,0.31297709923664124
4.34,0.130859375,-0.992431640625,0.210205078125,-1.183206106870229,0.3816793893129771,0.6183206106870229
4.35,0.125732421875,-0.98876953125,0.214599609375,-1.534351145038168,0.37404580152671757,0.7251908396946565
4.36,0.129638671875,-0.9921875,0.204833984375,-1.2061068702290076,0.7251908396946565,0.6030534351145038
4.37,0.134033203125,-0.99951171875,0.209716796875,-1.2595419847328244,0.8091603053435115,0.3816793893129771
4.38,0.129150390625,-1.000244140625,0.217041015625,-1.2595419847328244,0.17557251908396945,-0.17557251908396945
4.39,0.12939453125,-0.992431640625,0.215576171875,-1.183206106870229,0.022900763358778626,-0.7175572519083969
4.4,0.127685546875,-1.0009765625,0.2138671875,-1.6412213740458015,-0.16030534351145037,-1.1450381679389312
4.41,0.13134765625,-1.010498046875,0.211669921875,-1.2442748091603053,-0.3053435114503817,-1.3969465648854962
4.42,0.13232421875,-1.014404296875,0.20703125,-0.9923664122137404,-0.1450381679389313,-1.3969465648854962
4.43,0.132080078125,-1.0068359375,0.219482421875,-1.0,0.40458015267175573,-1.4274809160305344
4.44,0.121826171875,-0.98681640625,0.1923828125,-0.7862595419847328,0.1984732824427481,-1.297709923664122
4.45,0.125732421875,-1.002197265625,0.1875,-0.3282442748091603,0.007633587786259542,-1.2061068702290076
4.46,0.122802734375,-1.005859375,0.20751953125,-0.24427480916030533,0.32061068702290074,-1.4732824427480915
4.47,0.11669921875,-1.005126953125,0.208740234375,-0.3969465648854962,0.22137404580152673,-1.816793893129771
4.48,0.115478515625,-1.00830078125,0.220947265625,0.12213740458015267,-0.04580152671755725,-2.3893129770992365
4.49,0.122802734375,-1.01171875,0.224365234375,0.06870229007633588,-0.04580152671755725,-2.5572519083969465
4.5,0.123779296875,-1.003662109375,0.2236328125,0.3282442748091603,-0.32061068702290074,-3.1526717557251906
4.51,0.124267578125,-0.99755859375,0.23388671875,1.1068702290076335,-0.183206106870229,-3.099236641221374
4.52,0.12548828125,-0.991943359375,0.23095703125,1.3587786259541985,0.0916030534351145,-3.282442748091603
4.53,0.128173828125,-0.998779296875,0.231689453125,1.8931297709923665,0.0916030534351145,-3.595419847328244
4.54,0.119140625,-1.003662109375,0.209716796875,3.900763358778626,0.16793893129770993,-3.66412213740458
4.55,0.117919921875,-1.007568359375,0.211669921875,2.3206106870229006,0.48854961832061067,-3.6946564885496183
4.56,0.12060546875,-1.009521484375,0.210205078125,2.0381679389312977,0.2366412213740458,-3.4656488549618323
4.57,0.132568359375,-0.99365234375,0.198486328125,1.5190839694656488,1.8854961832061068,-3.0839694656488548
4.58,0.110107421875,-0.982421875,0.207275390625,0.2595419847328244,-0.3816793893129771,-3.015267175572519
4.59,0.11083984375,-0.982177734375,0.212646484375,-0.2824427480916031,-1.083969465648855,-3.312977099236641
4.6,0.11669921875,-0.994384765625,0.21142578125,-0.09923664122137404,-0.7251908396946565,-3.267175572519084
4.61,0.1181640625,-0.99072265625,0.222412109375,-0.4351145038167939,-0.6259541984732825,-3.2900763358778624
4.62,0.1171875,-0.9931640625,0.20947265625,-0.7709923664122137,-0.48854961832061067,-3.0763358778625953
4.63,0.126953125,-0.9931640625,0.2158203125,-1.0076335877862594,-0.9618320610687023,-3.1603053435114505
4.64,0.155517578125,-0.998291015625,0.212646484375,-0.5954198473282443,-0.8931297709923665,-3.1526717557251906
4.65,0.15087890625,-1.0126953125,0.203125,-1.5190839694656488,-0.8778625954198473,-3.595419847328244
4.66,0.1513671875,-1.0283203125,0.23095703125,-1.7938931297709924,-1.2442748091603053,-3.549618320610687
4.67,0.147216796875,-1.022216796875,0.20361328125,0.7862595419847328,-0.916030534351145,-3.4427480916030535
4.68,0.14892578125,-1.002685546875,0.229248046875,1.4274809160305344,0.42748091603053434,-3.33587786259542
4.69,0.141845703125,-0.979736328125,0.221435546875,-0.8549618320610687,0.44274809160305345,-3.404580152671756
4.7,0.1328125,-0.984130859375,0.202392578125,-1.1984732824427482,0.21374045801526717,-3.8091603053435112
4.71,0.1279296875,-0.979736328125,0.199951171875,-0.9389312977099237,-0.5114503816793893,-3.7480916030534353
4.72,0.10986328125,-0.981689453125,0.205810546875,-0.5572519083969466,-1.0381679389312977,-3.1526717557251906
4.73,0.1376953125,-0.976806640625,0.215576171875,-0.08396946564885496,-1.1603053435114503,-2.687022900763359
4.74,0.15283203125,-0.99951171875,0.220947265625,-1.1221374045801527,-1.2366412213740459,-2.030534351145038
4.75,0.141845703125,-0.9931640625,0.224365234375,-1.7938931297709924,-1.0076335877862594,-1.4961832061068703
4.76,0.15771484375,-0.9921875,0.233154296875,-1.702290076335878,-0.8320610687022901,-1.0916030534351144
4.77,0.15966796875,-1.00537109375,0.2373046875,-1.1755725190839694,-0.183206106870229,-0.8015267175572519
4.78,0.16796875,-1.01513671875,0.250244140625,-0.7404580152671756,-0.061068702290076333,-0.7557251908396947
4.79,0.16455078125,-1.02392578125,0.25634765625,0.13740458015267176,0.4122137404580153,-0.8625954198473282
4.8,0.1640625,-1.00732421875,0.255859375,0.8778625954198473,0.2595419847328244,-1.083969465648855
4.81,0.1650390625,-0.99853515625,0.24462890625,1.0610687022900764,0.08396946564885496,-1.1984732824427482
4.82,0.148681640625,-0.976318359375,0.2392578125,1.3587786259541985,-0.45038167938931295,-1.3282442748091603
4.83,0.155517578125,-0.969970703125,0.220458984375,1.3893129770992367,-0.366412213740458,-1.1526717557251909
4.84,0.154541015625,-0.962158203125,0.229248046875,1.0381679389312977,-0.7786259541984732,-1.1374045801526718
4.85,0.150146484375,-0.95361328125,0.238525390625,0.03816793893129771,-0.4961832061068702,-1.1603053435114503
4.86,0.14892578125,-0.959716796875,0.238037109375,-0.5954198473282443,-0.549618320610687,-1.1221374045801527
4.87,0.140869140625,-0.976806640625,0.23486328125,-1.0229007633587786,-0.7404580152671756,-0.8778625954198473
4.88,0.14697265625,-0.995361328125,0.2412109375,-1.0076335877862594,-0.5190839694656488,-0.8320610687022901
4.89,0.145751953125,-0.980712890625,0.244140625,-1.1603053435114503,-0.2748091603053435,-0.42748091603053434
4.9,0.155029296875,-0.981201171875,0.24853515625,-1.5572519083969465,-0.5038167938931297,-0.183206106870229
4.91,0.1572265625,-0.9873046875,0.226806640625,-1.618320610687023,-0.6030534351145038,0.11450381679389313
4.92,0.14794921875,-0.99072265625,0.24462890625,-1.534351145038168,-0.366412213740458,0.4122137404580153
4.93,0.161376953125,-0.991455078125,0.23876953125,-1.5572519083969465,-0.32061068702290074,0.44274809160305345
4.94,0.1494140625,-0.989013671875,0.23046875,-1.549618320610687,-0.2900763358778626,0.7709923664122137
4.95,0.15185546875,-0.984375,0.2158203125,-1.3511450381679388,-0.24427480916030533,1.1984732824427482
4.96,0.14453125,-0.97021484375,0.2158203125,-1.3740458015267176,-0.183206106870229,1.5267175572519085
4.97,0.1416015625,-0.98583984375,0.215576171875,-1.5877862595419847,-0.2748091603053435,1.7709923664122138
4.98,0.135009765625,-0.989013671875,0.227294921875,-3.9083969465648853,-0.15267175572519084,1.5954198473282444
4.99,0.142578125,-0.993896484375,0.222412109375,-2.6564885496183206,-0.9465648854961832,1.0229007633587786
5.0,0.142333984375,-1.01171875,0.21435546875,-1.633587786259542,-1.5267175572519085,0.3893129770992366
5.01,0.133544921875,-1.024658203125,0.22705078125,-0.7099236641221374,-0.10687022900763359,1.8778625954198473
5.02,0.144775390625,-1.03173828125,0.241455078125,-0.31297709923664124,-2.931297709923664,-0.4122137404580153
5.03,0.149658203125,-1.02685546875,0.24755859375,-0.648854961832061,-1.0763358778625953,0.17557251908396945
5.04,0.1552734375,-1.025634765625,0.242919921875,0.6717557251908397,0.3282442748091603,0.8778625954198473
5.05,0.14111328125,-1.00927734375,0.244873046875,0.4732824427480916,0.7557251908396947,0.916030534351145
5.06,0.13671875,-0.99609375,0.219482421875,0.3282442748091603,0.7251908396946565,1.0
5.07,0.1240234375,-0.990966796875,0.207275390625,0.6641221374045801,0.4961832061068702,0.5877862595419847
5.08,0.125244140625,-0.980224609375,0.218994140625,-0.2595419847328244,0.5267175572519084,0.5038167938931297
5.09,0.12451171875,-0.97607421875,0.209716796875,-0.5190839694656488,0.648854961832061,0.3282442748091603
5.1,0.109375,-0.9794921875,0.214599609375,-0.3893129770992366,0.6717557251908397,0.19083969465648856
5.11,0.129638671875,-0.979736328125,0.23291015625,-1.366412213740458,1.0076335877862594,-0.22900763358778625
5.12,0.13525390625,-0.973388671875,0.215087890625,-1.83206106870229,1.4274809160305344,-0.46564885496183206
5.13,0.135986328125,-0.99365234375,0.217529296875,-1.4198473282442747,0.9847328244274809,-0.6717557251908397
5.14,0.12939453125,-1.001220703125,0.21435546875,-0.8320610687022901,0.5038167938931297,-1.1145038167938932
5.15,0.128173828125,-1.0048828125,0.21142578125,-0.5038167938931297,0.061068702290076333,-1.1984732824427482
5.16,0.121337890625,-1.01318359375,0.21337890625,-0.7404580152671756,-0.09923664122137404,-1.534351145038168
5.17,0.121337890625,-0.99462890625,0.2109375,-1.1221374045801527,0.1450381679389313,-1.4427480916030535
5.18,0.11962890625,-0.993896484375,0.210693359375,-1.6717557251908397,0.061068702290076333,-1.2442748091603053
5.19,0.115478515625,-0.990234375,0.197265625,-1.9465648854961832,-0.05343511450381679,-1.015267175572519
5.2,0.118896484375,-0.992431640625,0.194580078125,-2.1755725190839694,-0.3435114503816794,-0.9083969465648855
5.21,0.1201171875,-0.991943359375,0.207275390625,-1.7938931297709924,-0.7404580152671756,-0.8778625954198473
5.22,0.124755859375,-1.003662109375,0.208251953125,-1.7328244274809161,-0.9389312977099237,-1.213740458015267
5.23,0.139892578125,-1.0087890625,0.2197265625,-1.4045801526717556,-0.33587786259541985,-1.2595419847328244
5.24,0.125732421875,-1.00244140625,0.222900390625,-0.8244274809160306,0.3893129770992366,-1.2213740458015268
5.25,0.1337890625,-1.000732421875,0.21875,-0.7175572519083969,1.1603053435114503,-1.5954198473282444
5.26,0.131103515625,-0.9951171875,0.225830078125,-0.5267175572519084,1.984732824427481,-0.022900763358778626
5.27,0.123291015625,-0.992919921875,0.208984375,-0.5419847328244275,2.519083969465649,-2.099236641221374
5.28,0.122802734375,-0.990966796875,0.2109375,-0.4732824427480916,2.7251908396946565,-2.236641221374046
5.29,0.119140625,-0.982421875,0.211669921875,-0.2595419847328244,2.1755725190839694,-2.564885496183206
5.3,0.114013671875,-0.98095703125,0.19921875,-0.4732824427480916,1.381679389312977,-2.732824427480916
5.31,0.110595703125,-0.98876953125,0.212890625,-0.8931297709923665,0.48854961832061067,-2.9160305343511452
5.32,0.123046875,-0.9873046875,0.2197265625,-1.6717557251908397,1.9465648854961832,-2.854961832061069
5.33,0.115234375,-0.9892578125,0.205078125,-2.183206106870229,0.10687022900763359,-2.6793893129770994
5.34,0.11865234375,-1.0029296875,0.21875,-2.1755725190839694,0.26717557251908397,-2.5343511450381677
5.35,0.12353515625,-1.012451171875,0.225830078125,-1.8702290076335877,0.10687022900763359,-2.3587786259541983
5.36,0.12744140625,-1.00830078125,0.226806640625,-1.3206106870229009,1.916030534351145,-2.3282442748091605
5.37,0.131103515625,-1.00244140625,0.2265625,-1.8702290076335877,-0.05343511450381679,-2.267175572519084
5.38,0.134765625,-0.9853515625,0.2177734375,-1.984732824427481,0.2595419847328244,-1.4809160305343512
5.39,0.139892578125,-1.0029296875,0.225341796875,-2.183206106870229,0.6106870229007634,-0.9694656488549618
5.4,0.12890625,-1.0146484375,0.22900390625,-1.5572519083969465,1.0534351145038168,-0.549618320610687
5.41,0.1357421875,-0.9931640625,0.2041015625,-1.4427480916030535,1.465648854961832,-0.6641221374045801
5.42,0.130126953125,-0.98876953125,0.21875,-1.3969465648854962,1.6488549618320612,-0.8854961832061069
5.43,0.130859375,-0.988525390625,0.217041015625,-1.1526717557251909,0.9694656488549618,-1.6564885496183206
5.44,0.11962890625,-0.988037109375,0.22314453125,-0.9618320610687023,0.25190839694656486,-2.2900763358778624
5.45,0.12353515625,-1.0009765625,0.22998046875,-0.916030534351145,-0.3435114503816794,-3.068702290076336
5.46,0.1298828125,-1.006103515625,0.23681640625,-1.3053435114503817,-0.4198473282442748,-3.16793893129771
5.47,0.137939453125,-1.02001953125,0.2353515625,-1.2213740458015268,-0.816793893129771,-3.1374045801526718
5.48,0.147705078125,-1.011474609375,0.24072265625,-0.8702290076335878,-0.9923664122137404,-2.7404580152671754
5.49,0.14697265625,-1.01513671875,0.240478515625,-0.32061068702290074,-0.8015267175572519,-1.8091603053435115
5.5,0.148193359375,-1.015869140625,0.23046875,0.2824427480916031,-0.8854961832061069,-1.2748091603053435
5.51,0.157470703125,-0.997802734375,0.240234375,0.48854961832061067,-0.45038167938931295,-0.8702290076335878
5.52,0.14794921875,-0.982421875,0.23828125,0.4961832061068702,-0.24427480916030533,-0.7175572519083969
5.53,0.146240234375,-0.999755859375,0.23974609375,1.8778625954198473,-0.1984732824427481,-0.6030534351145038
5.54,0.147216796875,-0.9755859375,0.233154296875,-1.9312977099236641,0.22137404580152673,-0.4961832061068702
5.55,0.126220703125,-0.9755859375,0.245849609375,0.05343511450381679,0.5343511450381679,-0.2595419847328244
5.56,0.137451171875,-0.97705078125,0.24072265625,0.5343511450381679,0.5801526717557252,-0.48091603053435117
5.57,0.140380859375,-0.980224609375,0.22021484375,0.8625954198473282,0.6183206106870229,-0.8778625954198473
5.58,0.1435546875,-0.990966796875,0.2548828125,1.5954198473282444,1.0534351145038168,-1.534351145038168
5.59,0.140869140625,-0.989501953125,0.255615234375,2.404580152671756,0.8473282442748091,-2.236641221374046
5.6,0.155517578125,-0.9814453125,0.25341796875,2.7786259541984735,1.0305343511450382,-2.8091603053435112
5.61,0.139892578125,-0.955322265625,0.255615234375,2.3893129770992365,0.5114503816793893,-3.519083969465649
5.62,0.125,-0.97119140625,0.264404296875,1.8473282442748091,-0.4351145038167939,-3.6106870229007635
5.63,0.14892578125,-0.9833984375,0.249267578125,1.1984732824427482,-1.1068702290076335,-3.572519083969466
5.64,0.154296875,-0.9794921875,0.228759765625,0.7251908396946565,-0.08396946564885496,-2.7557251908396947
5.65,0.155517578125,-0.982177734375,0.229248046875,0.48854961832061067,-2.2290076335877864,-2.0610687022900764
5.66,0.146484375,-0.9814453125,0.224853515625,0.015267175572519083,-2.183206106870229,-1.3893129770992367
5.67,0.14599609375,-0.973876953125,0.22802734375,-0.9770992366412213,-3.885496183206107,-0.7633587786259542
5.68,0.146240234375,-0.997314453125,0.22705078125,-1.8625954198473282,-1.4580152671755726,-0.061068702290076333
5.69,0.1376953125,-0.96923828125,0.246337890625,-1.7786259541984732,-1.0381679389312977,0.6946564885496184
5.7,0.139404296875,-0.9853515625,0.22021484375,-1.2748091603053435,-0.6259541984732825,1.083969465648855
5.71,0.141357421875,-0.99462890625,0.23876953125,-0.5877862595419847,0.5267175572519084,1.4961832061068703
5.72,0.139892578125,-0.992431640625,0.2412109375,-0.7709923664122137,1.6106870229007633,1.6946564885496183
5.73,0.141845703125,-1.0,0.218505859375,0.03816793893129771,2.8702290076335877,1.5267175572519085
5.74,0.1484375,-0.994384765625,0.23486328125,0.5877862595419847,4.244274809160306,1.5877862595419847
5.75,0.15380859375,-0.98681640625,0.2275390625,1.3511450381679388,4.66412213740458,1.0076335877862594
5.76,0.16064453125,-0.978271484375,0.23681640625,0.0,5.106870229007634,-0.35877862595419846
5.77,0.1494140625,-0.939697265625,0.23291015625,1.5114503816793894,5.038167938931298,-2.2595419847328246
5.78,0.132568359375,-0.9404296875,0.233642578125,0.08396946564885496,3.427480916030534,-4.473282442748092
5.79,0.134521484375,-0.965087890625,0.218017578125,-1.9541984732824427,1.3206106870229009,-6.038167938931298
5.8,0.13330078125,-1.01318359375,0.23095703125,-3.0076335877862594,0.030534351145038167,-5.740458015267175
5.81,0.138916015625,-1.05322265625,0.232177734375,-3.572519083969466,0.25190839694656486,-4.122137404580153
5.82,0.13916015625,-1.064208984375,0.224609375,-3.0229007633587788,0.16793893129770993,-2.213740458015267
5.83,0.14013671875,-1.04248046875,0.23291015625,-2.7786259541984735,0.42748091603053434,-0.9007633587786259
5.84,0.129638671875,-1.02783203125,0.203125,-3.213740458015267,0.7251908396946565,-0.5419847328244275
5.85,0.129638671875,-1.0029296875,0.21435546875,-3.435114503816794,0.9618320610687023,-0.29770992366412213
5.86,0.1220703125,-0.9951171875,0.221923828125,-2.7786259541984735,3.8625954198473282,-0.15267175572519084
5.87,0.11572265625,-0.9990234375,0.208984375,-2.7404580152671754,2.0763358778625953,-0.1450381679389313
5.88,0.103271484375,-1.005126953125,0.213623046875,-1.9770992366412214,1.7404580152671756,-0.3435114503816794
5.89,0.0966796875,-0.997314453125,0.204833984375,-1.2595419847328244,1.0,-0.9007633587786259
5.9,0.098388671875,-1.00146484375,0.22021484375,-0.9007633587786259,0.3893129770992366,-1.0305343511450382
5.91,0.129150390625,-1.005126953125,0.235107421875,-0.29770992366412213,1.9312977099236641,-1.2900763358778626
5.92,0.12939453125,-1.010498046875,0.23291015625,-0.007633587786259542,-0.3893129770992366,-1.5267175572519085
5.93,0.138671875,-1.000244140625,0.22802734375,0.3053435114503817,-0.5038167938931297,-1.6793893129770991
5.94,0.133056640625,-0.992919921875,0.218994140625,0.35877862595419846,-0.816793893129771,-1.8396946564885497
5.95,0.13623046875,-0.983154296875,0.21435546875,0.4732824427480916,-1.786259541984733,-1.916030534351145
5.96,0.131103515625,-0.966552734375,0.20947265625,0.9694656488549618,-2.66412213740458,-1.83206106870229
5.97,0.11474609375,-0.95849609375,0.19970703125,0.24427480916030533,-3.0610687022900764,-2.183206106870229
5.98,0.10986328125,-0.95703125,0.205078125,-1.9083969465648856,-2.5267175572519083,-2.4656488549618323
5.99,0.132568359375,-0.984375,0.203857421875,-3.435114503816794,-1.786259541984733,-2.480916030534351
6.0,0.128662109375,-0.993408203125,0.230224609375,-3.16793893129771,-3.900763358778626,-2.3893129770992365
6.01,0.132568359375,-1.00830078125,0.232421875,-3.9083969465648853,-1.0687022900763359,-2.1068702290076335
6.02,0.139892578125,-1.00146484375,0.222412109375,-0.3816793893129771,-0.48854961832061067,-1.3893129770992367
6.03,0.13134765625,-1.01953125,0.242919921875,0.45038167938931295,-0.030534351145038167,-1.2213740458015268
6.04,0.13525390625,-1.00830078125,0.258056640625,0.9923664122137404,1.1068702290076335,-0.45038167938931295
6.05,0.14697265625,-1.014892578125,0.2529296875,1.4809160305343512,1.6412213740458015,-0.32061068702290074
6.06,0.136474609375,-1.011962890625,0.255126953125,2.5114503816793894,1.6870229007633588,-0.21374045801526717
6.07,0.133056640625,-0.986083984375,0.26123046875,2.954198473282443,3.786259541984733,-0.3511450381679389
6.08,0.125732421875,-0.9755859375,0.23974609375,2.3282442748091605,0.9236641221374046,-0.6183206106870229
6.09,0.118408203125,-0.966064453125,0.2412109375,1.5725190839694656,0.4961832061068702,-1.3435114503816794
6.1,0.116943359375,-0.9658203125,0.227783203125,0.648854961832061,0.2824427480916031,-2.236641221374046
6.11,0.107421875,-0.963134765625,0.222412109375,-0.5038167938931297,-0.3053435114503817,-2.8931297709923665
6.12,0.1064453125,-0.959716796875,0.224365234375,-2.1068702290076335,-0.7251908396946565,-2.946564885496183
6.13,0.1171875,-0.954833984375,0.21337890625,-3.5114503816793894,-0.9312977099236641,-2.885496183206107
6.14,0.115966796875,-0.982666015625,0.203857421875,-4.4961832061068705,-1.3282442748091603,-2.0
6.15,0.1259765625,-0.99658203125,0.23193359375,-5.0458015267175576,-1.0305343511450382,-0.9007633587786259
6.16,0.12109375,-1.001953125,0.222412109375,-5.396946564885496,-0.7633587786259542,-0.0916030534351145
6.17,0.116943359375,-1.007080078125,0.222412109375,-5.6106870229007635,-0.5877862595419847,0.183206106870229
6.18,0.121337890625,-1.009521484375,0.225341796875,-5.236641221374046,-0.5114503816793893,0.6946564885496184
6.19,0.120849609375,-0.994140625,0.241943359375,-4.564885496183206,0.3435114503816794,1.0076335877862594
6.2,0.123046875,-0.982666015625,0.23095703125,-5.198473282442748,0.7557251908396947,1.1374045801526718
6.21,0.114990234375,-0.99560546875,0.2392578125,-5.206106870229007,1.2290076335877862,1.282442748091603
6.22,0.133056640625,-0.9951171875,0.26416015625,-5.129770992366412,5.213740458015267,1.2595419847328244
6.23,0.107177734375,-0.994140625,0.245361328125,-5.33587786259542,0.05343511450381679,1.1297709923664123
6.24,0.123779296875,-1.0205078125,0.250732421875,-7.809160305343512,0.2900763358778626,1.2748091603053435
6.25,0.11767578125,-1.032470703125,0.268310546875,-3.954198473282443,3.687022900763359,1.717557251908397
6.26,0.0986328125,-1.040771484375,0.25634765625,-3.2595419847328246,-0.6412213740458015,2.1374045801526718
6.27,0.138671875,-1.023681640625,0.237060546875,-1.3740458015267176,1.3969465648854962,2.954198473282443
6.28,0.1298828125,-0.9873046875,0.2138671875,0.17557251908396945,1.2900763358778626,4.267175572519084
6.29,0.140625,-0.968994140625,0.18017578125,0.07633587786259542,-0.7786259541984732,5.450381679389313
6.3,0.17529296875,-0.947021484375,0.1640625,-0.7709923664122137,-0.183206106870229,6.7251908396946565
6.31,0.18359375,-0.940185546875,0.147705078125,-1.183206106870229,-1.6030534351145038,7.229007633587786
6.32,0.19970703125,-0.94091796875,0.112060546875,-3.8625954198473282,-0.8931297709923665,7.259541984732825
6.33,0.204833984375,-0.961181640625,0.105712890625,-7.488549618320611,0.4732824427480916,6.862595419847328
6.34,0.2099609375,-0.990966796875,0.114013671875,-8.740458015267176,-0.09923664122137404,7.809160305343512
6.35,0.21435546875,-1.016845703125,0.114990234375,-8.938931297709924,-0.46564885496183206,3.9923664122137406
6.36,0.210205078125,-1.06591796875,0.13525390625,-7.5038167938931295,-2.145038167938931,1.549618320610687
6.37,0.189453125,-1.095458984375,0.149658203125,-5.1679389312977095,-2.114503816793893,-0.3053435114503817
6.38,0.18701171875,-1.110107421875,0.140869140625,-2.2977099236641223,-4.564885496183206,-1.366412213740458
6.39,0.183837890625,-1.09814453125,0.162841796875,-1.083969465648855,-4.961832061068702,-2.6564885496183206
6.4,0.17822265625,-1.08203125,0.170654296875,0.16793893129770993,-5.480916030534351,-3.5572519083969465
6.41,0.170654296875,-1.06884765625,0.16455078125,2.801526717557252,-6.656488549618321,-4.137404580152672
6.42,0.1591796875,-1.053955078125,0.161865234375,5.244274809160306,-8.82442748091603,-4.6106870229007635
6.43,0.140869140625,-1.0322265625,0.162353515625,7.0,-10.16793893129771,-4.473282442748092
6.44,0.14453125,-1.027099609375,0.1650390625,7.2748091603053435,-11.801526717557252,-4.511450381679389
6.45,0.142333984375,-0.997802734375,0.15966796875,6.358778625954199,-12.687022900763358,-4.2748091603053435
6.46,0.147216796875,-0.98974609375,0.16455078125,6.122137404580153,-12.473282442748092,-3.969465648854962
6.47,0.1474609375,-0.9873046875,0.165283203125,6.480916030534351,-12.931297709923664,-3.4885496183206106
6.48,0.15234375,-0.982666015625,0.166748046875,6.236641221374046,-13.122137404580153,-2.854961832061069
6.49,0.171875,-0.96923828125,0.163330078125,7.763358778625954,-12.274809160305344,-1.8702290076335877
6.5,0.173583984375,-0.964111328125,0.166015625,5.244274809160306,-11.755725190839694,-0.6870229007633588
6.51,0.174072265625,-0.96142578125,0.172119140625,5.427480916030534,-11.900763358778626,0.1450381679389313
6.52,0.1953125,-0.964599609375,0.1748046875,6.0534351145038165,-11.412213740458014,0.7251908396946565
6.53,0.200439453125,-0.952392578125,0.18212890625,5.778625954198473,-10.129770992366412,1.2442748091603053
6.54,0.19140625,-0.94970703125,0.177490234375,3.9236641221374047,-11.022900763358779,1.4274809160305344
6.55,0.209716796875,-0.9453125,0.16357421875,6.67175572519084,-9.557251908396946,1.4732824427480915
6.56,0.213623046875,-0.950439453125,0.156494140625,6.534351145038168,-10.435114503816793,1.3129770992366412
6.57,0.208740234375,-0.957763671875,0.163330078125,5.687022900763359,-8.458015267175572,0.3893129770992366
6.58,0.215087890625,-0.95654296875,0.163818359375,4.770992366412214,-8.290076335877863,-0.16793893129770993
6.59,0.23388671875,-0.980712890625,0.15380859375,3.0381679389312977,-5.625954198473282,-0.366412213740458
6.6,0.22119140625,-0.97509765625,0.151123046875,1.7938931297709924,-3.8702290076335877,-0.366412213740458
6.61,0.2197265625,-0.984375,0.14599609375,1.5038167938931297,-2.0,-0.40458015267175573
6.62,0.217041015625,-0.990234375,0.128662109375,1.748091603053435,-0.8625954198473282,-0.4732824427480916
6.63,0.208984375,-0.987548828125,0.134521484375,2.312977099236641,-0.9465648854961832,0.06870229007633588
6.64,0.20947265625,-0.988525390625,0.12890625,2.6793893129770994,1.816793893129771,0.549618320610687
6.65,0.198974609375,-0.999267578125,0.126220703125,3.4732824427480917,1.9541984732824427,1.4809160305343512
6.66,0.201904296875,-0.969482421875,0.111328125,4.633587786259542,1.6488549618320612,2.4885496183206106
6.67,0.21484375,-0.96435546875,0.109375,5.038167938931298,3.1755725190839694,3.3206106870229006
6.68,0.22412109375,-0.9404296875,0.09765625,4.0458015267175576,6.0458015267175576,3.801526717557252
6.69,0.231689453125,-0.92529296875,0.09716796875,1.3129770992366412,9.648854961832061,5.847328244274809
6.7,0.221435546875,-0.91845703125,0.079833984375,-0.0916030534351145,10.603053435114504,3.7709923664122136
6.71,0.233642578125,-0.92431640625,0.06591796875,-4.870229007633588,11.053435114503817,4.00763358778626
6.72,0.222900390625,-0.93310546875,0.0634765625,-6.00763358778626,11.221374045801527,3.66412213740458
6.73,0.2373046875,-0.959228515625,0.0634765625,-5.877862595419847,10.259541984732824,2.5114503816793894
6.74,0.21630859375,-0.980712890625,0.127685546875,-11.511450381679388,3.687022900763359,1.8549618320610688
6.75,0.189697265625,-1.0458984375,0.181396484375,-14.908396946564885,-0.5954198473282443,-4.114503816793893
6.76,0.16650390625,-1.11328125,0.233642578125,-14.717557251908397,-0.183206106870229,-5.877862595419847
6.77,0.125244140625,-1.15771484375,0.248046875,-11.297709923664122,-3.717557251908397,-11.01526717557252
6.78,0.127685546875,-1.124267578125,0.24755859375,-4.358778625954199,-4.343511450381679,-12.099236641221374
6.79,0.119384765625,-1.083251953125,0.22900390625,-2.564885496183206,-3.6259541984732824,-11.725190839694656
6.8,0.12255859375,-1.0517578125,0.216796875,-3.351145038167939,-4.450381679389313,-10.84732824427481
6.81,0.12060546875,-1.04150390625,0.239501953125,-4.984732824427481,-5.6106870229007635,-9.923664122137405
6.82,0.14404296875,-1.056884765625,0.24169921875,-3.8396946564885495,-5.305343511450381,-9.106870229007633
6.83,0.16796875,-1.03271484375,0.254638671875,-0.6564885496183206,-3.3206106870229006,-8.19083969465649
6.84,0.192138671875,-0.996337890625,0.232177734375,-0.3435114503816794,-2.0916030534351147,-7.198473282442748
6.85,0.22119140625,-0.987548828125,0.189697265625,-2.2442748091603053,-0.07633587786259542,-7.061068702290076
6.86,0.223388671875,-0.994873046875,0.1708984375,-4.99236641221374,1.2595419847328244,-6.809160305343512
6.87,0.2216796875,-1.0107421875,0.183837890625,-6.900763358778626,1.6106870229007633,-6.572519083969466
6.88,0.229736328125,-1.049560546875,0.220458984375,-7.709923664122138,0.03816793893129771,-6.145038167938932
6.89,0.1962890625,-1.069580078125,0.26220703125,-7.793893129770993,1.8091603053435115,-5.106870229007634
6.9,0.16748046875,-1.093017578125,0.276611328125,-2.83206106870229,-1.3740458015267176,-3.4885496183206106
6.91,0.1689453125,-1.0634765625,0.267578125,-1.1603053435114503,3.015267175572519,-1.816793893129771
6.92,0.11328125,-1.061767578125,0.266357421875,-1.1068702290076335,3.6412213740458017,-0.7633587786259542
6.93,0.072021484375,-1.055419921875,0.267822265625,-1.5267175572519085,2.145038167938931,0.2748091603053435
6.94,0.05322265625,-1.045166015625,0.27197265625,-0.9847328244274809,0.5038167938931297,1.083969465648855
6.95,0.032958984375,-1.010009765625,0.2666015625,-0.030534351145038167,-0.7251908396946565,2.4122137404580153
6.96,0.061279296875,-0.97900390625,0.251953125,0.7099236641221374,-2.4122137404580153,3.6717557251908395
6.97,0.055908203125,-0.961669921875,0.22900390625,1.8702290076335877,-4.312977099236641,5.0458015267175576
6.98,0.073486328125,-0.907958984375,0.21630859375,1.1755725190839694,-5.0534351145038165,3.9923664122137406
6.99,0.0810546875,-0.891357421875,0.244873046875,-1.4198473282442747,-6.366412213740458,6.396946564885496
7.0,0.0966796875,-0.915283203125,0.2470703125,-3.030534351145038,-6.916030534351145,6.916030534351145
7.01,0.10546875,-0.91015625,0.256591796875,-3.8244274809160306,-6.984732824427481,7.312977099236641
7.02,0.094970703125,-0.91064453125,0.26318359375,-4.32824427480916,-7.3816793893129775,7.572519083969466
7.03,0.118408203125,-0.933837890625,0.275390625,-5.038167938931298,-7.587786259541985,7.519083969465649
7.04,0.11669921875,-0.950927734375,0.29443359375,-5.190839694656488,-6.893129770992366,6.732824427480916
7.05,0.1298828125,-0.96533203125,0.313232421875,-5.931297709923665,-6.198473282442748,5.900763358778626
7.06,0.119873046875,-0.9853515625,0.306396484375,-4.923664122137405,-6.229007633587786,4.679389312977099
7.07,0.11767578125,-0.995361328125,0.300537109375,-2.984732824427481,-5.625954198473282,3.519083969465649
7.08,0.115966796875,-0.987060546875,0.288330078125,-2.0610687022900764,-7.4961832061068705,2.312977099236641
7.09,0.09912109375,-0.995849609375,0.269775390625,-2.1068702290076335,-4.854961832061068,0.7633587786259542
7.1,0.104248046875,-1.013427734375,0.24365234375,-0.3435114503816794,-1.366412213740458,-0.3816793893129771
7.11,0.083740234375,-0.986083984375,0.255859375,-1.9312977099236641,-1.6259541984732824,-1.5419847328244274
7.12,0.094482421875,-1.003662109375,0.239013671875,-3.145038167938931,-2.7786259541984735,-2.213740458015267
7.13,0.09375,-1.006591796875,0.254150390625,-5.061068702290076,-2.3740458015267176,-2.1526717557251906
7.14,0.098388671875,-1.01611328125,0.269775390625,-6.221374045801527,-2.1297709923664123,-1.5114503816793894
7.15,0.0966796875,-1.03076171875,0.28125,-4.015267175572519,-1.9541984732824427,-0.37404580152671757
7.16,0.11376953125,-1.038330078125,0.267333984375,-1.8015267175572518,7.061068702290076,0.8473282442748091
7.17,0.094482421875,-1.012451171875,0.27001953125,-1.9541984732824427,10.641221374045802,1.534351145038168
7.18,0.103515625,-0.995849609375,0.250732421875,-4.557251908396947,12.977099236641221,2.0381679389312977
7.19,0.069580078125,-1.00244140625,0.227294921875,-4.4961832061068705,12.618320610687023,2.5343511450381677
7.2,0.062255859375,-1.018310546875,0.2197265625,-2.4732824427480917,9.80916030534351,3.0763358778625953
7.21,0.05517578125,-1.006103515625,0.2236328125,-0.9312977099236641,6.755725190839694,3.068702290076336
7.22,0.065673828125,-0.9951171875,0.232666015625,-0.04580152671755725,6.488549618320611,3.5572519083969465
7.23,0.068603515625,-0.981689453125,0.225830078125,0.4580152671755725,6.99236641221374,3.6030534351145036
7.24,0.076171875,-0.961181640625,0.21826171875,-0.1450381679389313,6.938931297709924,3.3587786259541983
7.25,0.07275390625,-0.965576171875,0.201904296875,-1.1145038167938932,7.793893129770993,3.6259541984732824
7.26,0.076171875,-0.957275390625,0.209228515625,-1.702290076335878,5.267175572519084,3.801526717557252
7.27,0.079833984375,-0.98193359375,0.195068359375,-2.4198473282442747,5.33587786259542,3.8396946564885495
7.28,0.0693359375,-0.98046875,0.200439453125,-3.618320610687023,5.183206106870229,3.6106870229007635
7.29,0.04833984375,-0.982666015625,0.191650390625,-4.404580152671755,4.030534351145038,2.6106870229007635
7.3,0.02734375,-0.997314453125,0.18212890625,-4.366412213740458,2.7786259541984735,1.8931297709923665
7.31,0.02734375,-1.002197265625,0.18896484375,-2.732824427480916,0.7862595419847328,1.2213740458015268
7.32,0.029541015625,-1.01123046875,0.17822265625,-1.5267175572519085,-0.19083969465648856,1.2671755725190839
7.33,0.061767578125,-1.021728515625,0.19140625,-1.1068702290076335,-1.0534351145038168,1.4809160305343512
7.34,0.06982421875,-1.0361328125,0.200927734375,-0.6412213740458015,-1.9389312977099236,1.549618320610687
7.35,0.091064453125,-1.039794921875,0.213134765625,1.0076335877862594,-1.282442748091603,2.0916030534351147
7.36,0.0947265625,-1.02978515625,0.220458984375,2.2061068702290076,0.22900763358778625,2.4198473282442747
7.37,0.091064453125,-1.03271484375,0.218505859375,3.2748091603053435,0.6946564885496184,2.4198473282442747
7.38,0.082275390625,-1.02880859375,0.198974609375,4.236641221374046,-0.5114503816793893,2.2595419847328246
7.39,0.0732421875,-1.0166015625,0.187744140625,4.786259541984733,-0.061068702290076333,2.0610687022900764
7.4,0.064208984375,-1.005615234375,0.20166015625,4.564885496183206,-2.4427480916030535,2.2290076335877864
7.41,0.044921875,-1.009033203125,0.200927734375,4.977099236641221,-2.4656488549618323,2.595419847328244
7.42,0.034912109375,-1.008544921875,0.18017578125,5.0,-2.3893129770992365,3.2442748091603053
7.43,0.04248046875,-0.99755859375,0.185302734375,3.9083969465648853,-2.381679389312977,3.4885496183206106
7.44,0.0380859375,-1.0,0.176513671875,3.648854961832061,-2.633587786259542,4.0534351145038165
7.45,0.052001953125,-0.995849609375,0.175537109375,3.7938931297709924,-3.4656488549618323,4.229007633587786
7.46,0.050537109375,-0.99609375,0.162353515625,4.198473282442748,-4.2748091603053435,4.687022900763359
7.47,0.07080078125,-0.98193359375,0.161865234375,4.557251908396947,-4.236641221374046,4.259541984732825
7.48,0.080810546875,-0.987060546875,0.170166015625,5.458015267175573,-4.893129770992366,3.6946564885496183
7.49,0.095947265625,-0.98876953125,0.151123046875,7.709923664122138,-5.549618320610687,2.2900763358778624
7.5,0.115234375,-0.966796875,0.1416015625,9.038167938931299,-5.854961832061068,0.9465648854961832
7.51,0.114990234375,-0.953857421875,0.13671875,10.48091603053435,-8.045801526717558,-0.5419847328244275
7.52,0.112548828125,-0.942626953125,0.131591796875,11.534351145038167,-9.229007633587786,-1.9236641221374047
7.53,0.110107421875,-0.94287109375,0.122802734375,12.549618320610687,-9.32824427480916,-3.0916030534351147
7.54,0.08837890625,-0.932373046875,0.116943359375,12.793893129770993,-9.564885496183207,-4.770992366412214
7.55,0.067138671875,-0.937255859375,0.12353515625,13.618320610687023,-11.068702290076336,-6.259541984732825
7.56,0.055908203125,-0.9189453125,0.0791015625,10.15267175572519,-11.595419847328245,-7.038167938931298
7.57,0.043701171875,-0.918212890625,0.103515625,8.251908396946565,-12.198473282442748,-7.66412213740458
7.58,0.046630859375,-0.93359375,0.11865234375,6.076335877862595,-13.007633587786259,-8.0
7.59,0.04150390625,-0.97607421875,0.137939453125,4.2748091603053435,-14.061068702290076,-8.534351145038167
7.6,0.04736328125,-0.992919921875,0.150390625,3.572519083969466,-14.244274809160306,-8.946564885496183
7.61,0.076904296875,-0.9892578125,0.156982421875,3.1374045801526718,-14.351145038167939,-9.083969465648854
7.62,0.1015625,-0.974365234375,0.176513671875,2.6259541984732824,-13.893129770992367,-9.15267175572519
7.63,0.13037109375,-0.959716796875,0.176025390625,1.8244274809160306,-12.32824427480916,-8.916030534351146
7.64,0.152587890625,-0.979736328125,0.17529296875,1.5801526717557253,-10.793893129770993,-8.419847328244275
7.65,0.15283203125,-0.98095703125,0.158447265625,1.3206106870229009,-10.908396946564885,-8.0
7.66,0.157958984375,-0.988037109375,0.147216796875,1.6641221374045803,-9.549618320610687,-7.5038167938931295
7.67,0.153076171875,-0.98974609375,0.135986328125,1.6793893129770991,-8.648854961832061,-6.732824427480916
7.68,0.120849609375,-0.9775390625,0.122314453125,1.0610687022900764,-7.587786259541985,-6.206106870229007
7.69,0.08984375,-0.97998046875,0.106689453125,1.183206106870229,-7.351145038167939,-5.595419847328245
7.7,0.05029296875,-0.978759765625,0.077880859375,1.1374045801526718,-9.305343511450381,-5.587786259541985
7.71,0.025634765625,-0.9794921875,0.056640625,0.37404580152671757,-12.641221374045802,-5.3893129770992365
7.72,-0.004638671875,-0.995849609375,0.045654296875,-0.20610687022900764,-13.816793893129772,-4.961832061068702
7.73,-0.021728515625,-1.03466796875,0.051025390625,-1.717557251908397,-19.541984732824428,-3.5877862595419847
7.74,-0.009765625,-1.069580078125,0.068603515625,-3.4885496183206106,-21.66412213740458,-0.5572519083969466
7.75,0.00439453125,-1.104248046875,0.09423828125,-6.0,-21.793893129770993,3.6030534351145036
7.76,0.0517578125,-1.120361328125,0.13671875,-8.007633587786259,-18.47328244274809,9.13740458015267
7.77,0.106201171875,-1.096923828125,0.161865234375,-10.13740458015267,-13.099236641221374,13.19083969465649
7.78,0.102783203125,-1.053466796875,0.178955078125,-12.045801526717558,-9.442748091603054,15.427480916030534
7.79,0.0888671875,-1.0166015625,0.17626953125,-13.572519083969466,-8.564885496183207,15.900763358778626
7.8,0.09375,-1.034912109375,0.171875,-14.061068702290076,-10.419847328244275,14.885496183206106
7.81,0.12451171875,-1.0546875,0.203125,-13.961832061068701,-12.351145038167939,13.854961832061068
7.82,0.161865234375,-1.083251953125,0.233642578125,-14.465648854961833,-11.16030534351145,14.099236641221374
7.83,0.186767578125,-1.12744140625,0.265625,-13.702290076335878,-5.916030534351145,15.083969465648854
7.84,0.209228515625,-1.117919921875,0.275390625,-18.221374045801525,1.5801526717557253,16.587786259541986
7.85,0.189453125,-1.11376953125,0.280029296875,-20.625954198473284,7.396946564885496,17.610687022900763
7.86,0.16552734375,-1.098876953125,0.231689453125,-20.885496183206108,11.595419847328245,17.396946564885496
7.87,0.129150390625,-1.05810546875,0.163330078125,-19.198473282442748,13.022900763358779,15.251908396946565
7.88,0.0966796875,-1.024169921875,0.1298828125,-19.732824427480917,12.511450381679388,11.34351145038168
7.89,0.04931640625,-1.02197265625,0.157958984375,-21.595419847328245,8.961832061068701,6.641221374045801
7.9,0.037353515625,-1.062255859375,0.199951171875,-25.84732824427481,6.709923664122138,2.7709923664122136
7.91,0.024658203125,-1.103515625,0.24609375,-23.65648854961832,6.190839694656488,0.1450381679389313
7.92,0.025634765625,-1.099609375,0.276611328125,-20.00763358778626,4.648854961832061,-2.2900763358778624
7.93,0.019287109375,-1.074462890625,0.3076171875,-16.65648854961832,2.7099236641221376,-4.1679389312977095
7.94,0.01611328125,-1.0517578125,0.324951171875,-14.427480916030534,1.6030534351145038,-4.305343511450381
7.95,0.00927734375,-1.02587890625,0.350341796875,-11.282442748091603,0.022900763358778626,-2.6564885496183206
7.96,0.015380859375,-1.00244140625,0.376708984375,-7.312977099236641,-1.282442748091603,-0.007633587786259542
7.97,0.04443359375,-0.96142578125,0.3818359375,-4.129770992366412,-2.3206106870229006,3.2061068702290076
7.98,0.0703125,-0.9287109375,0.393798828125,-2.053435114503817,-3.8091603053435112,5.770992366412214
7.99,0.115234375,-0.911865234375,0.369384765625,-0.12213740458015267,-3.8931297709923665,8.076335877862595
8.0,0.141845703125,-0.88330078125,0.366943359375,-0.7862595419847328,-3.564885496183206,9.664122137404581
8.01,0.169189453125,-0.86767578125,0.338134765625,-3.7404580152671754,-2.9923664122137406,11.13740458015267
8.02,0.1796875,-0.844482421875,0.306396484375,-7.442748091603053,-1.9923664122137406,11.969465648854962
8.03,0.193115234375,-0.888427734375,0.302001953125,-7.885496183206107,-1.0610687022900764,11.908396946564885
8.04,0.20263671875,-0.924072265625,0.295166015625,-13.244274809160306,0.2824427480916031,10.954198473282442
8.05,0.179443359375,-0.954345703125,0.303955078125,-16.48854961832061,1.748091603053435,9.038167938931299
8.06,0.165283203125,-1.003662109375,0.299072265625,-18.16793893129771,3.519083969465649,6.366412213740458
8.07,0.153564453125,-1.056396484375,0.31201171875,-17.229007633587788,4.526717557251908,3.3969465648854964
8.08,0.158203125,-1.072265625,0.27392578125,-18.519083969465647,4.847328244274809,-0.09923664122137404
8.09,0.16748046875,-1.08740234375,0.267333984375,-18.33587786259542,5.526717557251908,-3.8396946564885495
8.1,0.17236328125,-1.11279296875,0.24755859375,-14.83969465648855,5.9541984732824424,-6.908396946564886
8.11,0.180419921875,-1.103271484375,0.248291015625,-11.465648854961833,5.32824427480916,-9.618320610687023
8.12,0.187744140625,-1.084716796875,0.23095703125,-8.587786259541986,7.038167938931298,-11.870229007633588
8.13,0.1640625,-1.06689453125,0.22900390625,-5.99236641221374,5.267175572519084,-13.763358778625955
8.14,0.137451171875,-1.05029296875,0.20458984375,-4.351145038167939,2.8473282442748094,-14.763358778625955
8.15,0.127197265625,-1.0419921875,0.195068359375,-3.5114503816793894,1.2290076335877862,-15.679389312977099
8.16,0.118408203125,-1.0263671875,0.16943359375,-2.572519083969466,0.366412213740458,-15.763358778625955
8.17,0.119384765625,-1.00732421875,0.16357421875,-1.366412213740458,1.9465648854961832,-15.396946564885496
8.18,0.11376953125,-0.989990234375,0.153076171875,0.4351145038167939,-0.2748091603053435,-14.221374045801527
8.19,0.112548828125,-0.970458984375,0.165771484375,1.6259541984732824,0.37404580152671757,-12.98473282442748
8.2,0.13134765625,-0.959228515625,0.17431640625,0.0,1.916030534351145,-11.076335877862595
8.21,0.1162109375,-0.959716796875,0.16796875,1.099236641221374,2.7404580152671754,-9.198473282442748
8.22,0.111572265625,-0.96044921875,0.166748046875,0.9694656488549618,0.08396946564885496,-7.549618320610687
8.23,0.1181640625,-0.96435546875,0.163818359375,1.5038167938931297,4.595419847328245,-6.442748091603053
8.24,0.121337890625,-0.97021484375,0.180419921875,3.0610687022900764,5.5038167938931295,-5.595419847328245
8.25,0.132568359375,-0.96435546875,0.195068359375,3.549618320610687,4.801526717557252,-4.824427480916031
8.26,0.155029296875,-0.96240234375,0.18603515625,4.3816793893129775,2.5419847328244276,-4.33587786259542
8.27,0.161865234375,-0.95458984375,0.182861328125,4.931297709923665,4.305343511450381,-3.8702290076335877
8.28,0.161376953125,-0.9599609375,0.177001953125,5.763358778625954,5.198473282442748,-4.0
8.29,0.158935546875,-0.954833984375,0.1806640625,5.694656488549619,4.99236641221374,-4.541984732824427
8.3,0.149169921875,-0.98193359375,0.1552734375,5.893129770992366,4.969465648854962,-4.3816793893129775
8.31,0.13720703125,-0.98193359375,0.14208984375,6.038167938931298,5.732824427480916,-4.083969465648855
8.32,0.133056640625,-0.97900390625,0.12939453125,6.091603053435114,5.984732824427481,-3.648854961832061
8.33,0.132568359375,-0.973876953125,0.109130859375,6.1603053435114505,6.00763358778626,-3.282442748091603
8.34,0.131103515625,-0.9765625,0.110107421875,6.8396946564885495,6.320610687022901,-2.351145038167939
8.35,0.151611328125,-0.961181640625,0.10595703125,7.267175572519084,4.122137404580153,-1.0610687022900764
8.36,0.152099609375,-0.94384765625,0.10546875,7.419847328244275,5.763358778625954,0.9465648854961832
8.37,0.162109375,-0.9326171875,0.09326171875,7.3893129770992365,8.732824427480915,3.2595419847328246
8.38,0.167236328125,-0.9248046875,0.10693359375,6.396946564885496,10.572519083969466,4.786259541984733
8.39,0.1767578125,-0.932861328125,0.08154296875,4.7251908396946565,12.229007633587786,7.793893129770993
8.4,0.19189453125,-0.961181640625,0.071533203125,3.5114503816793894,14.969465648854962,6.0458015267175576
8.41,0.1875,-0.991455078125,0.068115234375,2.9389312977099236,14.679389312977099,4.847328244274809
8.42,0.179931640625,-1.03466796875,0.08642578125,3.5801526717557253,13.022900763358779,3.0763358778625953
8.43,0.1669921875,-1.0478515625,0.114501953125,5.0,11.358778625954198,1.465648854961832
8.44,0.15576171875,-1.05224609375,0.135498046875,5.717557251908397,9.038167938931299,-0.1450381679389313
8.45,0.140380859375,-1.03759765625,0.14990234375,7.251908396946565,5.687022900763359,-1.4045801526717556
8.46,0.1357421875,-1.0166015625,0.162841796875,8.450381679389313,7.67175572519084,-2.236641221374046
8.47,0.1162109375,-0.988525390625,0.19091796875,9.312977099236642,7.8396946564885495,-2.49618320610687
8.48,0.1171875,-0.98828125,0.186279296875,9.297709923664122,7.122137404580153,-3.877862595419847
8.49,0.093994140625,-1.000244140625,0.164794921875,11.34351145038168,7.358778625954199,-0.6870229007633588
8.5,0.124755859375,-0.98583984375,0.158447265625,11.732824427480915,7.885496183206107,0.8091603053435115
8.51,0.12109375,-0.975341796875,0.148193359375,14.48091603053435,8.511450381679388,2.1374045801526718
8.52,0.132568359375,-0.9609375,0.13330078125,13.83969465648855,8.442748091603054,3.1297709923664123
8.53,0.146240234375,-0.950439453125,0.1181640625,12.86259541984733,8.67175572519084,3.4732824427480917
8.54,0.16162109375,-0.93212890625,0.09814453125,10.351145038167939,8.84732824427481,3.2519083969465647
8.55,0.175537109375,-0.921875,0.090087890625,8.770992366412214,9.022900763358779,2.7404580152671754
8.56,0.19677734375,-0.921630859375,0.064697265625,5.259541984732825,9.664122137404581,1.3893129770992367
8.57,0.211669921875,-0.939697265625,0.06494140625,0.8778625954198473,9.427480916030534,-1.0687022900763359
8.58,0.197509765625,-0.97998046875,0.080078125,-3.6946564885496183,9.748091603053435,-4.6106870229007635
8.59,0.192626953125,-1.016845703125,0.1171875,-8.106870229007633,7.687022900763359,-9.274809160305344
8.6,0.158935546875,-1.091064453125,0.135009765625,-9.229007633587786,2.435114503816794,-11.755725190839694
8.61,0.157470703125,-1.096435546875,0.16259765625,-6.7251908396946565,0.42748091603053434,-16.068702290076335
8.62,0.160400390625,-1.05908203125,0.196044921875,-3.9160305343511452,-1.6030534351145038,-16.83969465648855
8.63,0.13623046875,-1.032958984375,0.228271484375,-3.900763358778626,-9.206106870229007,-17.297709923664122
8.64,0.14697265625,-1.0439453125,0.258056640625,-5.717557251908397,-6.778625954198473,-18.14503816793893
8.65,0.107177734375,-1.081298828125,0.2734375,-5.824427480916031,-7.5038167938931295,-19.14503816793893
8.66,0.08251953125,-1.126708984375,0.297119140625,-3.4885496183206106,-10.290076335877863,-19.938931297709924
8.67,0.095458984375,-1.110107421875,0.3037109375,-0.48091603053435117,-12.045801526717558,-19.46564885496183
8.68,0.1162109375,-1.0615234375,0.272216796875,0.015267175572519083,-11.351145038167939,-18.18320610687023
8.69,0.137939453125,-1.025390625,0.220703125,-1.5648854961832062,-11.549618320610687,-16.931297709923665
8.7,0.153076171875,-0.986083984375,0.18310546875,-1.4427480916030535,-11.587786259541986,-15.282442748091603
8.71,0.155029296875,-0.959716796875,0.1884765625,-2.9618320610687023,-12.17557251908397,-13.282442748091603
8.72,0.18505859375,-0.948974609375,0.18408203125,-7.030534351145038,-11.763358778625955,-11.82442748091603
8.73,0.176513671875,-0.982177734375,0.1826171875,-10.86259541984733,-10.641221374045802,-10.374045801526718
8.74,0.180419921875,-1.0078125,0.168701171875,-12.580152671755725,-10.15267175572519,-8.763358778625955
8.75,0.19091796875,-1.022705078125,0.179443359375,-11.854961832061068,-9.541984732824428,-7.030534351145038
8.76,0.19921875,-1.02685546875,0.199951171875,-13.694656488549619,-8.01526717557252,-4.641221374045801
8.77,0.177001953125,-1.0498046875,0.210693359375,-16.977099236641223,-7.267175572519084,-2.5419847328244276
8.78,0.17724609375,-1.07568359375,0.247802734375,-14.938931297709924,-4.198473282442748,-0.9618320610687023
8.79,0.171630859375,-1.0771484375,0.30615234375,-10.740458015267176,-4.145038167938932,0.08396946564885496
8.8,0.15380859375,-1.06103515625,0.3251953125,-8.221374045801527,-4.267175572519084,-0.25190839694656486
8.81,0.16650390625,-1.022216796875,0.318359375,-5.0,-1.4580152671755726,-1.5954198473282444
8.82,0.15869140625,-0.98486328125,0.33056640625,-1.6717557251908397,-1.6717557251908397,-1.9770992366412214
8.83,0.182373046875,-0.943603515625,0.31396484375,0.2595419847328244,0.5572519083969466,-7.061068702290076
8.84,0.1796875,-0.922119140625,0.32421875,0.4122137404580153,3.1908396946564888,-10.221374045801527
8.85,0.1533203125,-0.900390625,0.329833984375,0.0,5.435114503816794,-13.053435114503817
8.86,0.124267578125,-0.898681640625,0.3408203125,-0.1984732824427481,6.938931297709924,-14.755725190839694
8.87,0.086669921875,-0.9189453125,0.3564453125,0.22137404580152673,7.152671755725191,-16.076335877862597
8.88,0.06982421875,-0.94873046875,0.33935546875,2.1908396946564888,7.320610687022901,-15.86259541984733
8.89,0.059814453125,-0.9765625,0.315185546875,2.732824427480916,7.190839694656488,-15.083969465648854
8.9,0.047607421875,-1.0029296875,0.28125,2.564885496183206,6.290076335877862,-13.099236641221374
8.91,0.047607421875,-1.02001953125,0.26708984375,1.1297709923664123,6.2748091603053435,-10.122137404580153
8.92,0.036376953125,-0.995361328125,0.222412109375,-7.213740458015267,8.450381679389313,-6.877862595419847
8.93,0.01025390625,-1.04833984375,0.20703125,-6.961832061068702,2.8473282442748094,-3.0381679389312977
8.94,0.026123046875,-1.06884765625,0.1796875,-2.6946564885496183,1.4274809160305344,0.32061068702290074
8.95,0.015625,-1.038818359375,0.197265625,-4.442748091603053,2.7022900763358777,2.877862595419847
8.96,0.044677734375,-1.005615234375,0.197509765625,-8.442748091603054,3.9923664122137406,4.9465648854961835
8.97,0.04931640625,-1.03955078125,0.197509765625,-8.946564885496183,5.549618320610687,7.358778625954199
8.98,0.0693359375,-1.07275390625,0.187255859375,-6.603053435114504,4.625954198473282,9.732824427480915
8.99,0.102294921875,-1.04736328125,0.187255859375,-8.045801526717558,4.679389312977099,9.770992366412214
9.0,0.12451171875,-1.020751953125,0.186279296875,-8.625954198473282,7.366412213740458,13.198473282442748
9.01,0.122314453125,-1.0068359375,0.17578125,-6.320610687022901,7.587786259541985,13.564885496183207
9.02,0.094482421875,-1.0126953125,0.152099609375,-3.427480916030534,7.129770992366412,12.908396946564885
9.03,0.102294921875,-0.971435546875,0.132568359375,-1.4427480916030535,6.786259541984733,11.526717557251908
9.04,0.097900390625,-0.957763671875,0.13525390625,-1.9465648854961832,4.99236641221374,9.648854961832061
9.05,0.097900390625,-0.96142578125,0.130615234375,1.7404580152671756,2.1908396946564888,8.213740458015268
9.06,0.1201171875,-0.970458984375,0.15283203125,4.015267175572519,0.8015267175572519,6.557251908396947
9.07,0.118408203125,-0.971435546875,0.172119140625,4.931297709923665,-0.3511450381679389,5.435114503816794
9.08,0.11328125,-0.982666015625,0.185791015625,5.770992366412214,-1.366412213740458,4.885496183206107
9.09,0.114013671875,-0.977294921875,0.195556640625,6.549618320610687,1.0534351145038168,4.66412213740458
9.1,0.099853515625,-0.96728515625,0.184814453125,7.152671755725191,4.465648854961832,4.572519083969466
9.11,0.083984375,-0.95458984375,0.177734375,6.396946564885496,5.152671755725191,3.83206106870229
9.12,0.067138671875,-0.943115234375,0.14306640625,5.549618320610687,5.770992366412214,2.4427480916030535
9.13,0.052490234375,-0.943359375,0.152587890625,5.534351145038168,2.786259541984733,1.3206106870229009
9.14,0.05615234375,-0.947509765625,0.141845703125,5.580152671755725,2.877862595419847,0.5190839694656488
9.15,0.065185546875,-0.951416015625,0.141845703125,4.717557251908397,0.2595419847328244,-0.22900763358778625
9.16,0.085693359375,-0.957275390625,0.1318359375,4.9541984732824424,-1.366412213740458,-0.7022900763358778
9.17,0.081298828125,-0.966796875,0.125244140625,6.076335877862595,-1.5190839694656488,-1.5114503816793894
9.18,0.095947265625,-0.967041015625,0.117919921875,6.740458015267175,-2.1297709923664123,-2.3893129770992365
9.19,0.103759765625,-0.984375,0.11376953125,6.366412213740458,-4.717557251908397,-3.450381679389313
9.2,0.106201171875,-1.00390625,0.110107421875,7.625954198473282,-6.557251908396947,-4.396946564885496
9.21,0.0947265625,-0.995849609375,0.12451171875,10.511450381679388,-8.84732824427481,-5.977099236641221
9.22,0.088134765625,-0.992919921875,0.134521484375,13.450381679389313,-11.694656488549619,-7.099236641221374
9.23,0.06982421875,-0.990966796875,0.1240234375,16.206106870229007,-13.320610687022901,-8.442748091603054
9.24,0.05029296875,-0.97216796875,0.109375,17.946564885496183,-16.404580152671755,-9.549618320610687
9.25,0.04345703125,-0.999267578125,0.106201171875,18.977099236641223,-18.580152671755727,-10.442748091603054
9.26,0.013916015625,-0.9990234375,0.10009765625,18.900763358778626,-20.27480916030534,-10.404580152671755
9.27,-0.003173828125,-0.987060546875,0.089111328125,17.03053435114504,-21.419847328244273,-8.618320610687023
9.28,-0.007080078125,-0.99853515625,0.095703125,14.267175572519085,-21.793893129770993,-6.015267175572519
9.29,0.041015625,-0.996337890625,0.10986328125,10.32824427480916,-20.870229007633586,-3.145038167938931
9.3,0.0859375,-1.00146484375,0.12939453125,6.938931297709924,-18.732824427480917,-0.42748091603053434
9.31,0.118896484375,-0.997314453125,0.150634765625,4.106870229007634,-16.755725190839694,1.0458015267175573
9.32,0.121826171875,-0.978271484375,0.16845703125,2.854961832061069,-14.725190839694656,1.6412213740458015
9.33,0.11279296875,-0.95849609375,0.130859375,1.8778625954198473,-14.091603053435115,2.1603053435114505
9.34,0.123779296875,-0.955322265625,0.14501953125,2.0076335877862594,-14.610687022900763,1.748091603053435
9.35,0.11962890625,-0.986572265625,0.150634765625,3.3435114503816794,-14.709923664122137,1.5572519083969465
9.36,0.1318359375,-0.994873046875,0.132568359375,4.923664122137405,-14.51908396946565,0.7099236641221374
9.37,0.121826171875,-1.005126953125,0.107421875,6.3893129770992365,-14.770992366412214,-0.48854961832061067
9.38,0.106201171875,-1.01904296875,0.075927734375,7.870229007633588,-15.80916030534351,-0.05343511450381679
9.39,0.0859375,-1.0205078125,0.035400390625,8.709923664122137,-17.52671755725191,-3.1297709923664123
9.4,0.0546875,-1.005859375,0.00244140625,6.679389312977099,-20.83206106870229,-3.786259541984733
9.41,0.035888671875,-1.013671875,0.0380859375,2.6259541984732824,-15.007633587786259,-2.595419847328244
9.42,-0.009033203125,-1.003662109375,0.001220703125,-2.1908396946564888,-24.977099236641223,0.35877862595419846
9.43,0.047119140625,-1.031982421875,0.0048828125,-10.931297709923664,-27.53435114503817,4.9465648854961835
9.44,0.0810546875,-1.0419921875,0.047607421875,-14.259541984732824,-25.69465648854962,7.916030534351145
9.45,0.1015625,-1.010986328125,0.1298828125,-15.961832061068701,-23.12213740458015,14.030534351145038
9.46,0.099365234375,-1.006103515625,0.17529296875,-19.610687022900763,-20.38167938931298,16.587786259541986
9.47,0.114990234375,-1.04052734375,0.1865234375,-26.061068702290076,-18.572519083969464,18.213740458015266
9.48,0.143798828125,-1.0791015625,0.21728515625,-27.6793893129771,-14.778625954198473,20.65648854961832
9.49,0.219970703125,-1.133056640625,0.27001953125,-29.083969465648856,-9.251908396946565,23.938931297709924
9.5,0.25439453125,-1.182373046875,0.338134765625,-30.587786259541986,-1.3587786259541985,26.47328244274809
9.51,0.264404296875,-1.190673828125,0.352783203125,-30.358778625954198,7.183206106870229,27.732824427480917
9.52,0.237060546875,-1.166748046875,0.354736328125,-28.549618320610687,14.549618320610687,26.259541984732824
9.53,0.202392578125,-1.10546875,0.32470703125,-27.801526717557252,15.366412213740459,22.34351145038168
9.54,0.138427734375,-1.0546875,0.31005859375,-26.564885496183205,15.19083969465649,17.236641221374047
9.55,0.067626953125,-1.0224609375,0.3212890625,-25.16030534351145,13.83206106870229,11.98473282442748
9.56,0.02734375,-1.010986328125,0.34326171875,-23.16793893129771,11.793893129770993,7.656488549618321
9.57,0.009765625,-0.981201171875,0.362060546875,-21.870229007633586,9.419847328244275,4.67175572519084
9.58,0.00048828125,-0.957275390625,0.36474609375,-19.229007633587788,6.290076335877862,3.648854961832061
9.59,0.027099609375,-0.94580078125,0.372802734375,-15.793893129770993,3.045801526717557,3.5801526717557253
9.6,0.064697265625,-0.927001953125,0.35888671875,-12.34351145038168,1.0916030534351144,4.358778625954199
9.61,0.107177734375,-0.925048828125,0.355224609375,-8.34351145038168,0.8320610687022901,3.9160305343511452
9.62,0.14697265625,-0.930419921875,0.33837890625,-5.938931297709924,1.3893129770992367,7.923664122137405
9.63,0.167724609375,-0.949951171875,0.36279296875,-4.427480916030534,2.3206106870229006,9.992366412213741
9.64,0.1787109375,-1.00341796875,0.33935546875,-5.633587786259542,3.267175572519084,12.16793893129771
9.65,0.18359375,-1.0478515625,0.336181640625,-6.374045801526718,4.8320610687022905,13.877862595419847
9.66,0.1845703125,-1.06298828125,0.303955078125,-8.053435114503817,6.709923664122138,14.114503816793894
9.67,0.185546875,-1.04345703125,0.283203125,-9.870229007633588,7.961832061068702,12.435114503816793
9.68,0.1748046875,-1.031982421875,0.243896484375,-16.34351145038168,8.633587786259541,8.572519083969466
9.69,0.170654296875,-1.025390625,0.24853515625,-17.717557251908396,8.16793893129771,3.145038167938931
9.7,0.144775390625,-1.0400390625,0.220458984375,-21.442748091603054,7.297709923664122,-0.015267175572519083
9.71,0.127685546875,-1.050048828125,0.240478515625,-19.38167938931298,6.66412213740458,-4.068702290076335
9.72,0.127197265625,-1.072265625,0.270751953125,-15.358778625954198,6.709923664122138,-8.419847328244275
9.73,0.125244140625,-1.0966796875,0.269287109375,-7.488549618320611,7.0,-10.290076335877863
9.74,0.122314453125,-1.103759765625,0.256591796875,-3.3587786259541983,6.076335877862595,-11.541984732824428
9.75,0.133544921875,-1.095458984375,0.2080078125,-0.9847328244274809,6.2748091603053435,-11.938931297709924
9.76,0.1279296875,-1.087646484375,0.179931640625,1.7251908396946565,5.442748091603053,-9.793893129770993
9.77,0.130615234375,-1.06494140625,0.154296875,4.5038167938931295,3.9923664122137406,-11.122137404580153
9.78,0.132568359375,-1.024169921875,0.15234375,7.396946564885496,2.7099236641221376,-10.236641221374045
9.79,0.135498046875,-0.988037109375,0.138427734375,8.374045801526718,4.412213740458015,-9.404580152671755
9.8,0.142578125,-0.947021484375,0.1455078125,7.32824427480916,5.305343511450381,-8.587786259541986
9.81,0.142578125,-0.926025390625,0.134033203125,5.931297709923665,7.068702290076335,-8.16793893129771
9.82,0.131591796875,-0.920166015625,0.130859375,5.259541984732825,8.19083969465649,-7.679389312977099
9.83,0.130615234375,-0.9130859375,0.1416015625,4.534351145038168,8.931297709923664,-7.358778625954199
9.84,0.140380859375,-0.9013671875,0.14794921875,3.2748091603053435,9.15267175572519,-6.9465648854961835
9.85,0.140380859375,-0.89501953125,0.125244140625,2.8244274809160306,9.114503816793894,-6.32824427480916
9.86,0.138671875,-0.905029296875,0.14990234375,2.198473282442748,8.83969465648855,-5.809160305343512
9.87,0.13671875,-0.904541015625,0.140625,1.6030534351145038,8.84732824427481,-4.480916030534351
9.88,0.14404296875,-0.91357421875,0.1357421875,0.5114503816793893,9.633587786259541,-3.0381679389312977
9.89,0.142333984375,-0.924560546875,0.129638671875,-0.8549618320610687,10.145038167938932,-1.3435114503816794
9.9,0.129638671875,-0.92529296875,0.125,-1.7099236641221374,10.374045801526718,0.2748091603053435
9.91,0.112548828125,-0.94287109375,0.119873046875,-2.633587786259542,9.541984732824428,2.099236641221374
9.92,0.087646484375,-0.935791015625,0.119873046875,-2.4198473282442747,8.320610687022901,4.0458015267175576
9.93,0.08349609375,-0.94775390625,0.117431640625,-0.015267175572519083,7.480916030534351,6.083969465648855
9.94,0.10009765625,-0.958740234375,0.08935546875,-0.7480916030534351,8.366412213740459,8.396946564885496
9.95,0.106689453125,-0.97607421875,0.072998046875,1.3282442748091603,9.923664122137405,10.396946564885496
9.96,0.11376953125,-0.977783203125,0.05859375,3.8396946564885495,11.748091603053435,11.916030534351146
9.97,0.12890625,-0.961669921875,0.0517578125,5.366412213740458,14.030534351145038,12.954198473282442
9.98,0.1474609375,-0.955810546875,0.0478515625,5.816793893129771,15.80916030534351,13.17557251908397
9.99,0.157470703125,-0.95703125,0.040771484375,6.282442748091603,19.65648854961832,13.038167938931299
10.0,0.173095703125,-0.995849609375,0.043701171875,8.045801526717558,18.50381679389313,11.648854961832061
10.01,0.18212890625,-1.005126953125,0.0498046875,8.854961832061068,18.129770992366414,9.580152671755725
10.02,0.17724609375,-1.026611328125,0.054931640625,8.427480916030534,16.96946564885496,6.595419847328245
10.03,0.15478515625,-1.048095703125,0.05615234375,7.885496183206107,15.549618320610687,4.221374045801527
10.04,0.148681640625,-1.080810546875,0.068115234375,6.549618320610687,9.488549618320612,1.4885496183206106
10.05,0.1474609375,-1.088134765625,0.07666015625,6.557251908396947,4.068702290076335,1.8931297709923665
10.06,0.1669921875,-1.105712890625,0.111572265625,5.709923664122138,3.885496183206107,-1.0916030534351144
10.07,0.14306640625,-1.078857421875,0.15185546875,6.0534351145038165,1.3740458015267176,-0.8625954198473282
10.08,0.140380859375,-1.06005859375,0.1826171875,7.297709923664122,2.427480916030534,-0.5190839694656488
10.09,0.12646484375,-1.04541015625,0.193115234375,8.16030534351145,4.458015267175573,0.3053435114503817
10.1,0.120361328125,-1.044677734375,0.186279296875,10.603053435114504,9.938931297709924,1.3282442748091603
10.11,0.115478515625,-1.025390625,0.160888671875,13.435114503816793,9.618320610687023,2.9770992366412212
10.12,0.134765625,-1.00048828125,0.1357421875,14.610687022900763,12.122137404580153,4.7251908396946565
10.13,0.16552734375,-1.001953125,0.10498046875,15.916030534351146,16.137404580152673,5.877862595419847
10.14,0.185302734375,-0.987548828125,0.07763671875,15.641221374045802,17.419847328244273,6.1679389312977095
10.15,0.210693359375,-0.98095703125,0.0634765625,17.786259541984734,17.572519083969464,5.068702290076335
10.16,0.216796875,-0.9521484375,0.065673828125,13.748091603053435,18.580152671755727,1.7251908396946565
10.17,0.15185546875,-0.9697265625,0.072998046875,9.618320610687023,19.49618320610687,-2.1526717557251906
10.18,0.127685546875,-1.015869140625,0.119140625,2.7022900763358777,12.641221374045802,-11.587786259541986
10.19,0.1357421875,-1.01806640625,0.162841796875,1.3893129770992367,9.15267175572519,-17.31297709923664
10.2,0.13623046875,-0.971435546875,0.24462890625,-1.748091603053435,7.748091603053435,-20.442748091603054
10.21,0.098388671875,-0.975830078125,0.250244140625,-7.572519083969466,2.8931297709923665,-21.85496183206107
10.22,0.06396484375,-1.0546875,0.259765625,-10.114503816793894,0.4580152671755725,-21.53435114503817
10.23,0.0361328125,-1.136474609375,0.28662109375,-9.106870229007633,-4.511450381679389,-25.404580152671755
10.24,0.002197265625,-1.141845703125,0.288330078125,-7.900763358778626,-9.106870229007633,-26.870229007633586
10.25,-0.020751953125,-1.13427734375,0.300048828125,-6.931297709923665,-9.427480916030534,-27.389312977099237
10.26,-0.060546875,-1.0859375,0.28515625,-5.984732824427481,-16.51145038167939,-25.893129770992367
10.27,-0.023193359375,-1.02001953125,0.226318359375,-7.641221374045801,-17.763358778625953,-23.00763358778626
10.28,0.017333984375,-0.990966796875,0.166015625,-7.9541984732824424,-16.893129770992367,-18.022900763358777
10.29,0.064208984375,-0.955322265625,0.181640625,-7.778625954198473,-18.49618320610687,-12.419847328244275
10.3,0.137451171875,-0.94677734375,0.1943359375,-8.893129770992367,-17.870229007633586,-7.694656488549619
10.31,0.174072265625,-0.96826171875,0.23876953125,-10.183206106870228,-15.992366412213741,-4.290076335877862
10.32,0.184814453125,-1.002685546875,0.265869140625,-10.648854961832061,-14.854961832061068,-2.7251908396946565
10.33,0.171875,-1.022216796875,0.302490234375,-9.84732824427481,-14.893129770992367,-2.954198473282443
10.34,0.143310546875,-1.02978515625,0.321044921875,-7.549618320610687,-19.72519083969466,-4.709923664122138
10.35,0.15966796875,-1.02001953125,0.355712890625,-4.656488549618321,-16.572519083969464,-6.916030534351145
10.36,0.1376953125,-1.0048828125,0.360595703125,-1.5877862595419847,-11.916030534351146,-8.83969465648855
10.37,0.103515625,-0.964599609375,0.39990234375,-0.007633587786259542,-10.977099236641221,-10.045801526717558
10.38,0.06591796875,-0.927734375,0.37939453125,0.7480916030534351,-7.137404580152672,-10.770992366412214
10.39,0.0390625,-0.914306640625,0.364990234375,2.7480916030534353,-5.8320610687022905,-10.541984732824428
10.4,0.013671875,-0.90234375,0.33837890625,4.435114503816794,-5.0,-10.412213740458014
10.41,0.00390625,-0.900146484375,0.30419921875,4.396946564885496,-5.541984732824427,-10.381679389312977
10.42,0.02587890625,-0.920654296875,0.2783203125,2.854961832061069,-3.4122137404580153,-10.763358778625955
10.43,0.04345703125,-0.93994140625,0.278564453125,1.5648854961832062,-2.8702290076335877,-10.854961832061068
10.44,0.03662109375,-0.98876953125,0.2607421875,-0.015267175572519083,-2.954198473282443,-9.923664122137405
10.45,0.05810546875,-1.01611328125,0.26416015625,-0.20610687022900764,-4.106870229007634,-8.732824427480915
10.46,0.054443359375,-1.031005859375,0.25537109375,0.12213740458015267,-4.9541984732824424,-6.412213740458015
10.47,0.043701171875,-1.028076171875,0.25,-2.1068702290076335,-5.541984732824427,-3.2595419847328246
10.48,0.0556640625,-1.029541015625,0.244873046875,-1.4809160305343512,-5.549618320610687,0.44274809160305345
10.49,0.09228515625,-1.03076171875,0.246826171875,-0.7862595419847328,-1.099236641221374,4.068702290076335
10.5,0.083740234375,-0.9951171875,0.22314453125,-4.374045801526718,0.1984732824427481,6.32824427480916
10.51,0.088623046875,-1.002685546875,0.1904296875,-6.458015267175573,1.1374045801526718,8.412213740458014
10.52,0.097412109375,-1.0380859375,0.180908203125,-6.091603053435114,0.9312977099236641,9.961832061068701
10.53,0.114990234375,-1.06396484375,0.182861328125,-6.32824427480916,1.6259541984732824,10.061068702290076
10.54,0.115966796875,-1.06982421875,0.179931640625,-5.870229007633588,4.633587786259542,8.633587786259541
10.55,0.10888671875,-1.056884765625,0.18310546875,-6.99236641221374,4.526717557251908,7.2748091603053435
10.56,0.1044921875,-1.048095703125,0.177978515625,-4.900763358778626,3.8091603053435112,5.931297709923665
10.57,0.10498046875,-1.0234375,0.16943359375,-3.4732824427480917,3.7709923664122136,4.732824427480916
10.58,0.098876953125,-1.00146484375,0.162109375,-2.099236641221374,3.8396946564885495,4.404580152671755
10.59,0.101806640625,-1.001220703125,0.16796875,1.0305343511450382,4.267175572519084,4.259541984732825
10.6,0.103515625,-0.98876953125,0.182373046875,2.4198473282442747,5.038167938931298,4.267175572519084
10.61,0.1103515625,-0.9775390625,0.174072265625,2.877862595419847,6.038167938931298,4.33587786259542
10.62,0.107421875,-0.970458984375,0.17236328125,3.2290076335877864,7.312977099236641,3.954198473282443
10.63,0.102294921875,-0.955810546875,0.1650390625,3.687022900763359,7.648854961832061,3.366412213740458
10.64,0.0859375,-0.9453125,0.141845703125,4.152671755725191,7.458015267175573,2.3893129770992365
10.65,0.06982421875,-0.948974609375,0.147216796875,4.091603053435114,5.900763358778626,1.3511450381679388
10.66,0.061767578125,-0.933349609375,0.152587890625,3.480916030534351,6.625954198473282,0.5725190839694656
10.67,0.052978515625,-0.951904296875,0.127197265625,2.8091603053435112,4.755725190839694,-1.9465648854961832
10.68,0.059326171875,-0.95751953125,0.145263671875,2.16793893129771,4.641221374045801,-0.4198473282442748
10.69,0.068603515625,-0.969482421875,0.1416015625,2.404580152671756,4.786259541984733,-1.1221374045801527
10.7,0.0703125,-0.96728515625,0.135498046875,2.9389312977099236,3.9618320610687023,-1.8931297709923665
10.71,0.105712890625,-0.977783203125,0.118896484375,2.381679389312977,2.954198473282443,-2.9618320610687023
10.72,0.1015625,-0.97802734375,0.118408203125,2.595419847328244,2.0610687022900764,-4.106870229007634
10.73,0.103759765625,-0.984130859375,0.112548828125,3.83206106870229,1.5648854961832062,-5.282442748091603
10.74,0.10498046875,-0.978759765625,0.1162109375,5.564885496183206,0.7251908396946565,-6.862595419847328
10.75,0.096923828125,-0.975830078125,0.10986328125,7.572519083969466,0.015267175572519083,-8.572519083969466
10.76,0.091796875,-0.984130859375,0.10986328125,10.305343511450381,-0.366412213740458,-10.213740458015268
10.77,0.08642578125,-0.954345703125,0.095947265625,12.82442748091603,-1.8854961832061068,-11.65648854961832
10.78,0.078125,-0.944580078125,0.100830078125,14.13740458015267,-3.351145038167939,-12.954198473282442
10.79,0.080078125,-0.916748046875,0.09716796875,14.305343511450381,-4.557251908396947,-13.633587786259541
10.8,0.06982421875,-0.905029296875,0.08251953125,13.938931297709924,-5.068702290076335,-13.793893129770993
10.81,0.061767578125,-0.915771484375,0.081298828125,13.267175572519085,-5.862595419847328,-13.580152671755725
10.82,0.037841796875,-0.932373046875,0.08837890625,10.854961832061068,-8.274809160305344,-12.076335877862595
10.83,0.0546875,-0.96337890625,0.090087890625,6.847328244274809,-9.992366412213741,-10.251908396946565
10.84,0.10888671875,-1.00927734375,0.096923828125,3.0,-10.65648854961832,-8.83206106870229
10.85,0.150146484375,-1.037353515625,0.119873046875,-0.45038167938931295,-10.229007633587786,-8.34351145038168
10.86,0.15283203125,-1.012939453125,0.13525390625,-2.9160305343511452,-8.98473282442748,-7.213740458015267
10.87,0.135009765625,-0.9833984375,0.152099609375,-3.854961832061069,-4.702290076335878,-5.511450381679389
10.88,0.121337890625,-0.96533203125,0.165771484375,-4.251908396946565,-1.5190839694656488,-3.7480916030534353
10.89,0.0859375,-0.979736328125,0.148681640625,-3.267175572519084,-1.7328244274809161,-2.480916030534351
10.9,0.072998046875,-0.9970703125,0.123779296875,-1.7404580152671756,-2.6564885496183206,-2.5343511450381677
10.91,0.05029296875,-1.01123046875,0.117919921875,1.5877862595419847,-3.9618320610687023,-3.3740458015267176
10.92,0.0439453125,-1.036865234375,0.10595703125,3.9923664122137406,-8.618320610687023,-4.717557251908397
10.93,0.02587890625,-1.0244140625,0.094970703125,8.396946564885496,-10.908396946564885,-5.221374045801527
10.94,-0.0126953125,-1.024658203125,0.07958984375,7.908396946564886,-13.938931297709924,-4.786259541984733
10.95,-0.02197265625,-1.017822265625,0.070068359375,4.755725190839694,-10.587786259541986,-2.954198473282443
10.96,-0.0595703125,-1.017578125,0.01953125,-1.6488549618320612,-19.282442748091604,0.29770992366412213
10.97,0.006591796875,-1.058349609375,0.002197265625,-5.877862595419847,-23.519083969465647,5.297709923664122
10.98,0.067626953125,-1.08251953125,0.064697265625,-9.297709923664122,-24.85496183206107,10.51908396946565
10.99,0.10400390625,-1.061279296875,0.128662109375,-7.847328244274809,-22.16030534351145,13.908396946564885
11.0,0.103271484375,-1.043701171875,0.173095703125,-12.610687022900763,-22.061068702290076,15.526717557251908
11.01,0.114501953125,-1.049072265625,0.157470703125,-14.374045801526718,-19.30534351145038,16.38167938931298
11.02,0.126220703125,-1.076416015625,0.18408203125,-15.122137404580153,-17.641221374045802,17.16030534351145
11.03,0.16796875,-1.119384765625,0.20458984375,-15.511450381679388,-16.229007633587788,18.091603053435115
11.04,0.20947265625,-1.17138671875,0.25732421875,-16.52671755725191,-12.290076335877863,18.595419847328245
11.05,0.21875,-1.174560546875,0.277099609375,-15.244274809160306,-6.961832061068702,18.603053435114504
11.06,0.19189453125,-1.16064453125,0.27783203125,-14.16793893129771,-2.0839694656488548,18.358778625954198
11.07,0.166259765625,-1.130859375,0.246826171875,-13.320610687022901,0.7022900763358778,17.297709923664122
11.08,0.148681640625,-1.1103515625,0.233642578125,-12.908396946564885,1.9923664122137406,15.65648854961832
11.09,0.1396484375,-1.080322265625,0.261474609375,-13.396946564885496,6.961832061068702,13.335877862595419
11.1,0.0859375,-1.07861328125,0.291259765625,-14.541984732824428,6.427480916030534,10.198473282442748
11.11,0.056640625,-1.07958984375,0.294677734375,-12.396946564885496,4.458015267175573,6.33587786259542
11.12,0.0205078125,-1.045166015625,0.29541015625,-9.48091603053435,2.2442748091603053,2.198473282442748
11.13,-0.01318359375,-0.998779296875,0.304443359375,-10.106870229007633,-0.8931297709923665,-0.44274809160305345
11.14,-0.044921875,-0.963134765625,0.31982421875,-11.694656488549619,-3.2977099236641223,-1.3893129770992367
11.15,-0.058349609375,-0.929931640625,0.302490234375,-10.938931297709924,-5.244274809160306,-0.2900763358778626
11.16,-0.0361328125,-0.910400390625,0.2939453125,-9.16793893129771,-6.709923664122138,2.3282442748091605
11.17,0.00048828125,-0.880615234375,0.32666015625,-8.076335877862595,-7.9541984732824424,5.519083969465649
11.18,0.084716796875,-0.870849609375,0.32470703125,-9.198473282442748,-7.679389312977099,8.404580152671755
11.19,0.17578125,-0.881103515625,0.299072265625,-9.053435114503817,-5.755725190839694,11.297709923664122
11.2,0.23486328125,-0.89453125,0.300048828125,-8.954198473282442,-2.1374045801526718,13.450381679389313
11.21,0.276611328125,-0.9140625,0.303466796875,-9.244274809160306,1.0229007633587786,14.427480916030534
11.22,0.2939453125,-0.935791015625,0.28125,-9.870229007633588,5.519083969465649,14.389312977099237
11.23,0.259521484375,-0.955810546875,0.277587890625,-12.17557251908397,9.022900763358779,13.511450381679388
11.24,0.223388671875,-0.97265625,0.25,-16.259541984732824,11.450381679389313,10.755725190839694
11.25,0.1767578125,-0.995361328125,0.230712890625,-20.30534351145038,11.938931297709924,6.66412213740458
11.26,0.151123046875,-1.02685546875,0.2294921875,-24.00763358778626,11.045801526717558,2.1526717557251906
11.27,0.1357421875,-1.052734375,0.21875,-24.450381679389313,11.702290076335878,-2.633587786259542
11.28,0.1162109375,-1.0693359375,0.2451171875,-23.49618320610687,7.893129770992366,-6.488549618320611
11.29,0.121826171875,-1.086669921875,0.260986328125,-18.87786259541985,6.412213740458015,-9.236641221374045
11.3,0.1513671875,-1.080078125,0.2568359375,-15.396946564885496,7.076335877862595,-11.198473282442748
11.31,0.125732421875,-1.066650390625,0.23583984375,-12.969465648854962,5.595419847328245,-12.335877862595419
11.32,0.1298828125,-1.06982421875,0.21435546875,-11.366412213740459,5.190839694656488,-13.221374045801527
11.33,0.154541015625,-1.0595703125,0.18115234375,-8.106870229007633,2.33587786259542,-13.86259541984733
