Time(s),AccX,AccY,AccZ,GyrX,GyrY,GyrZ
0.0,0.02734375,-0.99169921875,0.269287109375,-1.0381679389312977,-0.04580152671755725,-1.1221374045801527
0.01,0.02490234375,-0.992431640625,0.273193359375,-1.1297709923664123,-0.16030534351145037,-1.2290076335877862
0.02,0.02392578125,-0.986083984375,0.27392578125,-1.16793893129771,0.12213740458015267,-1.2061068702290076
0.03,0.02490234375,-0.98876953125,0.2822265625,-1.0,-0.1297709923664122,-0.9236641221374046
0.04,0.01953125,-0.9931640625,0.2724609375,-0.9541984732824428,0.05343511450381679,-1.0534351145038168
0.05,0.024658203125,-0.99462890625,0.279541015625,-0.9694656488549618,-1.9083969465648856,-0.9770992366412213
0.06,0.025634765625,-0.975830078125,0.278564453125,-1.0687022900763359,0.08396946564885496,-1.1068702290076335
0.07,0.02099609375,-0.999267578125,0.27783203125,-0.9541984732824428,0.022900763358778626,-1.1526717557251909
0.08,0.02490234375,-0.989501953125,0.266845703125,-0.916030534351145,-0.12213740458015267,-1.1145038167938932
0.09,0.01953125,-0.988037109375,0.273681640625,-1.1297709923664123,-0.183206106870229,-1.3282442748091603
0.1,0.02978515625,-0.985107421875,0.275634765625,-1.1603053435114503,-0.09923664122137404,-1.1221374045801527
0.11,0.02587890625,-0.988525390625,0.279296875,-1.0458015267175573,-1.9389312977099236,-1.1221374045801527
0.12,0.026123046875,-0.9931640625,0.277587890625,-0.9923664122137404,-0.07633587786259542,-1.0534351145038168
0.13,0.022216796875,-0.987060546875,0.283203125,-0.9465648854961832,0.09923664122137404,-1.0
0.14,0.02392578125,-0.97021484375,0.275146484375,-1.0458015267175573,-0.09923664122137404,-1.1450381679389312
0.15,0.0234375,-0.989013671875,0.272216796875,-1.0534351145038168,0.022900763358778626,-1.083969465648855
0.16,0.022216796875,-0.991455078125,0.279541015625,-0.9083969465648855,-1.9389312977099236,-1.1908396946564885
0.17,0.02685546875,-0.983642578125,0.274169921875,-1.099236641221374,0.05343511450381679,-1.0534351145038168
0.18,0.02880859375,-0.99169921875,0.265625,-0.9770992366412213,-0.04580152671755725,-1.1221374045801527
0.19,0.026123046875,-0.987548828125,0.272705078125,-1.1145038167938932,-0.07633587786259542,-1.1297709923664123
0.2,0.020263671875,-0.9951171875,0.27685546875,-1.0,-0.007633587786259542,-1.16793893129771
0.21,0.01708984375,-0.99072265625,0.266845703125,-1.0,0.06870229007633588,-1.0534351145038168
0.22,0.0234375,-0.988525390625,0.278076171875,-0.7938931297709924,-0.17557251908396945,-0.8702290076335878
0.23,0.023193359375,-0.9853515625,0.271240234375,-0.8015267175572519,-0.20610687022900764,-1.2290076335877862
0.24,0.022216796875,-0.989990234375,0.277099609375,-0.9770992366412213,1.8854961832061068,-1.0381679389312977
0.25,0.018310546875,-0.98779296875,0.272705078125,-0.9465648854961832,-0.12213740458015267,-1.1068702290076335
0.26,0.02294921875,-0.994384765625,0.274658203125,-1.2061068702290076,-0.12213740458015267,-1.0916030534351144
0.27,0.01513671875,-1.000244140625,0.26708984375,-1.0916030534351144,-0.17557251908396945,-1.0305343511450382
0.28,0.023193359375,-0.985107421875,0.28125,-1.0305343511450382,0.061068702290076333,-1.0458015267175573
0.29,0.021240234375,-0.992919921875,0.280517578125,-0.8015267175572519,-0.1450381679389313,-1.2290076335877862
0.3,0.024169921875,-0.99609375,0.28076171875,-0.8015267175572519,-0.06870229007633588,-1.2366412213740459
0.31,0.021240234375,-0.989990234375,0.270263671875,-0.8320610687022901,-0.15267175572519084,-1.1221374045801527
0.32,0.025390625,-0.98974609375,0.277099609375,-0.9465648854961832,-0.09923664122137404,-1.0229007633587786
0.33,0.022216796875,-0.987060546875,0.272705078125,-1.0229007633587786,-0.061068702290076333,-1.1526717557251909
0.34,0.01904296875,-0.988525390625,0.277587890625,-1.2213740458015268,-0.04580152671755725,-1.0534351145038168
0.35,0.025634765625,-0.98828125,0.269775390625,-1.1450381679389312,-0.0916030534351145,-1.1221374045801527
0.36,0.023681640625,-0.997802734375,0.278564453125,-1.1297709923664123,-0.0916030534351145,-1.1755725190839694
0.37,0.024169921875,-0.9921875,0.2724609375,-1.1297709923664123,0.08396946564885496,-1.083969465648855
0.38,0.0185546875,-0.987548828125,0.274658203125,-0.9312977099236641,-0.13740458015267176,-1.2748091603053435
0.39,0.01708984375,-0.9921875,0.2802734375,-0.7786259541984732,0.06870229007633588,-0.9618320610687023
0.4,0.015869140625,-0.99169921875,0.28662109375,-1.0229007633587786,0.183206106870229,-1.0687022900763359
0.41,0.021240234375,-0.99169921875,0.278076171875,-0.6946564885496184,0.20610687022900764,-1.1374045801526718
0.42,0.0234375,-0.984130859375,0.278564453125,-0.6335877862595419,0.5343511450381679,-1.2290076335877862
0.43,0.0244140625,-0.98828125,0.27294921875,-0.8931297709923665,0.40458015267175573,-1.0916030534351144
0.44,0.026123046875,-0.982421875,0.272705078125,-1.5114503816793894,0.1297709923664122,-1.2748091603053435
0.45,0.017578125,-0.989990234375,0.276611328125,-1.7786259541984732,-0.16793893129770993,-1.0305343511450382
0.46,0.01953125,-0.987060546875,0.27294921875,-1.1603053435114503,-0.6793893129770993,-0.9770992366412213
0.47,0.024658203125,-0.9892578125,0.275146484375,-0.5267175572519084,-0.13740458015267176,-1.1221374045801527
0.48,0.031005859375,-0.99365234375,0.29541015625,-0.12213740458015267,-1.9541984732824427,-1.2748091603053435
0.49,0.030517578125,-0.9912109375,0.295166015625,-0.4198473282442748,0.3053435114503817,-1.0
0.5,0.03271484375,-0.991455078125,0.280029296875,-0.8549618320610687,0.26717557251908397,-0.9312977099236641
0.51,0.015625,-0.992431640625,0.2763671875,-1.4732824427480915,0.2748091603053435,-0.9389312977099237
0.52,0.017333984375,-0.986083984375,0.269287109375,-1.5801526717557253,-0.1984732824427481,-1.0076335877862594
0.53,0.015869140625,-0.9873046875,0.275634765625,-1.2900763358778626,-0.3893129770992366,-1.2213740458015268
0.54,0.024169921875,-0.9912109375,0.2734375,-0.5954198473282443,-0.45038167938931295,-1.282442748091603
0.55,0.025146484375,-0.99072265625,0.28076171875,-0.6641221374045801,-0.2366412213740458,-1.3358778625954197
0.56,0.02685546875,-0.991455078125,0.28515625,-0.8244274809160306,1.9389312977099236,-1.0763358778625953
0.57,0.022705078125,-0.990478515625,0.265869140625,-1.015267175572519,0.04580152671755725,-1.1068702290076335
0.58,0.017333984375,-0.990966796875,0.279296875,-1.2671755725190839,0.29770992366412213,-1.0916030534351144
0.59,0.02001953125,-0.988037109375,0.279541015625,-1.3893129770992367,1.916030534351145,-1.1145038167938932
0.6,0.0166015625,-0.990234375,0.265869140625,-0.8778625954198473,-0.20610687022900764,-1.1526717557251909
0.61,0.02099609375,-0.987060546875,0.262451171875,-0.7480916030534351,-0.12213740458015267,-1.1603053435114503
0.62,0.023681640625,-0.99169921875,0.28369140625,-0.5572519083969466,-0.15267175572519084,-1.1145038167938932
0.63,0.02685546875,-0.9931640625,0.2822265625,-0.6564885496183206,-0.06870229007633588,-1.0763358778625953
0.64,0.02685546875,-0.98779296875,0.280029296875,-0.8396946564885496,-0.030534351145038167,-1.0229007633587786
0.65,0.023193359375,-0.988037109375,0.27880859375,-1.0458015267175573,0.09923664122137404,-1.1297709923664123
0.66,0.02392578125,-0.990478515625,0.250732421875,-1.4961832061068703,1.9236641221374047,-1.3206106870229009
0.67,0.02099609375,-0.99853515625,0.274658203125,-1.251908396946565,1.8931297709923665,-1.0763358778625953
0.68,0.027099609375,-0.987548828125,0.268310546875,-0.9694656488549618,-0.1450381679389313,-1.1450381679389312
0.69,0.031494140625,-0.991943359375,0.27490234375,-0.6641221374045801,-0.32061068702290074,-1.0458015267175573
0.7,0.026123046875,-0.991455078125,0.276123046875,-0.7938931297709924,-1.9312977099236641,-1.0229007633587786
0.71,0.0234375,-0.994384765625,0.268310546875,-0.8473282442748091,-0.061068702290076333,-0.9847328244274809
0.72,0.022705078125,-0.986083984375,0.2763671875,-0.9541984732824428,-0.06870229007633588,-0.9083969465648855
0.73,0.020263671875,-0.986572265625,0.277587890625,-0.9465648854961832,0.07633587786259542,-1.1145038167938932
0.74,0.024169921875,-0.985595703125,0.273681640625,-0.9312977099236641,-0.07633587786259542,-1.1068702290076335
0.75,0.02099609375,-0.986328125,0.2734375,-0.8473282442748091,-0.12213740458015267,-1.16793893129771
0.76,0.029052734375,-0.991455078125,0.281005859375,-0.9083969465648855,-1.9541984732824427,-1.2442748091603053
0.77,0.02587890625,-0.988525390625,0.273681640625,-0.9236641221374046,-1.9389312977099236,-1.0610687022900764
0.78,0.0234375,-0.98681640625,0.2802734375,-1.0,0.1297709923664122,-1.0687022900763359
0.79,0.0205078125,-0.98974609375,0.27294921875,-1.099236641221374,-0.061068702290076333,-1.1068702290076335
0.8,0.02734375,-0.98681640625,0.275634765625,-1.1908396946564885,-0.183206106870229,-1.1068702290076335
0.81,0.021728515625,-0.98681640625,0.266357421875,-1.083969465648855,-0.1297709923664122,-1.0763358778625953
0.82,0.025634765625,-0.987060546875,0.274169921875,-1.0,-0.24427480916030533,-1.2213740458015268
0.83,0.022705078125,-0.988525390625,0.27197265625,-0.8931297709923665,-0.015267175572519083,-1.083969465648855
0.84,0.021728515625,-0.998291015625,0.27978515625,-0.9236641221374046,-0.04580152671755725,-1.0916030534351144
0.85,0.022216796875,-0.988525390625,0.27734375,-1.0381679389312977,-0.08396946564885496,-1.1374045801526718
0.86,0.028076171875,-0.984619140625,0.279541015625,-1.1221374045801527,0.05343511450381679,-0.9541984732824428
0.87,0.0126953125,-0.99072265625,0.275390625,-1.0916030534351144,-0.061068702290076333,-1.083969465648855
0.88,0.019775390625,-0.986083984375,0.27978515625,-0.8396946564885496,0.09923664122137404,-1.0534351145038168
0.89,0.023193359375,-0.987548828125,0.268798828125,-0.9236641221374046,-0.17557251908396945,-1.0076335877862594
0.9,0.019775390625,-0.99169921875,0.27587890625,-0.9389312977099237,0.0916030534351145,-1.1221374045801527
0.91,0.02734375,-0.99072265625,0.295654296875,-0.8778625954198473,-0.16793893129770993,-1.0076335877862594
0.92,0.027099609375,-0.994140625,0.284912109375,-1.0381679389312977,1.9312977099236641,-1.2366412213740459
0.93,0.02392578125,-0.989013671875,0.26904296875,-1.213740458015267,0.16793893129770993,-1.0763358778625953
0.94,0.029052734375,-0.991455078125,0.27734375,-0.9694656488549618,-0.0916030534351145,-1.1145038167938932
0.95,0.02001953125,-0.993896484375,0.277099609375,-1.083969465648855,0.05343511450381679,-1.0610687022900764
0.96,0.0263671875,-0.9892578125,0.269287109375,-0.9236641221374046,-0.16030534351145037,-0.9923664122137404
0.97,0.024169921875,-0.99169921875,0.2724609375,-0.7480916030534351,1.9083969465648856,-1.0305343511450382
0.98,0.026123046875,-0.98876953125,0.279296875,-0.8320610687022901,-1.9541984732824427,-0.9618320610687023
0.99,0.01953125,-0.99365234375,0.268798828125,-0.8854961832061069,0.10687022900763359,-1.2290076335877862
1.0,0.017578125,-0.985595703125,0.280517578125,-1.0763358778625953,-0.030534351145038167,-1.2290076335877862
1.01,0.025146484375,-0.990478515625,0.279541015625,-1.0076335877862594,0.1297709923664122,-1.1984732824427482
1.02,0.017333984375,-0.9853515625,0.274658203125,-0.9236641221374046,-0.04580152671755725,-1.1603053435114503
1.03,0.02734375,-0.989501953125,0.271484375,-1.0534351145038168,-0.1984732824427481,-1.0687022900763359
1.04,0.022705078125,-0.98828125,0.272705078125,-0.9770992366412213,-0.11450381679389313,-0.9847328244274809
1.05,0.02783203125,-0.98974609375,0.2744140625,-0.6641221374045801,1.8473282442748091,-1.0076335877862594
1.06,0.025390625,-0.988525390625,0.27197265625,-1.0916030534351144,1.9236641221374047,-1.16793893129771
1.07,0.02392578125,-0.9921875,0.276611328125,-0.9389312977099237,0.030534351145038167,-1.251908396946565
1.08,0.026123046875,-0.972900390625,0.274658203125,-1.0610687022900764,-0.015267175572519083,-1.1145038167938932
1.09,0.01708984375,-0.99072265625,0.274169921875,-1.1755725190839694,-0.05343511450381679,-1.251908396946565
1.1,0.0224609375,-0.98681640625,0.266357421875,-1.1297709923664123,-0.29770992366412213,-1.2442748091603053
1.11,0.023681640625,-0.9912109375,0.268798828125,-0.8931297709923665,-0.3816793893129771,-0.916030534351145
1.12,0.028076171875,-0.98828125,0.27734375,-0.6259541984732825,-0.03816793893129771,-1.1297709923664123
1.13,0.0244140625,-0.98974609375,0.2724609375,-0.7175572519083969,0.04580152671755725,-0.9770992366412213
1.14,0.021728515625,-0.991455078125,0.263916015625,-0.8625954198473282,1.9465648854961832,-1.0610687022900764
1.15,0.0263671875,-0.98681640625,0.27978515625,-0.9847328244274809,-0.015267175572519083,-1.3358778625954197
1.16,0.030029296875,-0.98681640625,0.2783203125,-1.1984732824427482,-0.08396946564885496,-1.1755725190839694
1.17,0.02392578125,-0.986328125,0.2734375,-1.1450381679389312,-0.07633587786259542,-1.16793893129771
1.18,0.030517578125,-0.98486328125,0.271728515625,-0.816793893129771,-0.06870229007633588,-0.9847328244274809
1.19,0.02490234375,-0.970703125,0.27392578125,-1.083969465648855,0.1297709923664122,-1.0
1.2,0.025634765625,-0.99462890625,0.277099609375,-0.8396946564885496,-0.0916030534351145,-1.1374045801526718
1.21,0.0283203125,-0.990234375,0.27783203125,-1.0458015267175573,-0.022900763358778626,-1.0229007633587786
1.22,0.020751953125,-0.987060546875,0.28076171875,-1.1526717557251909,0.1450381679389313,-1.1450381679389312
1.23,0.02197265625,-0.98681640625,0.278564453125,-1.213740458015267,-1.9389312977099236,-1.0
1.24,0.02490234375,-0.9892578125,0.270751953125,-1.0229007633587786,0.0,-1.099236641221374
1.25,0.024169921875,-0.990966796875,0.271484375,-0.816793893129771,-0.06870229007633588,-1.1526717557251909
1.26,0.0224609375,-0.968994140625,0.275634765625,-0.7557251908396947,-1.9083969465648856,-1.0
1.27,0.028076171875,-0.98779296875,0.29296875,-0.7404580152671756,0.10687022900763359,-1.1526717557251909
1.28,0.02490234375,-0.998779296875,0.272705078125,-0.9923664122137404,-0.022900763358778626,-1.0763358778625953
1.29,0.023681640625,-0.986572265625,0.27685546875,-1.1755725190839694,0.0,-1.1450381679389312
1.3,0.02197265625,-0.98583984375,0.276611328125,-1.16793893129771,-0.030534351145038167,-1.1908396946564885
1.31,0.023193359375,-0.989013671875,0.27197265625,-1.2061068702290076,1.9465648854961832,-0.9465648854961832
1.32,0.013671875,-0.986572265625,0.275634765625,-1.0534351145038168,-0.19083969465648856,-1.251908396946565
1.33,0.026611328125,-0.992919921875,0.28515625,-0.9847328244274809,1.916030534351145,-1.0458015267175573
1.34,0.01708984375,-0.984619140625,0.2734375,-0.916030534351145,1.9312977099236641,-1.0916030534351144
1.35,0.0224609375,-0.987060546875,0.269775390625,-0.8396946564885496,-0.1297709923664122,-1.1145038167938932
1.36,0.020263671875,-0.99365234375,0.271728515625,-0.9007633587786259,-0.061068702290076333,-1.16793893129771
1.37,0.02685546875,-0.98681640625,0.277099609375,-0.9847328244274809,-0.22900763358778625,-1.1984732824427482
1.38,0.02001953125,-0.9892578125,0.273681640625,-1.0534351145038168,-0.030534351145038167,-1.2213740458015268
1.39,0.021484375,-0.983642578125,0.27490234375,-0.8473282442748091,-0.06870229007633588,-1.099236641221374
1.4,0.017333984375,-0.98974609375,0.275146484375,-0.9465648854961832,0.0,-1.0
1.41,0.023681640625,-0.985595703125,0.274169921875,-1.015267175572519,-0.09923664122137404,-0.9465648854961832
1.42,0.020751953125,-0.990966796875,0.28076171875,-0.9694656488549618,-0.04580152671755725,-1.1221374045801527
1.43,0.02001953125,-0.98974609375,0.27099609375,-1.1297709923664123,-0.007633587786259542,-1.0916030534351144
1.44,0.02001953125,-0.988525390625,0.2666015625,-1.0305343511450382,1.9465648854961832,-1.2061068702290076
1.45,0.024658203125,-0.991943359375,0.265869140625,-1.1755725190839694,-0.07633587786259542,-1.1603053435114503
1.46,0.025146484375,-0.992431640625,0.273681640625,-0.8015267175572519,-0.20610687022900764,-1.0763358778625953
1.47,0.0166015625,-0.986572265625,0.2783203125,-0.8091603053435115,0.16030534351145037,-1.0381679389312977
1.48,0.020263671875,-0.989501953125,0.2744140625,-0.9389312977099237,1.9465648854961832,-1.1603053435114503
1.49,0.019287109375,-0.9892578125,0.279052734375,-0.9541984732824428,-0.09923664122137404,-1.16793893129771
1.5,0.017822265625,-0.98779296875,0.268798828125,-1.099236641221374,-0.05343511450381679,-1.1374045801526718
1.51,0.024169921875,-0.987548828125,0.27685546875,-1.2213740458015268,0.13740458015267176,-1.1221374045801527
1.52,0.02685546875,-0.98974609375,0.2890625,-1.1145038167938932,-1.9389312977099236,-1.083969465648855
1.53,0.025390625,-0.988525390625,0.265869140625,-1.0458015267175573,-0.11450381679389313,-1.083969465648855
1.54,0.021484375,-0.995361328125,0.2685546875,-1.1297709923664123,-0.183206106870229,-1.0534351145038168
1.55,0.021240234375,-0.986328125,0.267333984375,-1.1526717557251909,-0.08396946564885496,-1.2366412213740459
1.56,0.026123046875,-0.997802734375,0.27978515625,-0.8015267175572519,0.0916030534351145,-1.0916030534351144
1.57,0.0263671875,-0.986083984375,0.26806640625,-0.9007633587786259,0.007633587786259542,-1.213740458015267
1.58,0.028076171875,-0.991455078125,0.27880859375,-1.16793893129771,-0.12213740458015267,-1.0305343511450382
1.59,0.02099609375,-0.9873046875,0.275634765625,-1.1145038167938932,-0.07633587786259542,-1.183206106870229
1.6,0.024658203125,-0.992431640625,0.269287109375,-1.0458015267175573,-1.9236641221374047,-1.1603053435114503
1.61,0.017333984375,-0.990234375,0.281005859375,-0.8854961832061069,-1.8931297709923665,-0.9694656488549618
1.62,0.02197265625,-0.987548828125,0.275634765625,-0.9236641221374046,-0.16793893129770993,-0.9618320610687023
1.63,0.02197265625,-0.984619140625,0.279052734375,-0.7480916030534351,0.015267175572519083,-1.0458015267175573
1.64,0.029541015625,-0.98828125,0.277587890625,-1.1603053435114503,-0.08396946564885496,-1.1068702290076335
1.65,0.022216796875,-0.992431640625,0.271240234375,-1.1526717557251909,1.9465648854961832,-1.1526717557251909
1.66,0.024169921875,-0.98388671875,0.267578125,-1.1755725190839694,-0.15267175572519084,-0.9694656488549618
1.67,0.0185546875,-0.98974609375,0.275146484375,-1.1374045801526718,-0.022900763358778626,-1.3053435114503817
1.68,0.018310546875,-0.9912109375,0.264892578125,-1.0381679389312977,-0.20610687022900764,-1.0916030534351144
1.69,0.021240234375,-0.9931640625,0.27490234375,-0.6030534351145038,-0.030534351145038167,-1.1145038167938932
1.7,0.025146484375,-0.98486328125,0.265625,-0.6335877862595419,0.09923664122137404,-1.16793893129771
1.71,0.022216796875,-0.988525390625,0.28076171875,-1.0763358778625953,-0.030534351145038167,-1.1297709923664123
1.72,0.013671875,-0.987548828125,0.271728515625,-0.916030534351145,-0.06870229007633588,-1.0
1.73,0.026611328125,-0.983154296875,0.2724609375,-1.0,1.9389312977099236,-0.9923664122137404
1.74,0.0166015625,-0.994140625,0.2685546875,-1.015267175572519,-0.03816793893129771,-1.213740458015267
1.75,0.024169921875,-0.988037109375,0.27685546875,-1.0,-0.1984732824427481,-1.0610687022900764
1.76,0.018798828125,-0.990966796875,0.27099609375,-0.816793893129771,-0.20610687022900764,-0.8931297709923665
1.77,0.025634765625,-0.99072265625,0.276611328125,-0.7480916030534351,-0.2595419847328244,-1.183206106870229
1.78,0.027099609375,-0.99072265625,0.26708984375,-1.1145038167938932,-0.06870229007633588,-1.213740458015267
1.79,0.030029296875,-0.988037109375,0.2763671875,-1.282442748091603,0.061068702290076333,-1.1526717557251909
1.8,0.021240234375,-0.9853515625,0.27392578125,-1.213740458015267,1.916030534351145,-1.099236641221374
1.81,0.02099609375,-0.990234375,0.2734375,-1.0534351145038168,-1.9083969465648856,-1.0763358778625953
1.82,0.0205078125,-0.987548828125,0.26953125,-0.9541984732824428,-0.11450381679389313,-1.1374045801526718
1.83,0.022705078125,-0.98486328125,0.270751953125,-0.7862595419847328,-0.06870229007633588,-1.1145038167938932
1.84,0.025390625,-0.988037109375,0.27685546875,-0.8778625954198473,-0.11450381679389313,-1.183206106870229
1.85,0.023681640625,-0.9873046875,0.274658203125,-0.9694656488549618,1.9312977099236641,-1.0229007633587786
1.86,0.02587890625,-0.990966796875,0.272216796875,-1.0610687022900764,-1.9236641221374047,-1.183206106870229
1.87,0.021728515625,-0.986328125,0.266845703125,-1.0610687022900764,-1.9312977099236641,-1.0229007633587786
1.88,0.023681640625,-0.992431640625,0.276611328125,-1.1603053435114503,-0.06870229007633588,-0.9923664122137404
1.89,0.020751953125,-0.99072265625,0.271484375,-0.9389312977099237,-0.06870229007633588,-1.1145038167938932
1.9,0.02294921875,-0.988037109375,0.275146484375,-0.8549618320610687,0.1297709923664122,-1.1297709923664123
1.91,0.0244140625,-0.990234375,0.27294921875,-0.8625954198473282,-0.07633587786259542,-1.0916030534351144
1.92,0.019775390625,-0.98681640625,0.279052734375,-0.8473282442748091,-0.022900763358778626,-1.0687022900763359
1.93,0.022216796875,-0.98876953125,0.276123046875,-1.0687022900763359,-0.030534351145038167,-1.1297709923664123
1.94,0.027099609375,-1.0,0.271728515625,-0.9770992366412213,-0.21374045801526717,-1.0534351145038168
1.95,0.020751953125,-0.99658203125,0.27587890625,-1.0229007633587786,-0.10687022900763359,-1.1221374045801527
1.96,0.0224609375,-0.99267578125,0.2724609375,-0.8091603053435115,1.9465648854961832,-1.0076335877862594
1.97,0.02294921875,-0.991943359375,0.273681640625,-1.0610687022900764,-1.9541984732824427,-1.0229007633587786
1.98,0.02294921875,-0.989013671875,0.276611328125,-0.916030534351145,-0.0916030534351145,-1.0305343511450382
1.99,0.02392578125,-0.987548828125,0.279296875,-0.9694656488549618,-0.09923664122137404,-0.9770992366412213
2.0,0.021728515625,-0.992431640625,0.275634765625,-0.9618320610687023,-0.0916030534351145,-1.2061068702290076
2.01,0.016845703125,-0.98876953125,0.279541015625,-1.3282442748091603,-0.1450381679389313,-1.2366412213740459
2.02,0.016357421875,-0.99267578125,0.27490234375,-1.0381679389312977,-0.007633587786259542,-0.9923664122137404
2.03,0.024169921875,-0.9892578125,0.2744140625,-0.8549618320610687,-0.1450381679389313,-0.9694656488549618
2.04,0.0234375,-0.973876953125,0.27294921875,-0.916030534351145,-0.15267175572519084,-1.1145038167938932
2.05,0.024169921875,-0.986572265625,0.278564453125,-0.8549618320610687,-0.04580152671755725,-1.213740458015267
2.06,0.01953125,-0.987548828125,0.279541015625,-0.8015267175572519,0.09923664122137404,-1.1374045801526718
2.07,0.022705078125,-0.98779296875,0.270751953125,-1.1908396946564885,-0.07633587786259542,-1.0381679389312977
2.08,0.02099609375,-0.9921875,0.27490234375,-1.099236641221374,-0.0916030534351145,-1.0610687022900764
2.09,0.02783203125,-0.99072265625,0.2734375,-1.2290076335877862,-0.04580152671755725,-1.0763358778625953
2.1,0.018798828125,-0.991455078125,0.274658203125,-0.8396946564885496,0.09923664122137404,-1.297709923664122
2.11,0.030029296875,-0.988525390625,0.27490234375,-0.9007633587786259,-0.022900763358778626,-1.0916030534351144
2.12,0.025390625,-0.986572265625,0.27099609375,-0.8473282442748091,-0.04580152671755725,-1.1526717557251909
2.13,0.030517578125,-0.991455078125,0.291259765625,-0.9618320610687023,-0.17557251908396945,-1.1526717557251909
2.14,0.02685546875,-0.98486328125,0.275634765625,-1.183206106870229,0.12213740458015267,-1.0916030534351144
2.15,0.01513671875,-0.991455078125,0.27294921875,-1.2061068702290076,-0.13740458015267176,-1.2595419847328244
2.16,0.024658203125,-0.98779296875,0.26806640625,-0.9312977099236641,-0.183206106870229,-1.0458015267175573
2.17,0.026123046875,-0.989013671875,0.2705078125,-1.0,0.007633587786259542,-1.0
2.18,0.02587890625,-0.991943359375,0.27294921875,-0.9541984732824428,-0.11450381679389313,-1.0381679389312977
2.19,0.022705078125,-0.988525390625,0.279052734375,-0.9007633587786259,-0.2900763358778626,-1.015267175572519
2.2,0.021240234375,-0.98779296875,0.28076171875,-1.1221374045801527,-0.10687022900763359,-1.015267175572519
2.21,0.022216796875,-0.999755859375,0.27099609375,-1.0763358778625953,0.05343511450381679,-1.0076335877862594
2.22,0.020263671875,-0.9853515625,0.265869140625,-0.8625954198473282,-0.03816793893129771,-1.1068702290076335
2.23,0.022216796875,-0.987060546875,0.2666015625,-0.9618320610687023,0.03816793893129771,-1.0381679389312977
2.24,0.02392578125,-0.98828125,0.273193359375,-0.8778625954198473,-1.9465648854961832,-1.099236641221374
2.25,0.0244140625,-0.99365234375,0.27001953125,-1.1374045801526718,0.05343511450381679,-0.9923664122137404
2.26,0.019287109375,-0.9853515625,0.28125,-0.8702290076335878,0.061068702290076333,-1.0610687022900764
2.27,0.025390625,-0.988525390625,0.275634765625,-0.8854961832061069,-0.09923664122137404,-1.1221374045801527
2.28,0.020751953125,-0.99169921875,0.2744140625,-0.9923664122137404,-1.916030534351145,-1.015267175572519
2.29,0.0205078125,-0.9853515625,0.272216796875,-0.9923664122137404,1.9389312977099236,-1.0687022900763359
2.3,0.021240234375,-0.990966796875,0.27392578125,-1.0610687022900764,0.16030534351145037,-1.16793893129771
2.31,0.023681640625,-0.99072265625,0.27587890625,-0.8549618320610687,-0.007633587786259542,-1.0916030534351144
2.32,0.031982421875,-0.99072265625,0.291748046875,-0.8778625954198473,-0.09923664122137404,-1.0916030534351144
2.33,0.017333984375,-0.995361328125,0.278564453125,-0.9923664122137404,-0.030534351145038167,-1.297709923664122
2.34,0.011962890625,-0.98681640625,0.2802734375,-0.9312977099236641,-0.015267175572519083,-1.16793893129771
2.35,0.022705078125,-0.990478515625,0.27685546875,-0.8549618320610687,-0.04580152671755725,-1.1145038167938932
2.36,0.02587890625,-0.988037109375,0.272216796875,-0.9312977099236641,-0.04580152671755725,-1.1145038167938932
2.37,0.026123046875,-0.990234375,0.271484375,-0.9083969465648855,-0.061068702290076333,-1.0381679389312977
2.38,0.021240234375,-0.98681640625,0.276611328125,-1.0229007633587786,-0.2748091603053435,-1.1984732824427482
2.39,0.018798828125,-0.987060546875,0.273193359375,-1.0763358778625953,0.030534351145038167,-1.1450381679389312
2.4,0.027587890625,-0.994140625,0.271728515625,-1.251908396946565,-0.0916030534351145,-1.0687022900763359
2.41,0.0224609375,-0.9755859375,0.277099609375,-1.1374045801526718,-0.061068702290076333,-1.183206106870229
2.42,0.025634765625,-0.988525390625,0.2724609375,-0.9923664122137404,-0.08396946564885496,-1.0534351145038168
2.43,0.021240234375,-0.989013671875,0.27294921875,-0.9618320610687023,0.022900763358778626,-1.1221374045801527
2.44,0.02001953125,-0.990966796875,0.278076171875,-0.8091603053435115,-0.061068702290076333,-0.9541984732824428
2.45,0.021240234375,-0.9921875,0.281494140625,-0.9847328244274809,1.9083969465648856,-1.1908396946564885
2.46,0.024169921875,-0.994140625,0.27783203125,-0.8702290076335878,-0.06870229007633588,-1.2290076335877862
2.47,0.02587890625,-0.988037109375,0.271484375,-1.0534351145038168,0.08396946564885496,-1.1221374045801527
2.48,0.01904296875,-0.999267578125,0.275634765625,-1.0305343511450382,0.09923664122137404,-1.1221374045801527
2.49,0.02392578125,-0.9931640625,0.277099609375,-1.1068702290076335,0.11450381679389313,-0.9923664122137404
2.5,0.021484375,-0.98486328125,0.27587890625,-0.9389312977099237,-0.007633587786259542,-1.083969465648855
2.51,0.0244140625,-0.98876953125,0.277099609375,-0.9389312977099237,0.05343511450381679,-1.1145038167938932
2.52,0.01806640625,-0.990478515625,0.28271484375,-0.9236641221374046,0.05343511450381679,-1.1221374045801527
2.53,0.021728515625,-0.99072265625,0.277587890625,-1.2061068702290076,0.0916030534351145,-1.1908396946564885
2.54,0.02294921875,-0.986328125,0.28076171875,-0.9541984732824428,0.16030534351145037,-1.0229007633587786
2.55,0.02685546875,-0.98828125,0.2724609375,-0.9923664122137404,0.030534351145038167,-1.2290076335877862
2.56,0.0205078125,-0.99853515625,0.27587890625,-1.1450381679389312,-0.08396946564885496,-1.0229007633587786
2.57,0.02783203125,-0.988525390625,0.269775390625,-1.0458015267175573,-0.06870229007633588,-1.213740458015267
2.58,0.02001953125,-0.986083984375,0.278076171875,-0.9694656488549618,-0.04580152671755725,-1.1450381679389312
2.59,0.0224609375,-0.98681640625,0.275634765625,-0.916030534351145,-0.15267175572519084,-1.1984732824427482
2.6,0.027099609375,-0.99072265625,0.27978515625,-0.8473282442748091,-0.022900763358778626,-0.9770992366412213
2.61,0.0234375,-0.986572265625,0.27392578125,-0.9618320610687023,-0.061068702290076333,-0.9694656488549618
2.62,0.028076171875,-0.98583984375,0.271484375,-1.0381679389312977,-0.09923664122137404,-1.0076335877862594
2.63,0.0166015625,-0.98681640625,0.275390625,-1.0076335877862594,-0.05343511450381679,-1.1526717557251909
2.64,0.025146484375,-0.9990234375,0.277099609375,-1.015267175572519,-0.061068702290076333,-0.9312977099236641
2.65,0.021484375,-0.986572265625,0.25048828125,-0.9236641221374046,-0.015267175572519083,-1.099236641221374
2.66,0.0224609375,-0.98486328125,0.27587890625,-0.8702290076335878,0.022900763358778626,-1.1221374045801527
2.67,0.023193359375,-0.98974609375,0.2666015625,-1.0763358778625953,1.9465648854961832,-1.0916030534351144
2.68,0.02685546875,-0.9931640625,0.2744140625,-0.9770992366412213,-1.8778625954198473,-1.1984732824427482
2.69,0.01806640625,-0.990966796875,0.275390625,-1.0534351145038168,0.08396946564885496,-1.1145038167938932
2.7,0.024169921875,-0.987548828125,0.272705078125,-1.0,0.10687022900763359,-1.0229007633587786
2.71,0.022216796875,-0.986572265625,0.279296875,-1.1068702290076335,-0.061068702290076333,-1.16793893129771
2.72,0.019287109375,-0.986328125,0.2646484375,-0.9007633587786259,-0.015267175572519083,-0.9618320610687023
2.73,0.024658203125,-0.9921875,0.279052734375,-0.8854961832061069,-0.17557251908396945,-1.015267175572519
2.74,0.0205078125,-0.989013671875,0.275390625,-0.8091603053435115,1.8931297709923665,-1.1908396946564885
2.75,0.01953125,-0.986083984375,0.277099609375,-0.9770992366412213,-1.9083969465648856,-1.1374045801526718
2.76,0.024658203125,-0.989501953125,0.269287109375,-0.9236641221374046,-0.05343511450381679,-1.0610687022900764
2.77,0.017333984375,-0.9931640625,0.279052734375,-1.1450381679389312,0.03816793893129771,-1.0534351145038168
2.78,0.02001953125,-0.98291015625,0.2822265625,-0.9083969465648855,-0.09923664122137404,-1.1297709923664123
2.79,0.015380859375,-0.994873046875,0.2724609375,-1.0305343511450382,0.0916030534351145,-1.1068702290076335
2.8,0.019287109375,-0.9853515625,0.275146484375,-1.1068702290076335,0.061068702290076333,-1.1297709923664123
2.81,0.024169921875,-0.989990234375,0.267822265625,-1.0,-0.13740458015267176,-1.1526717557251909
2.82,0.022705078125,-0.98974609375,0.28076171875,-0.8473282442748091,-0.03816793893129771,-1.1145038167938932
2.83,0.027099609375,-0.98681640625,0.27490234375,-0.8778625954198473,0.05343511450381679,-1.2290076335877862
2.84,0.02197265625,-0.990478515625,0.279541015625,-0.9312977099236641,-0.05343511450381679,-1.0305343511450382
2.85,0.03125,-0.98779296875,0.27685546875,-0.9847328244274809,1.9465648854961832,-1.0610687022900764
2.86,0.023681640625,-0.98681640625,0.270263671875,-0.9465648854961832,0.015267175572519083,-1.1145038167938932
2.87,0.021240234375,-0.98779296875,0.28564453125,-0.9923664122137404,0.0916030534351145,-1.0534351145038168
2.88,0.02490234375,-0.9931640625,0.276611328125,-1.1145038167938932,0.022900763358778626,-1.1984732824427482
2.89,0.0224609375,-0.984619140625,0.27783203125,-1.015267175572519,-0.04580152671755725,-1.0229007633587786
2.9,0.0224609375,-0.99072265625,0.280517578125,-1.0305343511450382,-0.07633587786259542,-0.9465648854961832
2.91,0.021728515625,-0.9892578125,0.2734375,-1.099236641221374,-0.0916030534351145,-1.0610687022900764
2.92,0.023681640625,-0.98876953125,0.2568359375,-1.1374045801526718,0.0,-1.0
2.93,0.02294921875,-0.986083984375,0.2685546875,-0.7557251908396947,-0.030534351145038167,-1.1145038167938932
2.94,0.02490234375,-0.98876953125,0.2763671875,-0.9923664122137404,1.9389312977099236,-1.1068702290076335
2.95,0.020751953125,-0.9873046875,0.281005859375,-0.6870229007633588,0.09923664122137404,-1.0
2.96,0.0205078125,-0.987060546875,0.27734375,-0.9236641221374046,-0.22137404580152673,-1.183206106870229
2.97,0.023681640625,-0.9814453125,0.27099609375,-1.0687022900763359,-1.8778625954198473,-1.083969465648855
2.98,0.028076171875,-0.98388671875,0.276123046875,-1.1526717557251909,-0.20610687022900764,-1.0458015267175573
2.99,0.019287109375,-0.98876953125,0.278076171875,-1.0076335877862594,-0.06870229007633588,-1.0763358778625953
3.0,0.020263671875,-0.988037109375,0.287353515625,-1.0534351145038168,-0.015267175572519083,-1.0916030534351144
3.01,0.021728515625,-0.987548828125,0.27880859375,-1.015267175572519,-0.1984732824427481,-1.1603053435114503
3.02,0.022216796875,-0.98583984375,0.266357421875,-0.8244274809160306,0.05343511450381679,-0.9541984732824428
3.03,0.01806640625,-0.98974609375,0.273681640625,-1.015267175572519,1.9312977099236641,-1.3206106870229009
3.04,0.0234375,-0.988037109375,0.28515625,-0.9541984732824428,0.015267175572519083,-1.1068702290076335
3.05,0.019775390625,-0.9873046875,0.267822265625,-1.1145038167938932,-0.09923664122137404,-1.0305343511450382
3.06,0.017578125,-0.990478515625,0.273193359375,-1.015267175572519,0.09923664122137404,-1.1145038167938932
3.07,0.02392578125,-0.9775390625,0.275634765625,-0.916030534351145,-0.11450381679389313,-1.0381679389312977
3.08,0.021728515625,-0.988037109375,0.27099609375,-0.8778625954198473,1.9312977099236641,-1.0763358778625953
3.09,0.024169921875,-0.98974609375,0.2744140625,-0.9312977099236641,-0.03816793893129771,-1.0534351145038168
3.1,0.025390625,-0.98779296875,0.26953125,-1.0076335877862594,0.04580152671755725,-1.1068702290076335
3.11,0.02099609375,-0.986572265625,0.274658203125,-1.1908396946564885,0.16030534351145037,-1.2671755725190839
3.12,0.02392578125,-0.9912109375,0.275146484375,-1.2213740458015268,-0.12213740458015267,-0.916030534351145
3.13,0.028076171875,-0.985107421875,0.27392578125,-1.213740458015267,1.916030534351145,-1.2366412213740459
3.14,0.022216796875,-0.996337890625,0.27392578125,-1.099236641221374,0.061068702290076333,-1.0687022900763359
3.15,0.023681640625,-0.99365234375,0.27001953125,-1.015267175572519,-0.11450381679389313,-1.1068702290076335
3.16,0.02099609375,-0.987060546875,0.273193359375,-1.16793893129771,-0.061068702290076333,-1.0305343511450382
3.17,0.02685546875,-0.989013671875,0.27587890625,-1.083969465648855,0.04580152671755725,-1.1068702290076335
3.18,0.025390625,-0.990234375,0.27490234375,-0.9389312977099237,1.9312977099236641,-1.1755725190839694
3.19,0.025390625,-0.990234375,0.27880859375,-0.8625954198473282,-0.022900763358778626,-0.9007633587786259
3.2,0.0263671875,-0.985595703125,0.2763671875,-1.0076335877862594,1.9312977099236641,-1.099236641221374
3.21,0.0322265625,-0.99072265625,0.2685546875,-0.7709923664122137,0.04580152671755725,-1.1603053435114503
3.22,0.024658203125,-0.991455078125,0.28271484375,-0.9007633587786259,-0.15267175572519084,-0.9007633587786259
3.23,0.030029296875,-0.98828125,0.27294921875,-1.0,-0.007633587786259542,-0.9236641221374046
3.24,0.020751953125,-0.987548828125,0.284912109375,-1.0305343511450382,-0.061068702290076333,-1.0916030534351144
3.25,0.024169921875,-0.971923828125,0.271484375,-1.0687022900763359,-0.007633587786259542,-1.16793893129771
3.26,0.019775390625,-0.98486328125,0.26611328125,-1.0305343511450382,-0.19083969465648856,-1.099236641221374
3.27,0.021728515625,-0.992919921875,0.2763671875,-1.099236641221374,-0.16793893129770993,-1.2442748091603053
3.28,0.02197265625,-0.98583984375,0.2744140625,-1.0381679389312977,-0.030534351145038167,-1.1297709923664123
3.29,0.019775390625,-0.99169921875,0.27001953125,-1.0305343511450382,-0.1297709923664122,-1.0687022900763359
3.3,0.02294921875,-0.9892578125,0.268310546875,-1.0,-0.2595419847328244,-1.0076335877862594
3.31,0.022216796875,-0.989990234375,0.271240234375,-0.8625954198473282,0.06870229007633588,-1.1374045801526718
3.32,0.017822265625,-0.991455078125,0.270751953125,-0.9007633587786259,-0.061068702290076333,-1.213740458015267
3.33,0.027099609375,-0.9931640625,0.2744140625,-0.8549618320610687,0.015267175572519083,-0.9847328244274809
3.34,0.028564453125,-0.973876953125,0.276611328125,-1.0,-0.11450381679389313,-1.16793893129771
3.35,0.02490234375,-0.985595703125,0.271484375,-0.9389312977099237,0.07633587786259542,-1.1068702290076335
3.36,0.02001953125,-0.986328125,0.275146484375,-1.0916030534351144,-0.007633587786259542,-1.1221374045801527
3.37,0.026123046875,-0.98583984375,0.273681640625,-1.0,-0.09923664122137404,-1.1908396946564885
3.38,0.026611328125,-0.988037109375,0.271484375,-0.9618320610687023,-0.061068702290076333,-1.1755725190839694
3.39,0.025146484375,-0.989990234375,0.279541015625,-1.0534351145038168,-0.015267175572519083,-1.1984732824427482
3.4,0.0234375,-0.985595703125,0.2724609375,-0.8854961832061069,-0.1297709923664122,-1.2671755725190839
3.41,0.0244140625,-0.98486328125,0.266845703125,-1.1145038167938932,-0.022900763358778626,-1.0
3.42,0.0224609375,-0.986572265625,0.270263671875,-1.0534351145038168,1.9083969465648856,-1.1145038167938932
3.43,0.021484375,-0.96923828125,0.26806640625,-1.0610687022900764,-0.08396946564885496,-0.9618320610687023
3.44,0.0263671875,-0.991943359375,0.274658203125,-0.9770992366412213,-0.007633587786259542,-1.1145038167938932
3.45,0.0244140625,-0.99267578125,0.278076171875,-0.9694656488549618,0.11450381679389313,-1.0534351145038168
3.46,0.023681640625,-0.985595703125,0.276611328125,-1.0381679389312977,-0.015267175572519083,-1.0916030534351144
3.47,0.027099609375,-0.9912109375,0.27197265625,-1.0763358778625953,-0.1297709923664122,-1.1221374045801527
3.48,0.024658203125,-0.984130859375,0.268310546875,-1.0076335877862594,-0.10687022900763359,-1.1450381679389312
3.49,0.022705078125,-0.990234375,0.274658203125,-1.1374045801526718,0.11450381679389313,-1.16793893129771
3.5,0.02490234375,-0.98779296875,0.2734375,-0.9312977099236641,0.030534351145038167,-1.0687022900763359
3.51,0.02490234375,-0.9912109375,0.275390625,-0.8854961832061069,-0.1297709923664122,-1.1450381679389312
3.52,0.019287109375,-0.99072265625,0.273193359375,-1.0076335877862594,-0.030534351145038167,-1.0305343511450382
3.53,0.019775390625,-0.990966796875,0.27734375,-0.9618320610687023,0.09923664122137404,-1.2290076335877862
3.54,0.0185546875,-0.989990234375,0.27197265625,-0.8702290076335878,-0.07633587786259542,-1.0687022900763359
3.55,0.024169921875,-0.98876953125,0.29052734375,-0.9618320610687023,-0.1450381679389313,-0.9847328244274809
3.56,0.02001953125,-0.9892578125,0.274169921875,-0.9923664122137404,1.8931297709923665,-1.0916030534351144
3.57,0.01708984375,-0.98583984375,0.2734375,-1.083969465648855,-0.061068702290076333,-1.1755725190839694
3.58,0.021728515625,-0.987548828125,0.27099609375,-1.1068702290076335,-0.015267175572519083,-1.2366412213740459
3.59,0.025390625,-0.982177734375,0.2705078125,-1.0305343511450382,-0.08396946564885496,-1.1603053435114503
3.6,0.023193359375,-0.988525390625,0.27001953125,-1.0229007633587786,-0.015267175572519083,-1.083969465648855
3.61,0.024658203125,-0.991455078125,0.27294921875,-1.015267175572519,-0.35877862595419846,-1.1603053435114503
3.62,0.02392578125,-0.988037109375,0.276611328125,-1.1526717557251909,-0.05343511450381679,-1.0610687022900764
3.63,0.023193359375,-0.99169921875,0.273193359375,-0.816793893129771,0.08396946564885496,-1.1450381679389312
3.64,0.02490234375,-0.995361328125,0.286376953125,-0.9007633587786259,-0.07633587786259542,-1.0687022900763359
3.65,0.020751953125,-0.99169921875,0.275634765625,-0.9007633587786259,-1.9389312977099236,-0.9923664122137404
3.66,0.028564453125,-0.99267578125,0.27001953125,-0.9465648854961832,0.061068702290076333,-0.9847328244274809
3.67,0.0205078125,-0.992919921875,0.284423828125,-0.8244274809160306,-0.022900763358778626,-1.1755725190839694
3.68,0.0185546875,-0.987060546875,0.275634765625,-0.916030534351145,-1.9465648854961832,-1.083969465648855
3.69,0.01953125,-0.9912109375,0.2705078125,-1.0229007633587786,0.0916030534351145,-1.0305343511450382
3.7,0.0205078125,-0.993408203125,0.281005859375,-1.1145038167938932,-1.8625954198473282,-1.0534351145038168
3.71,0.02001953125,-0.99072265625,0.272705078125,-0.8015267175572519,0.05343511450381679,-1.0534351145038168
3.72,0.02099609375,-0.989013671875,0.26806640625,-0.9389312977099237,-0.16793893129770993,-1.2366412213740459
3.73,0.022216796875,-0.989501953125,0.274658203125,-0.8091603053435115,-0.1450381679389313,-1.2748091603053435
3.74,0.0205078125,-0.989013671875,0.274169921875,-0.9923664122137404,-0.09923664122137404,-1.099236641221374
3.75,0.02685546875,-0.990478515625,0.279052734375,-1.1526717557251909,-0.25190839694656486,-0.9847328244274809
3.76,0.02587890625,-0.98681640625,0.265625,-1.0534351145038168,-0.183206106870229,-0.9770992366412213
3.77,0.016845703125,-0.98779296875,0.27978515625,-1.015267175572519,-0.16030534351145037,-1.1526717557251909
3.78,0.020751953125,-0.99169921875,0.277099609375,-1.0763358778625953,-0.21374045801526717,-1.0534351145038168
3.79,0.025390625,-0.990478515625,0.2763671875,-0.9007633587786259,-0.022900763358778626,-0.9923664122137404
3.8,0.02001953125,-0.990234375,0.27587890625,-0.9389312977099237,0.09923664122137404,-1.1908396946564885
3.81,0.017333984375,-0.98583984375,0.275634765625,-0.9007633587786259,-0.1297709923664122,-1.0229007633587786
3.82,0.020751953125,-0.98974609375,0.274658203125,-0.9236641221374046,-0.19083969465648856,-1.0381679389312977
3.83,0.019287109375,-0.986572265625,0.273681640625,-1.0916030534351144,0.03816793893129771,-1.0458015267175573
3.84,0.01953125,-0.9892578125,0.28271484375,-0.9312977099236641,-0.04580152671755725,-1.1068702290076335
3.85,0.020751953125,-0.987548828125,0.27392578125,-1.1221374045801527,-1.9465648854961832,-0.9770992366412213
3.86,0.025146484375,-0.987060546875,0.27880859375,-1.0916030534351144,-0.09923664122137404,-0.9618320610687023
3.87,0.021728515625,-0.995849609375,0.268798828125,-0.9541984732824428,1.9083969465648856,-0.9618320610687023
3.88,0.026123046875,-0.98583984375,0.270751953125,-0.9770992366412213,-0.10687022900763359,-1.1450381679389312
3.89,0.0205078125,-0.985107421875,0.268310546875,-1.0534351145038168,0.03816793893129771,-1.1068702290076335
3.9,0.0205078125,-0.990478515625,0.27587890625,-1.015267175572519,-0.061068702290076333,-0.9083969465648855
3.91,0.0205078125,-0.990478515625,0.27099609375,-1.0458015267175573,1.9389312977099236,-0.916030534351145
3.92,0.0234375,-0.988525390625,0.2724609375,-1.0,-0.030534351145038167,-0.9770992366412213
3.93,0.02392578125,-0.981689453125,0.2685546875,-1.0610687022900764,-0.06870229007633588,-1.099236641221374
3.94,0.025390625,-0.992919921875,0.27197265625,-1.0076335877862594,-0.0916030534351145,-1.0763358778625953
3.95,0.022705078125,-0.98974609375,0.2763671875,-0.9694656488549618,-0.061068702290076333,-1.0229007633587786
3.96,0.025390625,-0.98486328125,0.27294921875,-0.816793893129771,-0.015267175572519083,-1.1221374045801527
3.97,0.028076171875,-0.985595703125,0.267578125,-1.015267175572519,-0.007633587786259542,-1.2213740458015268
3.98,0.0263671875,-0.98681640625,0.279296875,-1.1984732824427482,-0.1984732824427481,-1.1450381679389312
3.99,0.02197265625,-0.986083984375,0.269775390625,-1.099236641221374,0.015267175572519083,-1.1984732824427482
4.0,0.02734375,-0.990966796875,0.279541015625,-0.9694656488549618,-0.0916030534351145,-1.0916030534351144
4.01,0.027587890625,-0.98388671875,0.27587890625,-0.916030534351145,-0.1984732824427481,-1.1755725190839694
4.02,0.022705078125,-0.987060546875,0.279541015625,-0.9847328244274809,-1.9389312977099236,-1.0381679389312977
4.03,0.023681640625,-0.98486328125,0.281005859375,-0.9465648854961832,1.9389312977099236,-1.1526717557251909
4.04,0.0234375,-0.971923828125,0.277099609375,-1.0458015267175573,-0.11450381679389313,-1.083969465648855
4.05,0.01806640625,-0.9853515625,0.270263671875,-1.1374045801526718,-0.0916030534351145,-1.2900763358778626
4.06,0.021484375,-0.98583984375,0.27099609375,-0.9847328244274809,-0.16030534351145037,-1.2442748091603053
4.07,0.02294921875,-0.98583984375,0.262939453125,-0.9007633587786259,-0.1984732824427481,-1.0076335877862594
4.08,0.024658203125,-0.98974609375,0.2802734375,-0.816793893129771,-0.030534351145038167,-1.0916030534351144
4.09,0.01416015625,-0.987060546875,0.282470703125,-0.916030534351145,-0.16030534351145037,-1.1755725190839694
4.1,0.023681640625,-0.990478515625,0.270751953125,-1.099236641221374,-0.1450381679389313,-1.015267175572519
4.11,0.028076171875,-0.993408203125,0.270751953125,-1.083969465648855,0.05343511450381679,-1.16793893129771
4.12,0.021728515625,-0.984619140625,0.272705078125,-1.0,-0.061068702290076333,-1.1374045801526718
4.13,0.021240234375,-1.0,0.275634765625,-1.0076335877862594,0.03816793893129771,-1.099236641221374
4.14,0.0185546875,-0.9912109375,0.27001953125,-0.916030534351145,-0.08396946564885496,-1.0534351145038168
4.15,0.02587890625,-0.9951171875,0.2890625,-1.0763358778625953,-0.07633587786259542,-1.083969465648855
4.16,0.026611328125,-0.990478515625,0.27734375,-0.7786259541984732,-0.05343511450381679,-1.0229007633587786
4.17,0.02197265625,-0.986083984375,0.273681640625,-0.9465648854961832,-0.007633587786259542,-1.1145038167938932
4.18,0.0185546875,-0.990478515625,0.274658203125,-1.1374045801526718,0.08396946564885496,-0.9694656488549618
4.19,0.021240234375,-0.987548828125,0.2734375,-1.0229007633587786,-0.05343511450381679,-1.0305343511450382
4.2,0.026611328125,-0.98681640625,0.273193359375,-0.8625954198473282,-0.022900763358778626,-1.0229007633587786
4.21,0.01904296875,-0.9912109375,0.269775390625,-1.0305343511450382,0.10687022900763359,-0.9083969465648855
4.22,0.030029296875,-0.98583984375,0.26904296875,-1.1068702290076335,-0.09923664122137404,-1.2213740458015268
4.23,0.024169921875,-0.98779296875,0.27197265625,-0.9236641221374046,1.9389312977099236,-1.1526717557251909
4.24,0.02783203125,-0.990234375,0.2724609375,-1.015267175572519,-0.29770992366412213,-1.0458015267175573
4.25,0.020751953125,-0.994873046875,0.27099609375,-0.9541984732824428,0.05343511450381679,-0.9694656488549618
4.26,0.024658203125,-0.985595703125,0.272705078125,-0.8091603053435115,1.9465648854961832,-1.1755725190839694
4.27,0.032470703125,-0.9921875,0.27685546875,-0.9770992366412213,0.03816793893129771,-1.0687022900763359
4.28,0.02099609375,-0.982666015625,0.27685546875,-1.0534351145038168,-0.06870229007633588,-1.1221374045801527
4.29,0.02001953125,-0.987548828125,0.277587890625,-0.8854961832061069,0.11450381679389313,-1.0305343511450382
4.3,0.01953125,-0.986572265625,0.271484375,-0.8396946564885496,-0.03816793893129771,-1.0763358778625953
4.31,0.029296875,-0.9912109375,0.27685546875,-0.9465648854961832,0.05343511450381679,-1.183206106870229
4.32,0.0224609375,-0.990234375,0.27392578125,-0.6946564885496184,-0.09923664122137404,-0.9465648854961832
4.33,0.017333984375,-0.9921875,0.2744140625,-0.8854961832061069,0.030534351145038167,-1.1221374045801527
4.34,0.025634765625,-0.986083984375,0.276611328125,-1.0229007633587786,-0.07633587786259542,-1.1221374045801527
4.35,0.022216796875,-0.986083984375,0.276611328125,-1.083969465648855,-0.03816793893129771,-1.16793893129771
4.36,0.028564453125,-0.99365234375,0.275390625,-1.1374045801526718,-0.022900763358778626,-1.1755725190839694
4.37,0.019775390625,-0.988037109375,0.27978515625,-1.0381679389312977,-0.1450381679389313,-1.1755725190839694
4.38,0.024658203125,-0.989501953125,0.279296875,-0.9312977099236641,-1.9236641221374047,-1.1068702290076335
4.39,0.024169921875,-0.97021484375,0.276123046875,-1.0,-0.07633587786259542,-1.0458015267175573
4.4,0.026611328125,-0.9912109375,0.27783203125,-0.8320610687022901,-1.900763358778626,-1.0763358778625953
4.41,0.022705078125,-0.9931640625,0.2666015625,-0.9694656488549618,-0.1984732824427481,-0.8625954198473282
4.42,0.021728515625,-0.989990234375,0.272705078125,-1.015267175572519,0.015267175572519083,-1.015267175572519
4.43,0.02587890625,-0.9912109375,0.275634765625,-1.015267175572519,1.9236641221374047,-0.9236641221374046
4.44,0.0224609375,-0.9892578125,0.27099609375,-1.0687022900763359,-0.015267175572519083,-1.0763358778625953
4.45,0.018798828125,-0.988525390625,0.274658203125,-0.9007633587786259,-0.09923664122137404,-1.1221374045801527
4.46,0.019775390625,-0.98828125,0.271484375,-1.0076335877862594,0.08396946564885496,-1.099236641221374
4.47,0.02099609375,-0.988037109375,0.265869140625,-1.0,-0.19083969465648856,-1.251908396946565
4.48,0.019775390625,-0.9892578125,0.276123046875,-1.0,0.1297709923664122,-1.251908396946565
4.49,0.016357421875,-0.986572265625,0.275146484375,-1.0916030534351144,0.08396946564885496,-1.2213740458015268
4.5,0.023193359375,-0.98828125,0.279296875,-1.2442748091603053,0.16793893129770993,-0.8320610687022901
4.51,0.014892578125,-0.990966796875,0.271484375,-1.2671755725190839,-0.03816793893129771,-1.0763358778625953
4.52,0.0244140625,-0.984619140625,0.282958984375,-1.0763358778625953,-0.22137404580152673,-1.2061068702290076
4.53,0.025146484375,-0.984375,0.278076171875,-1.0763358778625953,-0.17557251908396945,-1.1221374045801527
4.54,0.0263671875,-0.99365234375,0.27734375,-0.8396946564885496,-0.26717557251908397,-1.0458015267175573
4.55,0.027587890625,-0.993408203125,0.271484375,-1.0305343511450382,0.04580152671755725,-0.9923664122137404
4.56,0.021484375,-0.9921875,0.266357421875,-1.1755725190839694,0.061068702290076333,-1.015267175572519
4.57,0.019775390625,-0.9892578125,0.27197265625,-1.0610687022900764,-0.2748091603053435,-1.1526717557251909
4.58,0.02685546875,-0.986328125,0.27783203125,-0.8625954198473282,1.9465648854961832,-1.0916030534351144
4.59,0.024169921875,-0.985595703125,0.277099609375,-0.7709923664122137,-0.06870229007633588,-1.1984732824427482
4.6,0.02490234375,-0.9853515625,0.274658203125,-0.8854961832061069,-0.0916030534351145,-1.2213740458015268
4.61,0.029052734375,-0.988525390625,0.279541015625,-0.816793893129771,0.022900763358778626,-1.083969465648855
4.62,0.030029296875,-0.990234375,0.273193359375,-0.9541984732824428,-0.1450381679389313,-1.1221374045801527
4.63,0.0263671875,-0.994384765625,0.2763671875,-1.015267175572519,0.0916030534351145,-0.9541984732824428
4.64,0.01953125,-0.98583984375,0.269775390625,-1.083969465648855,-0.03816793893129771,-1.0916030534351144
4.65,0.02294921875,-0.98974609375,0.274658203125,-1.1526717557251909,-0.10687022900763359,-1.0229007633587786
4.66,0.022216796875,-0.9931640625,0.265625,-1.0076335877862594,-0.05343511450381679,-1.2061068702290076
4.67,0.01416015625,-0.9873046875,0.269287109375,-0.9389312977099237,1.916030534351145,-1.1984732824427482
4.68,0.026123046875,-0.988525390625,0.276611328125,-0.732824427480916,-0.2824427480916031,-1.1068702290076335
4.69,0.02197265625,-0.9873046875,0.28271484375,-1.0305343511450382,-1.9389312977099236,-1.2213740458015268
4.7,0.022216796875,-0.989013671875,0.281005859375,-1.015267175572519,-0.11450381679389313,-1.2748091603053435
4.71,0.0234375,-0.98681640625,0.274658203125,-1.0763358778625953,0.08396946564885496,-1.0763358778625953
4.72,0.0205078125,-0.986083984375,0.278076171875,-1.0381679389312977,0.1984732824427481,-1.1221374045801527
4.73,0.023681640625,-0.99169921875,0.266845703125,-1.0076335877862594,-0.19083969465648856,-1.2061068702290076
4.74,0.024169921875,-0.986083984375,0.267822265625,-0.9770992366412213,-0.183206106870229,-0.9465648854961832
4.75,0.0322265625,-0.993896484375,0.29443359375,-1.0458015267175573,-0.13740458015267176,-1.2213740458015268
4.76,0.027099609375,-0.9873046875,0.26220703125,-0.8396946564885496,0.11450381679389313,-0.9923664122137404
4.77,0.027587890625,-0.99072265625,0.273681640625,-1.213740458015267,-0.08396946564885496,-1.1450381679389312
4.78,0.025390625,-0.987548828125,0.274169921875,-1.0534351145038168,0.06870229007633588,-1.1984732824427482
4.79,0.024658203125,-0.98779296875,0.2783203125,-0.8854961832061069,-0.16793893129770993,-1.1526717557251909
4.8,0.0244140625,-0.9892578125,0.26904296875,-0.9007633587786259,-0.1450381679389313,-1.0305343511450382
4.81,0.025634765625,-0.970703125,0.276611328125,-0.9847328244274809,-0.030534351145038167,-1.099236641221374
4.82,0.0166015625,-0.991455078125,0.275146484375,-0.8320610687022901,0.030534351145038167,-1.1908396946564885
4.83,0.02685546875,-0.993408203125,0.27490234375,-0.7786259541984732,0.04580152671755725,-1.0534351145038168
4.84,0.020263671875,-0.994384765625,0.2734375,-1.015267175572519,-0.08396946564885496,-1.1221374045801527
4.85,0.0244140625,-0.99072265625,0.278076171875,-1.0076335877862594,0.07633587786259542,-1.1374045801526718
4.86,0.019287109375,-0.9853515625,0.27734375,-1.2213740458015268,1.9465648854961832,-0.9694656488549618
4.87,0.021240234375,-0.989990234375,0.28515625,-1.0076335877862594,0.0,-1.1374045801526718
4.88,0.025390625,-0.989990234375,0.276611328125,-0.8625954198473282,-1.9465648854961832,-1.099236641221374
4.89,0.021728515625,-0.990966796875,0.278076171875,-0.8931297709923665,-0.04580152671755725,-1.0381679389312977
4.9,0.02197265625,-0.9892578125,0.27587890625,-0.9541984732824428,0.007633587786259542,-1.1297709923664123
4.91,0.02880859375,-0.992431640625,0.278076171875,-1.16793893129771,-0.1297709923664122,-1.099236641221374
4.92,0.024169921875,-0.984375,0.281005859375,-0.9923664122137404,0.1297709923664122,-1.3969465648854962
4.93,0.023193359375,-0.993408203125,0.29296875,-1.0763358778625953,0.007633587786259542,-0.8702290076335878
4.94,0.02685546875,-0.988525390625,0.275390625,-0.9389312977099237,-0.015267175572519083,-1.083969465648855
4.95,0.01806640625,-0.987060546875,0.274658203125,-0.9312977099236641,-0.13740458015267176,-1.0534351145038168
4.96,0.023681640625,-0.98779296875,0.27783203125,-1.0458015267175573,-1.7938931297709924,-1.0687022900763359
4.97,0.021240234375,-0.993896484375,0.275146484375,-0.9236641221374046,-0.03816793893129771,-1.0610687022900764
4.98,0.019775390625,-0.985107421875,0.273681640625,-0.8702290076335878,1.9312977099236641,-1.0458015267175573
4.99,0.01708984375,-0.97412109375,0.270263671875,-0.9541984732824428,-0.061068702290076333,-1.1145038167938932
5.0,0.01953125,-0.985107421875,0.27294921875,-1.1297709923664123,0.0916030534351145,-1.1450381679389312
5.01,0.02392578125,-0.9892578125,0.2734375,-1.1297709923664123,-0.10687022900763359,-1.0458015267175573
5.02,0.028076171875,-0.9912109375,0.279296875,-1.0687022900763359,1.9389312977099236,-1.0687022900763359
5.03,0.02197265625,-0.990234375,0.275634765625,-1.213740458015267,-0.04580152671755725,-0.9618320610687023
5.04,0.0205078125,-0.985107421875,0.279052734375,-0.9923664122137404,-1.9389312977099236,-0.9923664122137404
5.05,0.02294921875,-0.987060546875,0.27392578125,-0.7557251908396947,-0.16793893129770993,-1.2366412213740459
5.06,0.026611328125,-0.990478515625,0.274658203125,-0.7862595419847328,-1.9389312977099236,-1.1526717557251909
5.07,0.030517578125,-0.994384765625,0.28076171875,-0.9694656488549618,0.17557251908396945,-1.0534351145038168
5.08,0.021240234375,-0.9873046875,0.273681640625,-0.7862595419847328,-0.030534351145038167,-1.1068702290076335
5.09,0.019775390625,-0.9921875,0.281005859375,-1.1526717557251909,0.015267175572519083,-1.0763358778625953
5.1,0.02783203125,-0.998779296875,0.27490234375,-1.1755725190839694,0.03816793893129771,-1.1450381679389312
5.11,0.025146484375,-0.983154296875,0.271484375,-1.0305343511450382,-0.11450381679389313,-1.0229007633587786
5.12,0.023193359375,-0.98583984375,0.28515625,-0.7633587786259542,0.1450381679389313,-1.1068702290076335
5.13,0.024658203125,-0.9951171875,0.27392578125,-1.083969465648855,-0.04580152671755725,-1.099236641221374
5.14,0.017822265625,-0.989990234375,0.272216796875,-1.1374045801526718,-0.16793893129770993,-1.1984732824427482
5.15,0.015869140625,-0.9931640625,0.272216796875,-1.0458015267175573,0.030534351145038167,-1.1984732824427482
5.16,0.016845703125,-0.988037109375,0.285888671875,-0.9389312977099237,-0.10687022900763359,-0.9923664122137404
5.17,0.023681640625,-0.991943359375,0.27685546875,-0.9312977099236641,-0.05343511450381679,-1.0
5.18,0.021484375,-0.99560546875,0.273193359375,-0.9541984732824428,0.030534351145038167,-1.0076335877862594
5.19,0.0224609375,-0.98828125,0.277099609375,-0.9312977099236641,-0.04580152671755725,-1.0305343511450382
5.2,0.021240234375,-0.981201171875,0.2705078125,-0.7709923664122137,-0.06870229007633588,-1.0381679389312977
5.21,0.021728515625,-0.98486328125,0.27490234375,-1.0916030534351144,-0.16030534351145037,-1.213740458015267
5.22,0.0224609375,-0.990234375,0.270751953125,-0.9389312977099237,-0.022900763358778626,-1.0381679389312977
5.23,0.016357421875,-0.989013671875,0.267333984375,-0.8702290076335878,1.9389312977099236,-1.1450381679389312
5.24,0.02392578125,-0.986083984375,0.27197265625,-0.9770992366412213,0.08396946564885496,-1.1145038167938932
5.25,0.019775390625,-0.9697265625,0.2734375,-1.099236641221374,-0.08396946564885496,-1.0458015267175573
5.26,0.02490234375,-0.986328125,0.275146484375,-0.9389312977099237,-0.183206106870229,-1.1908396946564885
5.27,0.022216796875,-0.989501953125,0.271240234375,-1.213740458015267,1.9312977099236641,-1.1374045801526718
5.28,0.021484375,-0.987060546875,0.276123046875,-0.8702290076335878,-0.1450381679389313,-1.0076335877862594
5.29,0.023681640625,-0.986572265625,0.271728515625,-0.9847328244274809,-0.030534351145038167,-1.16793893129771
5.3,0.026123046875,-0.98828125,0.28076171875,-0.9083969465648855,-0.11450381679389313,-1.1984732824427482
5.31,0.0244140625,-0.986572265625,0.271728515625,-0.916030534351145,1.916030534351145,-1.0687022900763359
5.32,0.019775390625,-0.99072265625,0.278076171875,-0.9618320610687023,0.04580152671755725,-1.0458015267175573
5.33,0.025146484375,-0.988525390625,0.27099609375,-1.015267175572519,0.022900763358778626,-1.099236641221374
5.34,0.025390625,-0.988525390625,0.27392578125,-1.015267175572519,0.0,-1.0763358778625953
5.35,0.0263671875,-0.98876953125,0.274169921875,-1.1068702290076335,-0.13740458015267176,-1.1068702290076335
5.36,0.024169921875,-0.985107421875,0.274658203125,-0.9465648854961832,1.9083969465648856,-0.9007633587786259
5.37,0.021240234375,-0.98193359375,0.27099609375,-0.8091603053435115,0.11450381679389313,-1.099236641221374
5.38,0.01611328125,-0.987060546875,0.275634765625,-0.8244274809160306,-1.9389312977099236,-0.9236641221374046
5.39,0.023681640625,-0.993896484375,0.271484375,-1.0076335877862594,-1.9312977099236641,-1.1984732824427482
5.4,0.027099609375,-0.982421875,0.2744140625,-1.0458015267175573,1.9312977099236641,-1.1603053435114503
5.41,0.022216796875,-0.990478515625,0.278564453125,-1.1526717557251909,-1.9312977099236641,-1.1984732824427482
5.42,0.017578125,-0.995849609375,0.267333984375,-0.9923664122137404,0.04580152671755725,-1.0916030534351144
5.43,0.025634765625,-0.97509765625,0.270751953125,-0.8396946564885496,-0.17557251908396945,-1.0534351145038168
5.44,0.02490234375,-0.9892578125,0.289794921875,-0.8320610687022901,-0.16793893129770993,-1.1526717557251909
5.45,0.027099609375,-0.9892578125,0.273193359375,-0.8473282442748091,-0.06870229007633588,-1.0381679389312977
5.46,0.021484375,-0.990234375,0.27783203125,-0.916030534351145,-0.015267175572519083,-1.083969465648855
5.47,0.02685546875,-0.99658203125,0.268310546875,-1.1450381679389312,0.03816793893129771,-1.1068702290076335
5.48,0.025390625,-0.98974609375,0.274169921875,-1.1908396946564885,-0.015267175572519083,-0.9770992366412213
5.49,0.02490234375,-0.990234375,0.270751953125,-1.1908396946564885,-0.06870229007633588,-1.0610687022900764
5.5,0.015625,-0.992919921875,0.275634765625,-1.1755725190839694,-0.007633587786259542,-0.916030534351145
5.51,0.023193359375,-0.985107421875,0.277099609375,-0.9847328244274809,-1.9236641221374047,-1.1221374045801527
5.52,0.022216796875,-0.9970703125,0.278564453125,-0.7709923664122137,0.07633587786259542,-1.1374045801526718
5.53,0.017578125,-0.986572265625,0.265869140625,-0.9389312977099237,-0.08396946564885496,-1.16793893129771
5.54,0.0244140625,-0.989990234375,0.272216796875,-1.0229007633587786,0.1450381679389313,-1.1145038167938932
5.55,0.021484375,-0.9873046875,0.277099609375,-1.0458015267175573,-0.11450381679389313,-1.0
5.56,0.020751953125,-0.986572265625,0.279296875,-0.8702290076335878,-0.13740458015267176,-1.099236641221374
5.57,0.021484375,-0.98876953125,0.2646484375,-1.015267175572519,-0.10687022900763359,-1.0687022900763359
5.58,0.018798828125,-0.9931640625,0.267578125,-0.9541984732824428,1.9465648854961832,-1.083969465648855
5.59,0.028564453125,-0.991455078125,0.274169921875,-0.8015267175572519,-0.03816793893129771,-1.2748091603053435
5.6,0.02099609375,-0.987060546875,0.27685546875,-0.8625954198473282,1.9236641221374047,-1.183206106870229
5.61,0.0224609375,-0.98828125,0.28369140625,-1.083969465648855,0.03816793893129771,-1.1145038167938932
5.62,0.024169921875,-0.988525390625,0.279541015625,-1.0458015267175573,-0.022900763358778626,-1.2061068702290076
5.63,0.020751953125,-0.99169921875,0.2685546875,-1.0534351145038168,-0.22137404580152673,-1.1297709923664123
5.64,0.02294921875,-0.992919921875,0.274169921875,-0.9694656488549618,-0.1984732824427481,-1.1221374045801527
5.65,0.0234375,-0.990966796875,0.278076171875,-1.0229007633587786,-0.015267175572519083,-1.1221374045801527
5.66,0.013427734375,-0.98779296875,0.27490234375,-0.8625954198473282,-0.13740458015267176,-1.1221374045801527
5.67,0.026123046875,-0.98486328125,0.26708984375,-1.0,-0.0916030534351145,-1.1450381679389312
5.68,0.01806640625,-0.988037109375,0.281982421875,-0.9083969465648855,-0.03816793893129771,-1.1755725190839694
5.69,0.021484375,-0.986083984375,0.28076171875,-0.916030534351145,-0.022900763358778626,-1.1755725190839694
5.7,0.02099609375,-0.98681640625,0.27734375,-0.9770992366412213,0.06870229007633588,-0.9312977099236641
5.71,0.023681640625,-0.996337890625,0.2734375,-0.9541984732824428,0.07633587786259542,-1.1374045801526718
5.72,0.021484375,-0.984130859375,0.276123046875,-0.8473282442748091,-0.19083969465648856,-1.2213740458015268
5.73,0.029541015625,-0.98974609375,0.269775390625,-1.0458015267175573,-1.9389312977099236,-1.1984732824427482
5.74,0.021728515625,-0.994140625,0.272216796875,-1.083969465648855,-0.061068702290076333,-0.9083969465648855
5.75,0.02294921875,-0.990966796875,0.27587890625,-1.0,-0.061068702290076333,-1.2366412213740459
5.76,0.017822265625,-0.99072265625,0.27685546875,-0.9847328244274809,0.007633587786259542,-0.916030534351145
5.77,0.028564453125,-0.982421875,0.271728515625,-1.0687022900763359,0.030534351145038167,-1.0076335877862594
5.78,0.02001953125,-0.971435546875,0.274169921875,-1.0763358778625953,1.900763358778626,-0.9618320610687023
5.79,0.02490234375,-0.990234375,0.281005859375,-0.9389312977099237,0.0,-1.083969465648855
5.8,0.019775390625,-0.984375,0.27587890625,-0.9770992366412213,0.05343511450381679,-1.0763358778625953
5.81,0.02587890625,-0.988525390625,0.2744140625,-1.1603053435114503,-0.16030534351145037,-1.0534351145038168
5.82,0.0166015625,-0.983642578125,0.27490234375,-1.0076335877862594,-0.10687022900763359,-1.251908396946565
5.83,0.026611328125,-0.987060546875,0.2685546875,-0.9694656488549618,-0.030534351145038167,-0.9847328244274809
5.84,0.023193359375,-0.992919921875,0.275146484375,-0.9083969465648855,0.12213740458015267,-1.16793893129771
5.85,0.020751953125,-0.998779296875,0.26904296875,-1.1450381679389312,-0.05343511450381679,-1.1145038167938932
5.86,0.02587890625,-0.98828125,0.27734375,-0.9770992366412213,-0.06870229007633588,-0.9007633587786259
5.87,0.025146484375,-0.9892578125,0.26953125,-0.9618320610687023,-1.9083969465648856,-1.1526717557251909
5.88,0.02685546875,-0.9853515625,0.275634765625,-1.1374045801526718,0.1297709923664122,-1.2061068702290076
5.89,0.02197265625,-0.990478515625,0.275390625,-0.9083969465648855,-0.24427480916030533,-0.9923664122137404
5.9,0.02001953125,-0.9853515625,0.277587890625,-1.1450381679389312,-0.03816793893129771,-0.9465648854961832
5.91,0.02685546875,-0.984619140625,0.28271484375,-0.9770992366412213,-0.16030534351145037,-1.0381679389312977
5.92,0.024658203125,-0.98876953125,0.27734375,-1.083969465648855,0.030534351145038167,-1.099236641221374
5.93,0.023193359375,-0.9853515625,0.278076171875,-1.0458015267175573,-1.9389312977099236,-1.16793893129771
5.94,0.024658203125,-0.9853515625,0.27392578125,-1.1068702290076335,-0.13740458015267176,-1.1755725190839694
5.95,0.0224609375,-0.985595703125,0.27294921875,-1.0687022900763359,-0.11450381679389313,-1.0687022900763359
5.96,0.027099609375,-0.991455078125,0.266357421875,-1.0458015267175573,-0.2748091603053435,-1.1526717557251909
5.97,0.027587890625,-0.988037109375,0.274658203125,-0.8396946564885496,-0.03816793893129771,-0.9618320610687023
5.98,0.02490234375,-0.983642578125,0.27783203125,-0.9770992366412213,-0.09923664122137404,-0.9847328244274809
5.99,0.026123046875,-0.987548828125,0.273193359375,-0.9770992366412213,-0.05343511450381679,-1.0534351145038168
6.0,0.02001953125,-0.98974609375,0.27099609375,-0.8931297709923665,0.04580152671755725,-1.0763358778625953
6.01,0.029541015625,-0.99072265625,0.274169921875,-1.1221374045801527,0.06870229007633588,-1.1526717557251909
6.02,0.023681640625,-0.983642578125,0.2763671875,-1.1450381679389312,1.8702290076335877,-1.2290076335877862
6.03,0.0224609375,-0.9892578125,0.283447265625,-0.9465648854961832,-0.09923664122137404,-1.0534351145038168
6.04,0.02099609375,-0.991455078125,0.278564453125,-0.8931297709923665,-0.061068702290076333,-1.183206106870229
6.05,0.025390625,-0.973388671875,0.274658203125,-0.9541984732824428,0.13740458015267176,-1.1755725190839694
6.06,0.026123046875,-0.989013671875,0.27490234375,-0.7938931297709924,0.06870229007633588,-1.083969465648855
6.07,0.025634765625,-0.98681640625,0.27734375,-0.8931297709923665,0.030534351145038167,-1.083969465648855
6.08,0.025390625,-0.984375,0.27685546875,-1.0687022900763359,0.03816793893129771,-1.083969465648855
6.09,0.020263671875,-0.98876953125,0.271240234375,-1.0610687022900764,0.061068702290076333,-1.0916030534351144
6.1,0.02392578125,-0.99072265625,0.2724609375,-1.1755725190839694,-0.061068702290076333,-1.183206106870229
6.11,0.01806640625,-0.987548828125,0.2802734375,-1.0305343511450382,-0.11450381679389313,-1.0916030534351144
6.12,0.02294921875,-0.98583984375,0.275390625,-1.0,-0.1450381679389313,-1.1297709923664123
6.13,0.020263671875,-0.990234375,0.280029296875,-1.0305343511450382,-0.015267175572519083,-1.0458015267175573
6.14,0.025390625,-0.99462890625,0.275146484375,-1.1755725190839694,-0.1450381679389313,-0.9923664122137404
6.15,0.01513671875,-0.988037109375,0.27490234375,-1.1908396946564885,0.030534351145038167,-0.9465648854961832
6.16,0.020263671875,-0.985107421875,0.2783203125,-1.0381679389312977,1.900763358778626,-1.213740458015267
6.17,0.021484375,-0.982177734375,0.27783203125,-0.8854961832061069,0.15267175572519084,-1.0610687022900764
6.18,0.019775390625,-0.98583984375,0.27880859375,-1.015267175572519,-1.9389312977099236,-1.1297709923664123
6.19,0.024658203125,-0.983154296875,0.27685546875,-1.0381679389312977,-0.20610687022900764,-1.099236641221374
6.2,0.02197265625,-0.98974609375,0.271728515625,-0.816793893129771,-0.0916030534351145,-1.0458015267175573
6.21,0.016357421875,-0.98828125,0.26953125,-0.916030534351145,0.10687022900763359,-1.1068702290076335
6.22,0.025390625,-0.98486328125,0.268310546875,-0.9236641221374046,-0.06870229007633588,-1.0458015267175573
6.23,0.01953125,-0.9951171875,0.267822265625,-1.0610687022900764,-0.10687022900763359,-1.0916030534351144
6.24,0.0205078125,-0.990234375,0.272216796875,-1.0610687022900764,-0.2366412213740458,-1.16793893129771
6.25,0.023681640625,-0.9990234375,0.27490234375,-1.2213740458015268,-0.22137404580152673,-1.1145038167938932
6.26,0.02001953125,-0.987060546875,0.26806640625,-0.9923664122137404,-0.10687022900763359,-1.0610687022900764
6.27,0.021240234375,-0.9853515625,0.275634765625,-0.9465648854961832,-0.16793893129770993,-1.2366412213740459
6.28,0.029052734375,-0.99755859375,0.282958984375,-1.0610687022900764,1.8854961832061068,-1.1526717557251909
6.29,0.021240234375,-0.998779296875,0.278076171875,-0.8473282442748091,-0.1984732824427481,-1.083969465648855
6.3,0.017822265625,-0.9873046875,0.26708984375,-0.7404580152671756,-0.04580152671755725,-1.0458015267175573
6.31,0.024169921875,-0.99169921875,0.273193359375,-0.8778625954198473,-0.17557251908396945,-1.0
6.32,0.02392578125,-0.987060546875,0.280029296875,-1.0,0.1297709923664122,-1.1145038167938932
6.33,0.019775390625,-0.9912109375,0.26513671875,-1.083969465648855,0.07633587786259542,-1.1068702290076335
6.34,0.031494140625,-0.986328125,0.2724609375,-1.1145038167938932,1.916030534351145,-1.1450381679389312
6.35,0.023193359375,-0.98681640625,0.2763671875,-0.7862595419847328,-0.03816793893129771,-1.0381679389312977
6.36,0.029052734375,-0.9912109375,0.273681640625,-1.0763358778625953,-0.015267175572519083,-1.1221374045801527
6.37,0.02490234375,-0.970947265625,0.272705078125,-0.9618320610687023,-0.015267175572519083,-0.9618320610687023
6.38,0.024658203125,-0.971923828125,0.275146484375,-0.8702290076335878,-0.21374045801526717,-1.083969465648855
6.39,0.027587890625,-0.988037109375,0.277099609375,-1.0381679389312977,-0.07633587786259542,-1.0610687022900764
6.4,0.024658203125,-0.985107421875,0.26904296875,-1.1374045801526718,-0.183206106870229,-1.1297709923664123
6.41,0.028564453125,-0.9853515625,0.284912109375,-1.0229007633587786,1.9465648854961832,-1.16793893129771
6.42,0.02392578125,-0.98828125,0.284423828125,-0.9770992366412213,-0.183206106870229,-1.0305343511450382
6.43,0.025146484375,-0.98681640625,0.2744140625,-0.8778625954198473,-0.32061068702290074,-1.2442748091603053
6.44,0.0244140625,-0.98779296875,0.281494140625,-1.0,1.9465648854961832,-1.1297709923664123
6.45,0.023681640625,-0.988037109375,0.26220703125,-0.8473282442748091,0.0,-0.9694656488549618
6.46,0.02001953125,-0.98681640625,0.267822265625,-1.1068702290076335,-0.09923664122137404,-1.2442748091603053
6.47,0.01953125,-0.990966796875,0.27001953125,-0.7938931297709924,-0.09923664122137404,-0.9770992366412213
6.48,0.024658203125,-0.9697265625,0.271484375,-1.0458015267175573,0.061068702290076333,-1.0305343511450382
6.49,0.01708984375,-0.989501953125,0.27978515625,-1.0381679389312977,0.04580152671755725,-1.1450381679389312
6.5,0.019287109375,-0.986572265625,0.27001953125,-1.0,-0.11450381679389313,-1.083969465648855
6.51,0.02490234375,-0.986572265625,0.274169921875,-0.8702290076335878,-0.15267175572519084,-1.1603053435114503
6.52,0.0234375,-0.984375,0.276611328125,-1.1755725190839694,-0.06870229007633588,-1.0687022900763359
6.53,0.022705078125,-0.988037109375,0.27587890625,-0.9618320610687023,0.07633587786259542,-1.16793893129771
6.54,0.02490234375,-0.9921875,0.265625,-0.9007633587786259,0.0916030534351145,-1.0229007633587786
6.55,0.02197265625,-0.98681640625,0.27587890625,-0.9312977099236641,1.9083969465648856,-1.2061068702290076
6.56,0.02734375,-0.9814453125,0.26953125,-0.9236641221374046,-0.16030534351145037,-1.099236641221374
6.57,0.0205078125,-0.989013671875,0.2666015625,-1.0763358778625953,0.2595419847328244,-1.0458015267175573
6.58,0.02490234375,-0.98583984375,0.2763671875,-0.9465648854961832,-0.03816793893129771,-0.9923664122137404
6.59,0.021728515625,-0.988525390625,0.27197265625,-0.9694656488549618,-0.0916030534351145,-0.8778625954198473
6.6,0.02197265625,-0.99072265625,0.277099609375,-0.8320610687022901,-0.015267175572519083,-1.083969465648855
6.61,0.02197265625,-0.9921875,0.269287109375,-1.1908396946564885,-0.07633587786259542,-1.0458015267175573
6.62,0.025146484375,-0.98583984375,0.27685546875,-0.9847328244274809,-0.07633587786259542,-0.8854961832061069
6.63,0.021728515625,-0.97021484375,0.273681640625,-1.1526717557251909,-0.22900763358778625,-1.0610687022900764
6.64,0.0263671875,-0.971923828125,0.29296875,-1.2748091603053435,0.08396946564885496,-1.0763358778625953
6.65,0.023193359375,-0.98486328125,0.26953125,-1.0687022900763359,-0.21374045801526717,-1.0534351145038168
6.66,0.01904296875,-0.9892578125,0.265625,-0.9770992366412213,-0.0916030534351145,-1.0534351145038168
6.67,0.022216796875,-0.99169921875,0.27685546875,-0.8931297709923665,-0.16030534351145037,-1.0687022900763359
6.68,0.014892578125,-0.990234375,0.27099609375,-0.8625954198473282,0.007633587786259542,-1.2748091603053435
6.69,0.027099609375,-0.98974609375,0.268798828125,-0.8320610687022901,-0.16030534351145037,-0.9694656488549618
6.7,0.0244140625,-0.993408203125,0.27978515625,-1.0458015267175573,-0.12213740458015267,-1.1908396946564885
6.71,0.0283203125,-0.985107421875,0.27880859375,-1.2671755725190839,-0.030534351145038167,-1.1755725190839694
6.72,0.022705078125,-0.999267578125,0.27734375,-1.2366412213740459,-0.06870229007633588,-1.083969465648855
6.73,0.0224609375,-0.9912109375,0.25,-0.9694656488549618,0.015267175572519083,-1.1450381679389312
6.74,0.02001953125,-0.989013671875,0.272216796875,-0.8854961832061069,-0.13740458015267176,-0.9847328244274809
6.75,0.021728515625,-0.991455078125,0.2724609375,-0.7251908396946565,0.04580152671755725,-1.1297709923664123
6.76,0.015625,-0.990234375,0.282958984375,-0.648854961832061,1.916030534351145,-1.16793893129771
6.77,0.01806640625,-0.98681640625,0.27880859375,-1.0534351145038168,-0.061068702290076333,-1.183206106870229
6.78,0.020751953125,-0.9921875,0.283447265625,-1.16793893129771,0.030534351145038167,-0.9618320610687023
6.79,0.020263671875,-0.9853515625,0.278076171875,-1.2595419847328244,-0.030534351145038167,-1.0305343511450382
6.8,0.028076171875,-0.97265625,0.270751953125,-1.1221374045801527,0.05343511450381679,-1.0687022900763359
6.81,0.016357421875,-0.98828125,0.270263671875,-0.8931297709923665,-0.16030534351145037,-1.0687022900763359
6.82,0.0205078125,-0.987060546875,0.277587890625,-0.8015267175572519,-0.1297709923664122,-1.083969465648855
6.83,0.021240234375,-0.989013671875,0.26806640625,-0.9465648854961832,0.022900763358778626,-1.2900763358778626
6.84,0.01904296875,-0.9970703125,0.275146484375,-1.0229007633587786,0.05343511450381679,-0.9541984732824428
6.85,0.028076171875,-0.98388671875,0.278564453125,-1.1603053435114503,0.08396946564885496,-1.1221374045801527
6.86,0.024658203125,-0.989013671875,0.268798828125,-1.0229007633587786,-0.22137404580152673,-1.0229007633587786
6.87,0.02099609375,-0.993408203125,0.267578125,-0.9618320610687023,-0.05343511450381679,-1.0534351145038168
6.88,0.02294921875,-0.971435546875,0.26953125,-1.1297709923664123,-0.0916030534351145,-1.1145038167938932
6.89,0.024169921875,-0.9912109375,0.276611328125,-0.8625954198473282,-0.0916030534351145,-1.0534351145038168
6.9,0.0234375,-0.986328125,0.27490234375,-0.7251908396946565,-0.16793893129770993,-1.0916030534351144
6.91,0.0244140625,-0.9970703125,0.296630859375,-0.8778625954198473,-0.2824427480916031,-1.0916030534351144
6.92,0.020751953125,-0.99072265625,0.274658203125,-1.1297709923664123,-0.015267175572519083,-1.213740458015267
6.93,0.018310546875,-0.991455078125,0.273681640625,-1.2900763358778626,0.09923664122137404,-1.099236641221374
6.94,0.020751953125,-0.98828125,0.2744140625,-1.1908396946564885,-0.022900763358778626,-1.015267175572519
6.95,0.018310546875,-0.987548828125,0.272216796875,-0.8931297709923665,-0.10687022900763359,-1.0
6.96,0.022216796875,-0.98974609375,0.2734375,-0.8244274809160306,-0.2900763358778626,-0.9923664122137404
6.97,0.02392578125,-0.994140625,0.27587890625,-0.5190839694656488,-0.06870229007633588,-1.0534351145038168
6.98,0.023193359375,-0.987548828125,0.279052734375,-0.816793893129771,-0.22137404580152673,-1.183206106870229
6.99,0.020751953125,-0.9892578125,0.28369140625,-1.1068702290076335,1.9083969465648856,-0.9541984732824428
7.0,0.019287109375,-0.99658203125,0.273681640625,-1.1221374045801527,-0.06870229007633588,-0.9694656488549618
7.01,0.023681640625,-0.9912109375,0.275146484375,-1.0381679389312977,-0.1984732824427481,-1.1984732824427482
7.02,0.02490234375,-0.987060546875,0.27880859375,-1.083969465648855,0.061068702290076333,-1.2748091603053435
7.03,0.025390625,-0.986572265625,0.265380859375,-0.9541984732824428,-1.916030534351145,-1.1374045801526718
7.04,0.02294921875,-0.986083984375,0.27880859375,-0.9007633587786259,1.8931297709923665,-1.1145038167938932
7.05,0.025634765625,-0.987060546875,0.277587890625,-0.8854961832061069,0.10687022900763359,-1.1068702290076335
7.06,0.0263671875,-0.990234375,0.265380859375,-1.183206106870229,0.06870229007633588,-1.1450381679389312
7.07,0.03076171875,-0.998291015625,0.274169921875,-1.0916030534351144,-0.1984732824427481,-1.1145038167938932
7.08,0.02587890625,-0.986572265625,0.2724609375,-1.1068702290076335,-0.11450381679389313,-1.1984732824427482
7.09,0.01611328125,-0.9853515625,0.27001953125,-1.0534351145038168,-0.15267175572519084,-1.2366412213740459
7.1,0.022216796875,-0.990966796875,0.26953125,-0.8091603053435115,-0.12213740458015267,-1.1068702290076335
7.11,0.018798828125,-0.98828125,0.278076171875,-0.7404580152671756,-1.9541984732824427,-1.0076335877862594
7.12,0.01904296875,-0.986083984375,0.2685546875,-0.732824427480916,0.1984732824427481,-1.213740458015267
7.13,0.017822265625,-0.992919921875,0.27685546875,-0.9312977099236641,0.015267175572519083,-1.16793893129771
7.14,0.021728515625,-0.9892578125,0.276123046875,-0.9618320610687023,0.19083969465648856,-1.1145038167938932
7.15,0.020263671875,-0.987060546875,0.27099609375,-1.0076335877862594,0.17557251908396945,-1.099236641221374
7.16,0.022705078125,-0.991943359375,0.273193359375,-1.0458015267175573,-0.1297709923664122,-1.1297709923664123
7.17,0.017822265625,-0.9892578125,0.27587890625,-0.9465648854961832,-0.22900763358778625,-1.0229007633587786
7.18,0.016357421875,-0.98388671875,0.27490234375,-1.0534351145038168,-0.061068702290076333,-1.0763358778625953
7.19,0.021240234375,-0.980224609375,0.27783203125,-1.0916030534351144,-0.06870229007633588,-1.1068702290076335
7.2,0.0224609375,-0.986083984375,0.27880859375,-0.9312977099236641,0.19083969465648856,-1.0763358778625953
7.21,0.025634765625,-0.97998046875,0.275634765625,-1.2290076335877862,0.16793893129770993,-1.0458015267175573
7.22,0.0234375,-0.989990234375,0.268310546875,-1.2442748091603053,-1.8931297709923665,-1.1145038167938932
7.23,0.028564453125,-0.98681640625,0.274658203125,-1.1145038167938932,-0.12213740458015267,-1.099236641221374
7.24,0.021484375,-0.9892578125,0.276123046875,-0.8244274809160306,-1.9389312977099236,-1.183206106870229
7.25,0.02734375,-0.984619140625,0.276611328125,-0.7709923664122137,-0.03816793893129771,-1.0076335877862594
7.26,0.0283203125,-0.986083984375,0.2724609375,-0.732824427480916,-0.12213740458015267,-1.1526717557251909
7.27,0.0263671875,-0.991943359375,0.26806640625,-0.7404580152671756,-0.2900763358778626,-1.1145038167938932
7.28,0.02392578125,-0.981201171875,0.28271484375,-0.916030534351145,-0.007633587786259542,-1.2290076335877862
7.29,0.023681640625,-0.986572265625,0.27490234375,-1.2748091603053435,-1.900763358778626,-1.1526717557251909
7.3,0.020263671875,-0.9853515625,0.28173828125,-1.0916030534351144,-0.061068702290076333,-1.0916030534351144
7.31,0.02490234375,-0.99072265625,0.26513671875,-1.1145038167938932,-0.0916030534351145,-1.1297709923664123
7.32,0.02392578125,-0.968994140625,0.26953125,-0.9312977099236641,-0.03816793893129771,-0.9770992366412213
7.33,0.020751953125,-0.987548828125,0.279296875,-0.8854961832061069,-0.030534351145038167,-1.1145038167938932
7.34,0.024658203125,-0.98828125,0.276123046875,-0.9847328244274809,-0.16793893129770993,-1.0229007633587786
7.35,0.029541015625,-0.984375,0.271240234375,-1.1450381679389312,0.11450381679389313,-1.2061068702290076
7.36,0.0234375,-0.993408203125,0.280029296875,-1.213740458015267,0.022900763358778626,-1.2061068702290076
7.37,0.020263671875,-0.994873046875,0.273681640625,-1.0687022900763359,1.900763358778626,-1.2366412213740459
7.38,0.024169921875,-0.98779296875,0.280517578125,-1.183206106870229,1.916030534351145,-1.0916030534351144
7.39,0.02978515625,-0.988525390625,0.26904296875,-0.9465648854961832,-0.061068702290076333,-1.015267175572519
7.4,0.031005859375,-0.992431640625,0.281005859375,-0.7175572519083969,0.183206106870229,-1.0687022900763359
7.41,0.027587890625,-0.97314453125,0.2705078125,-0.7633587786259542,-0.03816793893129771,-1.0381679389312977
7.42,0.021728515625,-0.988525390625,0.273193359375,-0.6793893129770993,-0.09923664122137404,-1.1145038167938932
7.43,0.0244140625,-0.991943359375,0.269287109375,-1.0610687022900764,1.900763358778626,-1.213740458015267
7.44,0.020263671875,-0.984619140625,0.27099609375,-1.1068702290076335,-0.16030534351145037,-1.0916030534351144
7.45,0.0166015625,-0.990234375,0.2685546875,-1.1450381679389312,1.9389312977099236,-1.1068702290076335
7.46,0.01953125,-0.990234375,0.2724609375,-1.2061068702290076,-0.061068702290076333,-1.0381679389312977
7.47,0.02001953125,-0.990966796875,0.2783203125,-0.8396946564885496,-0.1984732824427481,-1.2366412213740459
7.48,0.03076171875,-0.986328125,0.275146484375,-0.9389312977099237,-0.2366412213740458,-1.1297709923664123
7.49,0.02490234375,-0.987060546875,0.280029296875,-0.9770992366412213,0.15267175572519084,-1.1755725190839694
7.5,0.03076171875,-0.998779296875,0.27978515625,-0.8854961832061069,-0.007633587786259542,-1.1450381679389312
7.51,0.02392578125,-0.986572265625,0.27197265625,-1.16793893129771,-0.21374045801526717,-1.1603053435114503
7.52,0.020751953125,-0.997802734375,0.277099609375,-1.1145038167938932,0.06870229007633588,-1.2061068702290076
7.53,0.023681640625,-0.99072265625,0.264892578125,-1.083969465648855,-0.12213740458015267,-1.0534351145038168
7.54,0.02685546875,-0.9892578125,0.274658203125,-0.8854961832061069,-0.007633587786259542,-0.9923664122137404
7.55,0.021240234375,-0.986328125,0.28076171875,-0.7099236641221374,1.900763358778626,-1.0229007633587786
7.56,0.02294921875,-0.98583984375,0.268310546875,-0.9312977099236641,0.1450381679389313,-0.9541984732824428
7.57,0.024169921875,-0.992919921875,0.277587890625,-0.8625954198473282,0.16793893129770993,-1.3206106870229009
7.58,0.02783203125,-0.9853515625,0.271484375,-1.1297709923664123,1.9236641221374047,-1.0610687022900764
7.59,0.025634765625,-0.98876953125,0.274658203125,-1.099236641221374,-0.10687022900763359,-1.1068702290076335
7.6,0.023681640625,-0.992431640625,0.269775390625,-0.9312977099236641,-0.21374045801526717,-1.1221374045801527
7.61,0.01904296875,-0.989990234375,0.274658203125,-0.9312977099236641,0.015267175572519083,-0.9007633587786259
7.62,0.02490234375,-0.98876953125,0.27734375,-0.8702290076335878,0.06870229007633588,-1.0458015267175573
7.63,0.023193359375,-0.9912109375,0.278564453125,-0.8625954198473282,0.12213740458015267,-1.083969465648855
7.64,0.0234375,-0.98779296875,0.274169921875,-1.083969465648855,1.9312977099236641,-1.2290076335877862
7.65,0.020751953125,-0.989990234375,0.274658203125,-1.0305343511450382,0.08396946564885496,-1.2366412213740459
7.66,0.0283203125,-0.994873046875,0.2744140625,-1.1755725190839694,0.061068702290076333,-1.1984732824427482
7.67,0.02294921875,-0.99755859375,0.278564453125,-1.0458015267175573,0.007633587786259542,-1.1526717557251909
7.68,0.0224609375,-0.989013671875,0.283203125,-0.7175572519083969,-0.04580152671755725,-1.0687022900763359
7.69,0.016357421875,-0.9814453125,0.272216796875,-1.0076335877862594,-0.08396946564885496,-1.1221374045801527
7.7,0.021240234375,-0.990966796875,0.281982421875,-0.7709923664122137,0.10687022900763359,-1.083969465648855
7.71,0.019287109375,-0.98828125,0.27685546875,-0.916030534351145,-0.06870229007633588,-1.1755725190839694
7.72,0.02490234375,-0.984619140625,0.279052734375,-1.1297709923664123,-0.03816793893129771,-1.2213740458015268
7.73,0.02099609375,-0.987548828125,0.26953125,-1.0610687022900764,0.03816793893129771,-1.2213740458015268
7.74,0.020263671875,-0.9912109375,0.26953125,-0.9923664122137404,-1.9236641221374047,-1.3053435114503817
7.75,0.020263671875,-0.991455078125,0.27392578125,-0.9007633587786259,-0.1297709923664122,-1.1908396946564885
7.76,0.001708984375,-0.999755859375,0.27001953125,-1.0229007633587786,-0.22137404580152673,-1.2671755725190839
7.77,0.024658203125,-0.97509765625,0.270751953125,-0.8244274809160306,-0.25190839694656486,-0.9389312977099237
7.78,0.022216796875,-0.985595703125,0.278076171875,-0.816793893129771,-0.030534351145038167,-1.1526717557251909
7.79,0.0234375,-0.992431640625,0.273681640625,-0.7404580152671756,0.12213740458015267,-1.1526717557251909
7.8,0.01611328125,-0.9853515625,0.275634765625,-1.1450381679389312,-0.08396946564885496,-1.0305343511450382
7.81,0.027099609375,-0.98974609375,0.28271484375,-0.8702290076335878,-0.03816793893129771,-1.0534351145038168
7.82,0.022216796875,-0.99609375,0.27734375,-1.1374045801526718,0.12213740458015267,-1.015267175572519
7.83,0.01953125,-0.990234375,0.273681640625,-1.0076335877862594,-1.9541984732824427,-1.1221374045801527
7.84,0.024658203125,-0.989990234375,0.269287109375,-1.1068702290076335,0.11450381679389313,-1.0
7.85,0.022705078125,-0.98291015625,0.27734375,-0.8778625954198473,0.007633587786259542,-1.0916030534351144
7.86,0.023681640625,-0.990966796875,0.27294921875,-0.9312977099236641,-1.9541984732824427,-1.282442748091603
7.87,0.024658203125,-0.9912109375,0.27587890625,-0.9770992366412213,-0.10687022900763359,-1.1221374045801527
7.88,0.02392578125,-0.990234375,0.276611328125,-1.0763358778625953,1.9389312977099236,-1.1221374045801527
7.89,0.024169921875,-0.989013671875,0.265625,-0.9694656488549618,-0.05343511450381679,-1.0305343511450382
7.9,0.023193359375,-0.98876953125,0.27099609375,-1.2061068702290076,-0.03816793893129771,-0.9541984732824428
7.91,0.024169921875,-0.978515625,0.27978515625,-1.0229007633587786,-0.07633587786259542,-1.1297709923664123
7.92,0.022216796875,-0.998291015625,0.265625,-0.7251908396946565,0.030534351145038167,-1.1145038167938932
7.93,0.0224609375,-0.9853515625,0.26611328125,-0.816793893129771,0.1297709923664122,-0.9618320610687023
7.94,0.020263671875,-0.98779296875,0.271728515625,-1.0916030534351144,-0.03816793893129771,-1.1984732824427482
7.95,0.024169921875,-0.98876953125,0.265625,-1.16793893129771,0.007633587786259542,-1.1450381679389312
7.96,0.020751953125,-0.990234375,0.273681640625,-1.1145038167938932,-0.04580152671755725,-0.9541984732824428
7.97,0.01806640625,-0.99560546875,0.280029296875,-1.1297709923664123,-0.1297709923664122,-1.1221374045801527
7.98,0.017822265625,-0.990478515625,0.277587890625,-1.1145038167938932,0.0,-1.0458015267175573
7.99,0.022705078125,-0.98681640625,0.274169921875,-0.8396946564885496,-0.25190839694656486,-1.099236641221374
8.0,0.025146484375,-0.97021484375,0.2763671875,-0.9770992366412213,-0.05343511450381679,-1.1221374045801527
8.01,0.021484375,-0.9873046875,0.27978515625,-1.0381679389312977,1.9236641221374047,-1.1603053435114503
8.02,0.022705078125,-0.9873046875,0.27099609375,-1.0,-0.0916030534351145,-1.0687022900763359
8.03,0.021728515625,-0.98876953125,0.28076171875,-1.0305343511450382,1.9465648854961832,-1.1755725190839694
8.04,0.02685546875,-0.99072265625,0.267822265625,-0.8778625954198473,0.015267175572519083,-1.2366412213740459
8.05,0.0244140625,-0.98876953125,0.27294921875,-1.0305343511450382,-0.05343511450381679,-0.9694656488549618
8.06,0.024658203125,-0.98876953125,0.275634765625,-0.9465648854961832,0.030534351145038167,-1.1068702290076335
8.07,0.02197265625,-0.985107421875,0.27392578125,-1.213740458015267,-0.2366412213740458,-1.0916030534351144
8.08,0.025146484375,-0.9853515625,0.274169921875,-0.9389312977099237,0.05343511450381679,-0.9847328244274809
8.09,0.017578125,-0.988037109375,0.26708984375,-1.1908396946564885,-0.022900763358778626,-0.9541984732824428
8.1,0.013671875,-0.973876953125,0.267578125,-1.015267175572519,-0.05343511450381679,-1.0458015267175573
8.11,0.021728515625,-0.986328125,0.267578125,-0.916030534351145,0.11450381679389313,-1.1374045801526718
8.12,0.019775390625,-0.988525390625,0.2724609375,-0.7709923664122137,-0.06870229007633588,-1.0534351145038168
8.13,0.0205078125,-0.99365234375,0.275390625,-1.0458015267175573,0.015267175572519083,-1.083969465648855
8.14,0.017822265625,-0.984130859375,0.275146484375,-0.8778625954198473,-0.12213740458015267,-1.0610687022900764
8.15,0.01904296875,-0.985107421875,0.282470703125,-0.9541984732824428,-0.12213740458015267,-0.9847328244274809
8.16,0.024169921875,-0.98486328125,0.27294921875,-1.1603053435114503,0.0,-0.9694656488549618
8.17,0.02099609375,-0.986328125,0.274169921875,-0.9923664122137404,0.09923664122137404,-1.1145038167938932
8.18,0.026123046875,-0.986328125,0.278076171875,-0.9389312977099237,0.03816793893129771,-1.1374045801526718
8.19,0.025390625,-0.990478515625,0.272216796875,-0.9007633587786259,0.0916030534351145,-1.2366412213740459
8.2,0.02490234375,-0.986328125,0.274169921875,-0.8854961832061069,0.06870229007633588,-1.1755725190839694
8.21,0.02783203125,-0.984375,0.273193359375,-1.1374045801526718,-0.06870229007633588,-1.0916030534351144
8.22,0.0224609375,-0.9853515625,0.272216796875,-0.8931297709923665,-0.07633587786259542,-1.0916030534351144
8.23,0.021484375,-0.986083984375,0.2763671875,-0.9847328244274809,-0.08396946564885496,-1.0534351145038168
8.24,0.022705078125,-0.99462890625,0.27587890625,-0.8931297709923665,-0.17557251908396945,-1.0534351145038168
8.25,0.021484375,-0.99267578125,0.2666015625,-0.7862595419847328,-0.13740458015267176,-1.0381679389312977
8.26,0.02587890625,-0.986572265625,0.276611328125,-1.0,-0.061068702290076333,-1.1450381679389312
8.27,0.02294921875,-0.990966796875,0.27734375,-1.1068702290076335,-0.06870229007633588,-1.16793893129771
8.28,0.019775390625,-0.989990234375,0.27099609375,-0.8396946564885496,-0.03816793893129771,-1.0534351145038168
8.29,0.02685546875,-0.99169921875,0.279052734375,-1.0610687022900764,0.04580152671755725,-1.0610687022900764
8.3,0.020263671875,-0.98681640625,0.27392578125,-1.1297709923664123,-1.9083969465648856,-1.1526717557251909
8.31,0.018310546875,-0.99169921875,0.28564453125,-1.015267175572519,-0.0916030534351145,-1.1603053435114503
8.32,0.020751953125,-0.99169921875,0.275634765625,-0.8473282442748091,0.022900763358778626,-1.1908396946564885
8.33,0.02099609375,-0.98828125,0.279296875,-0.916030534351145,0.015267175572519083,-1.083969465648855
8.34,0.01806640625,-0.992919921875,0.277099609375,-1.0,0.04580152671755725,-1.083969465648855
8.35,0.021484375,-0.98876953125,0.275146484375,-0.9312977099236641,-0.07633587786259542,-1.0305343511450382
8.36,0.023681640625,-0.998779296875,0.26611328125,-1.1374045801526718,-0.05343511450381679,-1.2290076335877862
8.37,0.020263671875,-0.97265625,0.29345703125,-0.8778625954198473,-0.06870229007633588,-1.0916030534351144
8.38,0.022705078125,-0.986328125,0.280029296875,-0.8778625954198473,-0.16030534351145037,-0.9465648854961832
8.39,0.016357421875,-0.996337890625,0.275146484375,-0.7862595419847328,-1.9541984732824427,-1.1145038167938932
8.4,0.02099609375,-0.990234375,0.27392578125,-1.1297709923664123,-0.1297709923664122,-1.1068702290076335
8.41,0.02099609375,-0.987548828125,0.27001953125,-0.916030534351145,-0.09923664122137404,-1.1068702290076335
8.42,0.026611328125,-0.98974609375,0.266357421875,-1.0763358778625953,-0.04580152671755725,-1.0763358778625953
8.43,0.0244140625,-0.98828125,0.277099609375,-0.916030534351145,0.022900763358778626,-1.0305343511450382
8.44,0.030029296875,-0.9912109375,0.279541015625,-1.0229007633587786,0.04580152671755725,-0.9923664122137404
8.45,0.02392578125,-0.990966796875,0.269287109375,-1.0687022900763359,-1.8702290076335877,-1.0916030534351144
8.46,0.026611328125,-0.968994140625,0.271728515625,-0.8396946564885496,-0.11450381679389313,-1.1297709923664123
8.47,0.025634765625,-0.989990234375,0.279296875,-0.8320610687022901,-1.9389312977099236,-1.1374045801526718
8.48,0.020751953125,-0.98876953125,0.27001953125,-0.9618320610687023,0.03816793893129771,-1.2442748091603053
8.49,0.0234375,-0.983154296875,0.272216796875,-0.9389312977099237,-0.022900763358778626,-1.1450381679389312
8.5,0.03173828125,-0.98828125,0.267578125,-1.0610687022900764,0.05343511450381679,-0.8778625954198473
8.51,0.021484375,-0.985107421875,0.2734375,-0.8778625954198473,0.06870229007633588,-1.1450381679389312
8.52,0.02783203125,-0.98876953125,0.273193359375,-1.1297709923664123,1.8702290076335877,-1.1297709923664123
8.53,0.0205078125,-0.99169921875,0.2802734375,-0.9007633587786259,0.030534351145038167,-1.2213740458015268
8.54,0.022216796875,-0.98828125,0.27294921875,-0.8015267175572519,-0.0916030534351145,-1.1374045801526718
8.55,0.021728515625,-0.9951171875,0.277587890625,-0.9618320610687023,1.9312977099236641,-1.2671755725190839
8.56,0.021484375,-0.990966796875,0.269287109375,-1.0,1.9389312977099236,-1.1145038167938932
8.57,0.02197265625,-0.98779296875,0.2763671875,-0.9923664122137404,0.061068702290076333,-1.0305343511450382
8.58,0.02490234375,-0.98681640625,0.273681640625,-1.0381679389312977,0.007633587786259542,-1.0916030534351144
8.59,0.02392578125,-0.997802734375,0.270751953125,-0.8320610687022901,0.16793893129770993,-1.0305343511450382
8.6,0.020263671875,-0.986328125,0.271728515625,-0.9389312977099237,-0.007633587786259542,-1.1908396946564885
8.61,0.02197265625,-0.99072265625,0.2958984375,-1.2290076335877862,0.015267175572519083,-1.0916030534351144
8.62,0.024169921875,-0.990966796875,0.272216796875,-0.8244274809160306,1.9236641221374047,-1.1450381679389312
8.63,0.0244140625,-0.994140625,0.279541015625,-1.0229007633587786,-0.007633587786259542,-1.2595419847328244
8.64,0.016845703125,-0.991455078125,0.272705078125,-0.9465648854961832,-0.1297709923664122,-1.16793893129771
8.65,0.021240234375,-0.987548828125,0.263916015625,-1.0229007633587786,0.007633587786259542,-1.1755725190839694
8.66,0.02490234375,-0.990966796875,0.27587890625,-0.9312977099236641,-0.030534351145038167,-1.0610687022900764
8.67,0.02490234375,-0.985595703125,0.2802734375,-0.9465648854961832,-0.08396946564885496,-1.1221374045801527
8.68,0.026611328125,-0.98388671875,0.277587890625,-0.9847328244274809,-1.9541984732824427,-1.0305343511450382
8.69,0.022216796875,-0.9873046875,0.28173828125,-0.9236641221374046,0.16030534351145037,-1.1221374045801527
8.7,0.021484375,-0.994140625,0.274169921875,-1.0076335877862594,-1.8931297709923665,-1.2442748091603053
8.71,0.020263671875,-0.998291015625,0.267333984375,-0.9847328244274809,-0.16793893129770993,-1.0610687022900764
8.72,0.02099609375,-0.98681640625,0.270751953125,-0.9312977099236641,-1.9236641221374047,-1.1221374045801527
8.73,0.021728515625,-0.991455078125,0.271728515625,-1.0916030534351144,0.2366412213740458,-1.0916030534351144
8.74,0.025390625,-0.990478515625,0.282958984375,-0.9694656488549618,-0.1450381679389313,-0.9541984732824428
8.75,0.0234375,-0.990234375,0.270751953125,-0.9618320610687023,-1.9312977099236641,-0.9007633587786259
8.76,0.023193359375,-0.992431640625,0.27099609375,-0.8625954198473282,-0.10687022900763359,-1.1908396946564885
8.77,0.017333984375,-0.9873046875,0.27099609375,-0.9083969465648855,-0.1297709923664122,-1.1450381679389312
8.78,0.021240234375,-0.98291015625,0.275146484375,-0.9541984732824428,0.09923664122137404,-0.9465648854961832
8.79,0.0205078125,-0.98779296875,0.277587890625,-1.0381679389312977,-1.9312977099236641,-1.1755725190839694
8.8,0.021728515625,-0.99267578125,0.285400390625,-0.9847328244274809,-0.015267175572519083,-1.0763358778625953
8.81,0.02197265625,-0.986083984375,0.273681640625,-0.9923664122137404,0.03816793893129771,-1.0229007633587786
8.82,0.02099609375,-0.9921875,0.261962890625,-1.0381679389312977,-0.13740458015267176,-1.2442748091603053
8.83,0.018310546875,-0.98583984375,0.279052734375,-0.7404580152671756,-0.007633587786259542,-1.0305343511450382
8.84,0.02197265625,-0.992919921875,0.28125,-0.9847328244274809,-0.06870229007633588,-0.9923664122137404
8.85,0.0244140625,-0.9853515625,0.277587890625,-0.9236641221374046,-0.015267175572519083,-1.1297709923664123
8.86,0.02099609375,-0.988037109375,0.28173828125,-1.0916030534351144,-0.015267175572519083,-0.9770992366412213
8.87,0.02490234375,-0.987060546875,0.277099609375,-0.9312977099236641,1.9312977099236641,-1.0763358778625953
8.88,0.04052734375,-0.990234375,0.277099609375,-1.1526717557251909,-0.12213740458015267,-1.0229007633587786
8.89,0.026611328125,-0.987060546875,0.276123046875,-0.9312977099236641,0.03816793893129771,-1.083969465648855
8.9,0.021240234375,-0.986572265625,0.27978515625,-1.0916030534351144,0.03816793893129771,-1.1450381679389312
8.91,0.0185546875,-0.98779296875,0.27734375,-0.9007633587786259,-0.03816793893129771,-0.9541984732824428
8.92,0.020751953125,-0.985107421875,0.2744140625,-0.9312977099236641,1.9389312977099236,-1.2671755725190839
8.93,0.02490234375,-0.982666015625,0.26708984375,-1.0381679389312977,-0.10687022900763359,-1.1068702290076335
8.94,0.02392578125,-0.98583984375,0.279541015625,-1.0763358778625953,-0.0916030534351145,-1.0687022900763359
8.95,0.02392578125,-0.99462890625,0.27783203125,-1.0458015267175573,0.04580152671755725,-0.9541984732824428
8.96,0.02392578125,-0.99365234375,0.2724609375,-1.015267175572519,-0.07633587786259542,-1.1450381679389312
8.97,0.01904296875,-0.98974609375,0.270263671875,-1.0076335877862594,0.09923664122137404,-0.9694656488549618
8.98,0.02001953125,-0.98828125,0.27197265625,-0.9618320610687023,-0.061068702290076333,-1.015267175572519
8.99,0.023681640625,-0.99169921875,0.278564453125,-0.8931297709923665,-0.12213740458015267,-1.0916030534351144
9.0,0.029541015625,-0.990478515625,0.27734375,-0.9541984732824428,-0.05343511450381679,-1.16793893129771
9.01,0.022705078125,-0.99169921875,0.272216796875,-0.9541984732824428,0.04580152671755725,-1.1984732824427482
9.02,0.026611328125,-0.9912109375,0.27490234375,-1.1145038167938932,0.022900763358778626,-1.1984732824427482
9.03,0.022216796875,-0.983154296875,0.280029296875,-1.0687022900763359,0.07633587786259542,-1.0458015267175573
9.04,0.028076171875,-0.988037109375,0.27294921875,-0.9618320610687023,-1.9312977099236641,-1.2671755725190839
9.05,0.02294921875,-0.9912109375,0.278076171875,-1.0229007633587786,0.06870229007633588,-1.1068702290076335
9.06,0.00439453125,-0.989501953125,0.271484375,-0.8396946564885496,-1.9083969465648856,-1.1526717557251909
9.07,0.0244140625,-0.988037109375,0.270263671875,-0.8702290076335878,0.13740458015267176,-1.1221374045801527
9.08,0.019287109375,-0.98681640625,0.275146484375,-0.9312977099236641,0.0916030534351145,-1.1068702290076335
9.09,0.021728515625,-0.987060546875,0.28076171875,-0.816793893129771,0.10687022900763359,-0.9694656488549618
9.1,0.0224609375,-0.99072265625,0.266845703125,-1.0458015267175573,0.061068702290076333,-1.2213740458015268
9.11,0.0244140625,-0.985595703125,0.276123046875,-0.9465648854961832,0.11450381679389313,-1.183206106870229
9.12,0.022216796875,-0.99267578125,0.267578125,-0.9618320610687023,-0.061068702290076333,-1.0610687022900764
9.13,0.021240234375,-0.99072265625,0.27001953125,-0.9389312977099237,-1.9236641221374047,-1.0687022900763359
9.14,0.02001953125,-0.968994140625,0.2666015625,-1.213740458015267,-0.12213740458015267,-1.1908396946564885
9.15,0.015625,-0.991455078125,0.275146484375,-1.0076335877862594,-0.10687022900763359,-1.0763358778625953
9.16,0.024658203125,-0.9912109375,0.275390625,-0.9770992366412213,-0.0916030534351145,-1.1297709923664123
9.17,0.01708984375,-0.9931640625,0.2802734375,-1.099236641221374,-0.05343511450381679,-1.1374045801526718
9.18,0.022216796875,-0.98779296875,0.278076171875,-0.8931297709923665,-0.12213740458015267,-1.0076335877862594
9.19,0.024169921875,-0.995361328125,0.2744140625,-0.9618320610687023,0.06870229007633588,-1.1297709923664123
9.2,0.021484375,-0.987060546875,0.274658203125,-0.916030534351145,-0.12213740458015267,-1.1908396946564885
9.21,0.024658203125,-0.985107421875,0.27294921875,-1.1221374045801527,-1.9465648854961832,-1.2290076335877862
9.22,0.024658203125,-0.9853515625,0.279541015625,-0.9770992366412213,0.030534351145038167,-1.1984732824427482
9.23,0.022705078125,-0.986572265625,0.273193359375,-0.9694656488549618,0.015267175572519083,-1.0610687022900764
9.24,0.0234375,-0.988037109375,0.270751953125,-1.0381679389312977,-0.1984732824427481,-1.1603053435114503
9.25,0.027099609375,-0.98779296875,0.295654296875,-1.2442748091603053,-1.9465648854961832,-1.083969465648855
9.26,0.024658203125,-0.986572265625,0.277099609375,-1.015267175572519,-0.13740458015267176,-1.183206106870229
9.27,0.0166015625,-0.987548828125,0.274169921875,-0.8473282442748091,1.9465648854961832,-1.1526717557251909
9.28,0.020263671875,-0.99072265625,0.276123046875,-1.0229007633587786,-0.22137404580152673,-1.1145038167938932
9.29,0.025146484375,-0.98681640625,0.275634765625,-0.7938931297709924,-1.900763358778626,-1.2061068702290076
9.3,0.0185546875,-0.982666015625,0.275390625,-0.9923664122137404,-0.007633587786259542,-1.1603053435114503
9.31,0.02099609375,-0.992919921875,0.263916015625,-0.916030534351145,0.07633587786259542,-1.099236641221374
9.32,0.024169921875,-0.988037109375,0.273193359375,-1.1526717557251909,0.11450381679389313,-0.9618320610687023
9.33,0.029052734375,-0.986083984375,0.270263671875,-1.0076335877862594,-0.04580152671755725,-1.0076335877862594
9.34,0.03125,-0.990234375,0.27392578125,-1.0,1.9465648854961832,-1.183206106870229
9.35,0.02783203125,-0.9873046875,0.277587890625,-1.1755725190839694,-0.030534351145038167,-1.1145038167938932
9.36,0.025146484375,-0.9873046875,0.26806640625,-1.015267175572519,0.05343511450381679,-1.083969465648855
9.37,0.0205078125,-0.987548828125,0.272705078125,-0.9694656488549618,-0.16793893129770993,-1.1374045801526718
9.38,0.0234375,-0.987548828125,0.27685546875,-0.9389312977099237,-0.06870229007633588,-0.8931297709923665
9.39,0.02001953125,-0.96923828125,0.27392578125,-1.0076335877862594,0.07633587786259542,-0.816793893129771
9.4,0.0185546875,-0.972412109375,0.2685546875,-1.0305343511450382,-0.007633587786259542,-1.2290076335877862
9.41,0.0244140625,-0.99365234375,0.278076171875,-0.9541984732824428,0.05343511450381679,-1.2366412213740459
9.42,0.018310546875,-0.993896484375,0.275146484375,-0.8625954198473282,-0.061068702290076333,-0.9312977099236641
9.43,0.02294921875,-0.992919921875,0.270751953125,-0.9083969465648855,-0.1450381679389313,-1.2595419847328244
9.44,0.0234375,-0.9921875,0.26904296875,-0.9847328244274809,0.04580152671755725,-1.1908396946564885
9.45,0.015625,-0.99072265625,0.280029296875,-1.083969465648855,0.0916030534351145,-1.083969465648855
9.46,0.0224609375,-0.99169921875,0.276123046875,-0.7404580152671756,-0.12213740458015267,-1.015267175572519
9.47,0.020751953125,-0.989501953125,0.275634765625,-0.8473282442748091,-0.04580152671755725,-0.9923664122137404
9.48,0.02001953125,-0.987548828125,0.293212890625,-0.9389312977099237,0.030534351145038167,-1.1374045801526718
9.49,0.015869140625,-0.985107421875,0.2734375,-1.1297709923664123,-0.05343511450381679,-1.1221374045801527
9.5,0.02001953125,-0.9853515625,0.267822265625,-1.2290076335877862,-0.17557251908396945,-0.9694656488549618
9.51,0.029541015625,-0.988525390625,0.275390625,-1.2213740458015268,0.08396946564885496,-1.1984732824427482
9.52,0.02001953125,-0.990234375,0.273193359375,-1.0305343511450382,0.07633587786259542,-1.213740458015267
9.53,0.019775390625,-0.996337890625,0.270751953125,-0.916030534351145,-0.09923664122137404,-1.0458015267175573
9.54,0.02099609375,-0.98974609375,0.2734375,-1.0305343511450382,-0.08396946564885496,-1.183206106870229
9.55,0.025390625,-0.985595703125,0.276123046875,-1.1755725190839694,0.05343511450381679,-1.1603053435114503
9.56,0.01611328125,-0.990478515625,0.268798828125,-0.8244274809160306,0.04580152671755725,-1.1221374045801527
9.57,0.024658203125,-0.98828125,0.272216796875,-1.0381679389312977,0.15267175572519084,-1.16793893129771
9.58,0.02734375,-0.987060546875,0.277587890625,-1.183206106870229,-0.0916030534351145,-1.1221374045801527
9.59,0.029052734375,-0.9912109375,0.27734375,-1.0534351145038168,-0.10687022900763359,-1.083969465648855
9.6,0.023193359375,-0.99267578125,0.26611328125,-1.1603053435114503,-0.06870229007633588,-1.1450381679389312
9.61,0.02392578125,-0.99365234375,0.277099609375,-0.8549618320610687,-0.1297709923664122,-1.1068702290076335
9.62,0.023681640625,-0.989013671875,0.268310546875,-1.0458015267175573,1.9083969465648856,-1.0763358778625953
9.63,0.02294921875,-0.98681640625,0.26904296875,-0.5572519083969466,-0.06870229007633588,-1.0610687022900764
9.64,0.0263671875,-0.983642578125,0.27783203125,-0.9083969465648855,0.10687022900763359,-1.1145038167938932
9.65,0.026611328125,-0.999755859375,0.27587890625,-1.183206106870229,-0.030534351145038167,-1.1450381679389312
9.66,0.0263671875,-0.97607421875,0.272705078125,-1.1068702290076335,-0.030534351145038167,-1.1755725190839694
9.67,0.019775390625,-0.988037109375,0.260009765625,-1.2061068702290076,-0.06870229007633588,-1.0916030534351144
9.68,0.0205078125,-0.985107421875,0.275390625,-1.0916030534351144,0.0,-1.015267175572519
9.69,0.0244140625,-0.98388671875,0.27099609375,-1.0534351145038168,0.030534351145038167,-1.183206106870229
9.7,0.024169921875,-0.988525390625,0.2734375,-0.9312977099236641,-0.022900763358778626,-1.0687022900763359
9.71,0.029052734375,-0.9892578125,0.268310546875,-1.1068702290076335,-0.1450381679389313,-0.9541984732824428
9.72,0.0244140625,-0.990966796875,0.27685546875,-1.0229007633587786,0.0,-1.1908396946564885
9.73,0.01806640625,-0.998291015625,0.279541015625,-0.6412213740458015,-0.030534351145038167,-1.1526717557251909
9.74,0.02099609375,-0.988525390625,0.2958984375,-0.7862595419847328,0.0,-1.0305343511450382
9.75,0.01806640625,-0.989501953125,0.28076171875,-1.1297709923664123,0.08396946564885496,-1.0381679389312977
9.76,0.02294921875,-0.990478515625,0.278564453125,-0.9465648854961832,-0.16030534351145037,-1.1603053435114503
9.77,0.026611328125,-0.99267578125,0.292724609375,-1.099236641221374,-0.1450381679389313,-1.0610687022900764
9.78,0.020751953125,-0.992431640625,0.26171875,-1.083969465648855,0.0916030534351145,-1.1755725190839694
9.79,0.019775390625,-0.991943359375,0.273681640625,-0.9236641221374046,-0.10687022900763359,-0.9083969465648855
9.8,0.015380859375,-0.98486328125,0.277587890625,-0.8854961832061069,0.13740458015267176,-1.0458015267175573
9.81,0.02099609375,-0.988037109375,0.26904296875,-1.0076335877862594,-0.06870229007633588,-0.9465648854961832
9.82,0.02734375,-0.988525390625,0.267578125,-1.1450381679389312,-0.05343511450381679,-1.1221374045801527
9.83,0.02490234375,-0.998779296875,0.2744140625,-1.251908396946565,1.9236641221374047,-1.1755725190839694
9.84,0.019775390625,-0.986572265625,0.270263671875,-1.1068702290076335,-0.1297709923664122,-1.1603053435114503
9.85,0.018798828125,-0.988037109375,0.2734375,-1.1755725190839694,-0.2366412213740458,-0.8854961832061069
9.86,0.0224609375,-0.98291015625,0.27685546875,-0.6030534351145038,-0.1297709923664122,-1.1603053435114503
9.87,0.02197265625,-0.996337890625,0.275146484375,-1.0076335877862594,0.022900763358778626,-1.0305343511450382
9.88,0.020263671875,-0.989013671875,0.2783203125,-0.9541984732824428,-0.10687022900763359,-1.0610687022900764
9.89,0.021484375,-0.989501953125,0.26806640625,-1.1145038167938932,0.07633587786259542,-1.099236641221374
9.9,0.023193359375,-0.98193359375,0.273681640625,-1.083969465648855,0.030534351145038167,-1.0076335877862594
9.91,0.022705078125,-0.990234375,0.267333984375,-1.0534351145038168,-0.10687022900763359,-0.9923664122137404
9.92,0.018310546875,-0.98681640625,0.275390625,-1.0305343511450382,-0.10687022900763359,-1.2213740458015268
9.93,0.017333984375,-0.987060546875,0.27490234375,-0.9847328244274809,-0.05343511450381679,-1.3206106870229009
9.94,0.0224609375,-0.98828125,0.27783203125,-0.8244274809160306,-0.04580152671755725,-1.0687022900763359
9.95,0.0244140625,-0.9892578125,0.276611328125,-0.8931297709923665,-0.29770992366412213,-1.1297709923664123
9.96,0.02880859375,-0.98828125,0.274658203125,-1.213740458015267,0.12213740458015267,-1.0687022900763359
9.97,0.02490234375,-0.987060546875,0.2724609375,-1.2366412213740459,0.04580152671755725,-1.1755725190839694
9.98,0.0224609375,-0.995361328125,0.2734375,-1.2748091603053435,-0.08396946564885496,-0.9770992366412213
9.99,0.02880859375,-0.986328125,0.2734375,-0.916030534351145,-1.9236641221374047,-1.16793893129771
10.0,0.02587890625,-0.98828125,0.27197265625,-0.6946564885496184,0.11450381679389313,-1.0076335877862594
10.01,0.02294921875,-0.984130859375,0.279296875,-0.7633587786259542,0.7099236641221374,-1.2671755725190839
10.02,0.022216796875,-0.987548828125,0.280029296875,-1.5114503816793894,0.5648854961832062,-1.3129770992366412
10.03,0.029541015625,-0.994873046875,0.2734375,-1.916030534351145,0.06870229007633588,-1.1526717557251909
10.04,0.03076171875,-0.991455078125,0.27294921875,-1.1297709923664123,-0.20610687022900764,-1.9083969465648856
10.05,0.01904296875,-0.966552734375,0.2734375,0.5572519083969466,2.4580152671755724,-1.2061068702290076
10.06,-0.00048828125,-1.0029296875,0.285400390625,-0.13740458015267176,-0.0916030534351145,-1.3129770992366412
10.07,0.03515625,-0.991455078125,0.283447265625,-1.8244274809160306,0.7251908396946565,-0.9923664122137404
10.08,0.058837890625,-1.01318359375,0.27197265625,-1.381679389312977,-1.9236641221374047,-0.9389312977099237
10.09,0.029541015625,-0.999267578125,0.25732421875,-1.3740458015267176,-1.0534351145038168,-1.3587786259541985
10.1,0.016845703125,-0.98583984375,0.263916015625,-1.5877862595419847,0.22137404580152673,-1.2366412213740459
10.11,0.021240234375,-0.985595703125,0.277099609375,-1.3129770992366412,-0.4732824427480916,-1.0229007633587786
10.12,0.0146484375,-0.990234375,0.269287109375,-0.2366412213740458,0.19083969465648856,-0.9618320610687023
10.13,0.0146484375,-0.990478515625,0.265380859375,0.03816793893129771,0.07633587786259542,-1.0229007633587786
10.14,0.025146484375,-0.98974609375,0.27783203125,-0.6030534351145038,0.6030534351145038,-0.8625954198473282
10.15,0.031494140625,-0.988525390625,0.283935546875,-0.8396946564885496,-0.2366412213740458,-1.0916030534351144
10.16,0.025390625,-0.9873046875,0.28271484375,-0.9312977099236641,0.15267175572519084,-1.366412213740458
10.17,0.029052734375,-0.98681640625,0.274169921875,-1.3435114503816794,-0.2748091603053435,-1.1297709923664123
10.18,0.01904296875,-0.989990234375,0.278564453125,-1.465648854961832,0.2900763358778626,-1.083969465648855
10.19,0.030517578125,-0.992431640625,0.254638671875,-0.7099236641221374,-0.44274809160305345,-1.1603053435114503
10.2,0.0146484375,-0.99853515625,0.284912109375,-0.9007633587786259,0.13740458015267176,-1.2290076335877862
10.21,0.023681640625,-0.99267578125,0.273193359375,-0.8091603053435115,-0.2900763358778626,-1.0534351145038168
10.22,0.03369140625,-0.987060546875,0.27392578125,-1.16793893129771,-1.9389312977099236,-1.0687022900763359
10.23,0.025634765625,-0.99072265625,0.284423828125,-1.0534351145038168,-0.015267175572519083,-1.1984732824427482
10.24,0.026611328125,-0.990478515625,0.269287109375,-1.3206106870229009,-0.04580152671755725,-1.1526717557251909
10.25,0.02197265625,-0.9912109375,0.27001953125,-1.1908396946564885,0.13740458015267176,-0.9847328244274809
10.26,0.021240234375,-0.98876953125,0.267822265625,-0.5190839694656488,-0.13740458015267176,-1.213740458015267
10.27,0.0302734375,-0.994140625,0.26708984375,-0.4961832061068702,0.3511450381679389,-0.9847328244274809
10.28,0.02197265625,-0.986328125,0.266845703125,-0.5725190839694656,-0.1450381679389313,-1.0076335877862594
10.29,0.023193359375,-0.98681640625,0.282470703125,-0.732824427480916,-1.8702290076335877,-0.9923664122137404
10.3,0.025146484375,-0.989013671875,0.282958984375,-0.916030534351145,-0.3511450381679389,-1.1526717557251909
10.31,0.0263671875,-0.983642578125,0.276123046875,-1.4580152671755726,0.11450381679389313,-1.1450381679389312
10.32,0.023193359375,-0.995849609375,0.276611328125,-1.5725190839694656,-0.06870229007633588,-0.9618320610687023
10.33,0.018310546875,-0.992431640625,0.265380859375,-1.1526717557251909,0.13740458015267176,-1.099236641221374
10.34,0.015869140625,-0.990966796875,0.272216796875,-0.9007633587786259,-0.1984732824427481,-1.1145038167938932
10.35,0.0263671875,-0.985595703125,0.274169921875,-1.0,-0.015267175572519083,-1.183206106870229
10.36,0.025634765625,-0.987060546875,0.293212890625,-0.8244274809160306,-0.12213740458015267,-1.0610687022900764
10.37,0.025390625,-0.994140625,0.267822265625,-0.7404580152671756,0.06870229007633588,-1.0229007633587786
10.38,0.01953125,-0.99267578125,0.27783203125,-1.015267175572519,0.1450381679389313,-1.099236641221374
10.39,0.01708984375,-0.99072265625,0.2734375,-0.9312977099236641,0.08396946564885496,-1.0229007633587786
10.4,0.021728515625,-0.990234375,0.276611328125,-0.9007633587786259,0.3053435114503817,-1.015267175572519
10.41,0.019287109375,-0.990234375,0.274169921875,-0.8244274809160306,-0.13740458015267176,-1.1984732824427482
10.42,0.023681640625,-0.98388671875,0.26806640625,-1.0534351145038168,-0.1297709923664122,-0.9923664122137404
10.43,0.029296875,-0.9921875,0.28125,-0.8625954198473282,-0.33587786259541985,-1.183206106870229
10.44,0.0205078125,-0.971923828125,0.27001953125,-0.9465648854961832,0.03816793893129771,-1.1068702290076335
10.45,0.02734375,-0.988037109375,0.276611328125,-0.9083969465648855,-0.06870229007633588,-1.1145038167938932
10.46,0.019287109375,-0.971923828125,0.269287109375,-1.183206106870229,-0.08396946564885496,-1.0381679389312977
10.47,0.021240234375,-0.9970703125,0.279296875,-0.9083969465648855,1.9236641221374047,-0.9770992366412213
10.48,0.02392578125,-0.990234375,0.266357421875,-0.6793893129770993,-0.2366412213740458,-1.2900763358778626
10.49,0.025146484375,-0.9853515625,0.277099609375,-1.3511450381679388,1.9389312977099236,-1.2366412213740459
10.5,0.030029296875,-0.99072265625,0.275146484375,-1.1221374045801527,-0.5343511450381679,-1.2748091603053435
10.51,0.02880859375,-0.97119140625,0.277099609375,-1.1755725190839694,0.4351145038167939,-0.8931297709923665
10.52,0.003662109375,-0.99267578125,0.276611328125,-1.3587786259541985,-0.5954198473282443,-1.4122137404580153
10.53,0.01904296875,-0.970458984375,0.27490234375,-0.48854961832061067,0.37404580152671757,-0.9465648854961832
10.54,0.016357421875,-0.9931640625,0.271484375,-0.7938931297709924,-0.4122137404580153,-1.1984732824427482
10.55,0.01953125,-0.982177734375,0.290771484375,-0.48091603053435117,0.31297709923664124,-1.1908396946564885
10.56,0.01904296875,-0.99267578125,0.2763671875,-0.32061068702290074,0.007633587786259542,-1.1145038167938932
10.57,0.01953125,-0.9892578125,0.2763671875,-0.9770992366412213,-0.022900763358778626,-1.0305343511450382
10.58,0.02490234375,-0.98828125,0.271240234375,-1.4427480916030535,-0.2595419847328244,-1.16793893129771
10.59,0.021728515625,-0.98681640625,0.277587890625,-1.3206106870229009,-0.16793893129770993,-1.3358778625954197
10.6,0.028076171875,-0.9892578125,0.26611328125,-1.381679389312977,-0.16030534351145037,-1.2213740458015268
10.61,0.027587890625,-1.0,0.2734375,-1.213740458015267,-0.10687022900763359,-1.2213740458015268
10.62,0.0263671875,-0.9951171875,0.272705078125,-1.0687022900763359,-0.2748091603053435,-1.2213740458015268
10.63,0.027099609375,-0.9951171875,0.269775390625,-0.8091603053435115,0.007633587786259542,-1.1755725190839694
10.64,0.024658203125,-0.989501953125,0.253662109375,-0.8702290076335878,0.0916030534351145,-1.0381679389312977
10.65,0.0263671875,-0.986572265625,0.27734375,-0.9007633587786259,0.022900763358778626,-0.9694656488549618
10.66,0.024658203125,-0.985595703125,0.2724609375,-0.9083969465648855,-0.13740458015267176,-1.0763358778625953
10.67,0.021484375,-0.992431640625,0.27392578125,-0.9618320610687023,-0.061068702290076333,-1.0458015267175573
10.68,0.026611328125,-0.98974609375,0.266357421875,-0.8244274809160306,0.03816793893129771,-0.9847328244274809
10.69,0.02001953125,-0.9873046875,0.276611328125,-0.7022900763358778,-0.16030534351145037,-1.0687022900763359
10.7,0.0263671875,-0.9873046875,0.271728515625,-0.8625954198473282,0.183206106870229,-1.0916030534351144
10.71,0.02392578125,-0.994140625,0.287353515625,-1.5801526717557253,-0.1450381679389313,-1.0687022900763359
10.72,0.0263671875,-0.991943359375,0.269775390625,-1.7404580152671756,-0.16030534351145037,-1.1526717557251909
10.73,0.02392578125,-0.996826171875,0.268798828125,-1.213740458015267,-0.16793893129770993,-0.9847328244274809
10.74,0.023193359375,-0.990234375,0.2763671875,-0.2366412213740458,-0.22137404580152673,-1.0458015267175573
10.75,0.025634765625,-0.9853515625,0.288818359375,0.1984732824427481,0.22900763358778625,-1.083969465648855
10.76,0.02734375,-0.984375,0.29052734375,0.08396946564885496,0.3969465648854962,-1.1450381679389312
10.77,0.02978515625,-0.97900390625,0.28955078125,-0.9923664122137404,0.3816793893129771,-1.2595419847328244
10.78,0.0263671875,-0.987060546875,0.273193359375,-3.0839694656488548,0.366412213740458,-0.40458015267175573
10.79,-0.001708984375,-1.011962890625,0.258056640625,-4.732824427480916,-1.282442748091603,-0.7404580152671756
10.8,0.0244140625,-0.9736328125,0.257568359375,-2.480916030534351,-0.6183206106870229,-1.1068702290076335
10.81,0.0263671875,-0.984375,0.259033203125,0.7404580152671756,0.8244274809160306,-0.6717557251908397
10.82,-0.001953125,-0.998291015625,0.269287109375,-0.4580152671755725,-1.4427480916030535,-1.4351145038167938
10.83,0.03271484375,-0.98388671875,0.271484375,0.12213740458015267,0.732824427480916,-1.2213740458015268
10.84,0.036376953125,-0.98779296875,0.28564453125,0.11450381679389313,1.786259541984733,-1.0305343511450382
10.85,0.037353515625,-0.986328125,0.276123046875,-0.7938931297709924,0.35877862595419846,-1.0763358778625953
10.86,0.0390625,-0.98095703125,0.281982421875,-1.7328244274809161,0.16030534351145037,-0.916030534351145
10.87,0.012451171875,-0.99658203125,0.27587890625,-1.450381679389313,-0.25190839694656486,-0.8549618320610687
10.88,0.0126953125,-0.986083984375,0.268798828125,-0.3893129770992366,-0.19083969465648856,-1.015267175572519
10.89,0.0068359375,-0.996826171875,0.275390625,-0.5954198473282443,1.9465648854961832,-1.1297709923664123
10.9,0.0224609375,-0.9833984375,0.280029296875,-1.16793893129771,-0.16793893129770993,-1.251908396946565
10.91,0.022216796875,-0.995361328125,0.281005859375,-0.7786259541984732,-0.015267175572519083,-1.1984732824427482
10.92,0.02587890625,-0.984130859375,0.27294921875,-1.6793893129770991,-0.022900763358778626,-1.4122137404580153
10.93,0.033203125,-0.98779296875,0.278564453125,-2.2748091603053435,0.31297709923664124,-1.0687022900763359
10.94,0.01953125,-0.98828125,0.265625,-1.5954198473282444,-0.37404580152671757,-0.9923664122137404
10.95,0.0224609375,-0.9892578125,0.263427734375,-1.2213740458015268,-0.04580152671755725,-1.2671755725190839
10.96,0.0224609375,-0.990234375,0.280029296875,-0.7251908396946565,-0.5114503816793893,-1.1068702290076335
10.97,0.024658203125,-0.989013671875,0.274658203125,-0.21374045801526717,0.04580152671755725,-1.015267175572519
10.98,0.02880859375,-0.99951171875,0.265869140625,-0.26717557251908397,-0.022900763358778626,-1.0229007633587786
10.99,0.030029296875,-0.986083984375,0.285400390625,-0.4198473282442748,0.29770992366412213,-0.9465648854961832
11.0,0.02294921875,-0.993408203125,0.281005859375,-0.9389312977099237,0.3053435114503817,-1.0610687022900764
11.01,0.016357421875,-0.98486328125,0.26806640625,-1.4732824427480915,0.16793893129770993,-1.1297709923664123
11.02,0.017578125,-0.99462890625,0.2705078125,-1.3053435114503817,0.015267175572519083,-1.015267175572519
11.03,0.02783203125,-0.987548828125,0.270263671875,-1.3511450381679388,-0.48091603053435117,-1.2366412213740459
11.04,0.023681640625,-0.990478515625,0.2783203125,-1.5267175572519085,-0.22137404580152673,-0.9389312977099237
11.05,0.00537109375,-0.995361328125,0.285888671875,-1.3893129770992367,-1.0305343511450382,-0.9465648854961832
11.06,0.0400390625,-0.97265625,0.271484375,-0.3893129770992366,0.5267175572519084,-0.9694656488549618
11.07,0.018310546875,-0.995849609375,0.27587890625,-0.9083969465648855,-0.09923664122137404,-0.9465648854961832
11.08,0.017333984375,-0.988525390625,0.265380859375,-1.7251908396946565,0.05343511450381679,-1.3511450381679388
11.09,0.01953125,-0.98681640625,0.275390625,-1.0610687022900764,0.07633587786259542,-1.0687022900763359
11.1,0.021484375,-0.990478515625,0.267333984375,-1.0076335877862594,-0.06870229007633588,-0.9541984732824428
11.11,0.018310546875,-0.991943359375,0.27099609375,-0.9541984732824428,1.9389312977099236,-1.083969465648855
11.12,0.0283203125,-0.981201171875,0.2734375,-0.8702290076335878,-0.1297709923664122,-1.0229007633587786
11.13,0.020751953125,-0.988525390625,0.265625,-0.5267175572519084,-0.25190839694656486,-1.297709923664122
11.14,0.0234375,-0.987548828125,0.27978515625,-0.7251908396946565,0.11450381679389313,-1.16793893129771
11.15,0.020263671875,-0.988525390625,0.29150390625,-1.1374045801526718,0.061068702290076333,-1.2748091603053435
