Time(s),AccX,AccY,AccZ,GyrX,GyrY,GyrZ
0.0,0.071533203125,-1.0048828125,0.08203125,-0.061068702290076333,0.022900763358778626,-1.4274809160305344
0.01,0.072998046875,-0.997314453125,0.080810546875,-0.22900763358778625,-0.09923664122137404,-1.4732824427480915
0.02,0.072998046875,-1.00927734375,0.0908203125,-0.33587786259541985,0.06870229007633588,-1.3969465648854962
0.03,0.06201171875,-0.998046875,0.089599609375,-0.6717557251908397,-0.10687022900763359,-1.297709923664122
0.04,0.077880859375,-1.0068359375,0.076416015625,-0.6412213740458015,-0.15267175572519084,-1.4122137404580153
0.05,0.071533203125,-1.0,0.0849609375,-0.4961832061068702,-0.03816793893129771,-1.2900763358778626
0.06,0.0693359375,-1.00390625,0.08349609375,-0.5419847328244275,0.1450381679389313,-1.381679389312977
0.07,0.066650390625,-1.007568359375,0.08251953125,-0.3816793893129771,-0.05343511450381679,-1.5267175572519085
0.08,0.07373046875,-1.008056640625,0.08349609375,-0.16793893129770993,-0.03816793893129771,-1.1908396946564885
0.09,0.071044921875,-0.987548828125,0.083740234375,-0.19083969465648856,0.04580152671755725,-1.3206106870229009
0.1,0.070068359375,-1.005859375,0.093017578125,-0.3282442748091603,-0.030534351145038167,-1.4351145038167938
0.11,0.0693359375,-1.002197265625,0.07958984375,-0.4122137404580153,0.03816793893129771,-1.3206106870229009
0.12,0.068115234375,-1.00537109375,0.0810546875,-0.7175572519083969,-0.13740458015267176,-1.3129770992366412
0.13,0.06591796875,-0.999267578125,0.079833984375,-0.5801526717557252,-0.09923664122137404,-1.3511450381679388
0.14,0.068115234375,-1.001953125,0.073486328125,-0.48091603053435117,0.19083969465648856,-1.2290076335877862
0.15,0.067626953125,-1.0048828125,0.0771484375,-0.3053435114503817,-0.16030534351145037,-1.2671755725190839
0.16,0.070068359375,-1.010498046875,0.08984375,-0.22137404580152673,-0.16030534351145037,-1.282442748091603
0.17,0.072998046875,-1.009765625,0.0849609375,-0.24427480916030533,-0.03816793893129771,-1.282442748091603
0.18,0.072998046875,-0.997314453125,0.0859375,-0.37404580152671757,0.08396946564885496,-1.213740458015267
0.19,0.068359375,-0.9970703125,0.08642578125,-0.5954198473282443,-0.1297709923664122,-1.3893129770992367
0.2,0.074462890625,-1.006103515625,0.075439453125,-0.5801526717557252,1.900763358778626,-1.450381679389313
0.21,0.069580078125,-1.001953125,0.074462890625,-0.5572519083969466,-0.13740458015267176,-1.2290076335877862
0.22,0.07373046875,-0.997802734375,0.081298828125,-0.5038167938931297,-0.015267175572519083,-1.3893129770992367
0.23,0.06689453125,-0.9912109375,0.0810546875,-0.40458015267175573,-0.17557251908396945,-1.450381679389313
0.24,0.072021484375,-1.00732421875,0.080322265625,-0.19083969465648856,-0.007633587786259542,-1.4961832061068703
0.25,0.072509765625,-0.999755859375,0.08349609375,-0.2595419847328244,0.15267175572519084,-1.2290076335877862
0.26,0.07666015625,-1.00390625,0.063720703125,-0.48091603053435117,0.2366412213740458,-1.3282442748091603
0.27,0.0751953125,-1.006591796875,0.082275390625,-0.48091603053435117,-0.16793893129770993,-1.4580152671755726
0.28,0.069091796875,-0.99755859375,0.080810546875,-0.7099236641221374,-0.10687022900763359,-1.4427480916030535
0.29,0.076171875,-1.00634765625,0.07763671875,-0.366412213740458,-0.1984732824427481,-1.381679389312977
0.3,0.072265625,-1.001708984375,0.07763671875,-0.26717557251908397,-0.183206106870229,-1.4045801526717556
0.31,0.0712890625,-1.002197265625,0.0849609375,-0.5114503816793893,-0.022900763358778626,-1.3893129770992367
0.32,0.06982421875,-1.015625,0.082275390625,-0.3893129770992366,0.015267175572519083,-1.3740458015267176
0.33,0.072021484375,-1.007568359375,0.078857421875,-0.3053435114503817,-0.05343511450381679,-1.450381679389313
0.34,0.070068359375,-1.00341796875,0.083740234375,-0.3969465648854962,-0.05343511450381679,-1.1984732824427482
0.35,0.0703125,-1.0048828125,0.073974609375,-0.3893129770992366,0.1984732824427481,-1.3358778625954197
0.36,0.06787109375,-1.00390625,0.0830078125,-0.6793893129770993,0.1984732824427481,-1.4045801526717556
0.37,0.07470703125,-1.0048828125,0.08544921875,-0.40458015267175573,-0.22137404580152673,-1.2061068702290076
0.38,0.07177734375,-0.98486328125,0.0791015625,-0.5419847328244275,-0.24427480916030533,-1.2900763358778626
0.39,0.0693359375,-1.01025390625,0.0634765625,-0.6030534351145038,1.8473282442748091,-1.3053435114503817
0.4,0.06884765625,-1.001708984375,0.0830078125,-0.48091603053435117,-0.16030534351145037,-1.5267175572519085
0.41,0.071533203125,-0.998291015625,0.080810546875,-0.3816793893129771,0.015267175572519083,-1.3358778625954197
0.42,0.073974609375,-1.003173828125,0.08447265625,-0.3816793893129771,-0.061068702290076333,-1.4122137404580153
0.43,0.069091796875,-1.00341796875,0.078857421875,-0.29770992366412213,0.10687022900763359,-1.4732824427480915
0.44,0.072021484375,-0.99755859375,0.0771484375,-0.46564885496183206,-0.0916030534351145,-1.4045801526717556
0.45,0.07470703125,-1.004150390625,0.07861328125,-0.4732824427480916,-0.33587786259541985,-1.2213740458015268
0.46,0.0712890625,-1.01171875,0.079833984375,-0.3282442748091603,-0.15267175572519084,-1.213740458015267
0.47,0.072265625,-0.989501953125,0.079345703125,-0.6564885496183206,-0.0916030534351145,-1.3282442748091603
0.48,0.070068359375,-1.01171875,0.082763671875,0.1297709923664122,-0.12213740458015267,-1.3282442748091603
0.49,0.0654296875,-0.998779296875,0.078125,-0.20610687022900764,1.9465648854961832,-1.5725190839694656
0.5,0.069580078125,-1.005859375,0.078369140625,-0.6030534351145038,0.07633587786259542,-1.3206106870229009
0.51,0.06689453125,-0.99658203125,0.085693359375,-1.015267175572519,0.09923664122137404,-1.3282442748091603
0.52,0.073486328125,-1.0029296875,0.077880859375,-0.6564885496183206,-0.08396946564885496,-1.2900763358778626
0.53,0.0703125,-1.015625,0.0791015625,-0.40458015267175573,-0.08396946564885496,-1.4732824427480915
0.54,0.07421875,-1.0107421875,0.063232421875,0.10687022900763359,0.030534351145038167,-1.3587786259541985
0.55,0.073974609375,-1.00244140625,0.070556640625,1.9312977099236641,-1.8778625954198473,-1.3053435114503817
0.56,0.0732421875,-1.00390625,0.08837890625,-0.31297709923664124,0.03816793893129771,-1.297709923664122
0.57,0.06884765625,-0.99609375,0.080810546875,-0.8702290076335878,-0.19083969465648856,-1.3435114503816794
0.58,0.072509765625,-1.003662109375,0.074951171875,-0.916030534351145,-1.9465648854961832,-1.3511450381679388
0.59,0.0654296875,-0.99853515625,0.076416015625,-0.48091603053435117,-0.030534351145038167,-1.3740458015267176
0.6,0.07080078125,-1.000244140625,0.073974609375,-0.20610687022900764,1.9312977099236641,-1.282442748091603
0.61,0.065185546875,-1.001220703125,0.08935546875,0.11450381679389313,-0.10687022900763359,-1.4045801526717556
0.62,0.076904296875,-1.0087890625,0.1064453125,-0.10687022900763359,-0.13740458015267176,-1.465648854961832
0.63,0.07275390625,-1.006591796875,0.0927734375,-0.4198473282442748,-0.0916030534351145,-1.3587786259541985
0.64,0.07275390625,-1.000732421875,0.081787109375,-0.7251908396946565,-0.16030534351145037,-1.3435114503816794
0.65,0.072509765625,-1.00146484375,0.084228515625,-0.8091603053435115,0.15267175572519084,-1.465648854961832
0.66,0.07763671875,-0.99951171875,0.071044921875,-0.8549618320610687,-0.11450381679389313,-1.4198473282442747
0.67,0.066650390625,-1.0078125,0.077880859375,-0.31297709923664124,-0.31297709923664124,-1.2061068702290076
0.68,0.0654296875,-1.00244140625,0.078369140625,-0.1297709923664122,0.05343511450381679,-1.465648854961832
0.69,0.072509765625,-1.01416015625,0.081787109375,0.10687022900763359,-0.04580152671755725,-1.2671755725190839
0.7,0.06884765625,-1.000732421875,0.0859375,-0.1297709923664122,1.9236641221374047,-1.4198473282442747
0.71,0.07763671875,-1.000732421875,0.067138671875,-0.5419847328244275,0.12213740458015267,-1.381679389312977
0.72,0.068603515625,-0.994140625,0.07958984375,-0.816793893129771,-0.015267175572519083,-1.366412213740458
0.73,0.06982421875,-1.004638671875,0.075927734375,-0.7862595419847328,-0.17557251908396945,-1.3587786259541985
0.74,0.071533203125,-1.005859375,0.071044921875,-0.25190839694656486,-0.061068702290076333,-1.5801526717557253
0.75,0.068359375,-1.00634765625,0.0810546875,-0.03816793893129771,-0.1450381679389313,-1.3282442748091603
0.76,0.072998046875,-1.00390625,0.081298828125,0.1450381679389313,0.030534351145038167,-1.366412213740458
0.77,0.068603515625,-1.003173828125,0.08203125,-0.061068702290076333,0.0,-1.4198473282442747
0.78,0.063720703125,-1.015625,0.08642578125,-0.549618320610687,0.09923664122137404,-1.381679389312977
0.79,0.068359375,-1.004638671875,0.08447265625,-0.7633587786259542,-0.07633587786259542,-1.3053435114503817
0.8,0.075927734375,-1.000244140625,0.091552734375,-0.7633587786259542,-0.06870229007633588,-1.4274809160305344
0.81,0.074462890625,-1.0,0.076171875,-0.5801526717557252,-0.030534351145038167,-1.4351145038167938
0.82,0.07177734375,-1.00830078125,0.076416015625,-0.08396946564885496,-0.09923664122137404,-1.4198473282442747
0.83,0.0712890625,-0.984619140625,0.0771484375,1.9083969465648856,1.916030534351145,-1.366412213740458
0.84,0.0751953125,-1.01318359375,0.081298828125,-0.2595419847328244,-0.21374045801526717,-1.4045801526717556
0.85,0.06298828125,-1.008544921875,0.0654296875,-0.42748091603053434,0.05343511450381679,-1.1908396946564885
0.86,0.07763671875,-1.00244140625,0.083740234375,-0.732824427480916,-0.11450381679389313,-1.465648854961832
0.87,0.070068359375,-1.006103515625,0.0849609375,-0.6335877862595419,-0.06870229007633588,-1.450381679389313
0.88,0.063720703125,-1.0029296875,0.07861328125,-0.5877862595419847,0.1984732824427481,-1.3053435114503817
0.89,0.06396484375,-1.001953125,0.08642578125,-0.3893129770992366,-0.06870229007633588,-1.366412213740458
0.9,0.074462890625,-1.0029296875,0.077392578125,-0.20610687022900764,0.007633587786259542,-1.4351145038167938
0.91,0.072265625,-1.001953125,0.07763671875,-0.030534351145038167,-0.16793893129770993,-1.3511450381679388
0.92,0.07421875,-1.00927734375,0.0927734375,-0.35877862595419846,-0.1450381679389313,-1.2671755725190839
0.93,0.07080078125,-1.01513671875,0.0810546875,-0.7786259541984732,0.03816793893129771,-1.4122137404580153
0.94,0.0625,-1.001708984375,0.064697265625,-0.5725190839694656,0.015267175572519083,-1.3893129770992367
0.95,0.072509765625,-1.000732421875,0.075439453125,-0.5114503816793893,-0.007633587786259542,-1.4427480916030535
0.96,0.070556640625,-1.00244140625,0.082275390625,-0.5725190839694656,-0.183206106870229,-1.5114503816793894
0.97,0.07470703125,-1.01025390625,0.078369140625,-0.4961832061068702,-0.0916030534351145,-1.3129770992366412
0.98,0.074462890625,-1.00634765625,0.072998046875,-0.0916030534351145,-0.06870229007633588,-1.282442748091603
0.99,0.06787109375,-1.001953125,0.08447265625,-0.04580152671755725,0.05343511450381679,-1.366412213740458
1.0,0.073486328125,-1.00390625,0.083984375,-0.24427480916030533,-0.22137404580152673,-1.4427480916030535
1.01,0.067626953125,-1.00634765625,0.0810546875,-0.6335877862595419,-0.030534351145038167,-1.3358778625954197
1.02,0.072265625,-0.9990234375,0.08349609375,-0.6259541984732825,1.9389312977099236,-1.450381679389313
1.03,0.067626953125,-1.004638671875,0.0771484375,-0.7175572519083969,-0.10687022900763359,-1.2442748091603053
1.04,0.069091796875,-0.999267578125,0.08251953125,-0.44274809160305345,0.09923664122137404,-1.3969465648854962
1.05,0.06396484375,-1.005126953125,0.076416015625,-0.15267175572519084,-0.09923664122137404,-1.4427480916030535
1.06,0.075927734375,-1.004638671875,0.08056640625,-1.8702290076335877,0.03816793893129771,-1.4122137404580153
1.07,0.073974609375,-0.998291015625,0.07861328125,-0.366412213740458,-0.16030534351145037,-1.4122137404580153
1.08,0.075927734375,-1.00244140625,0.087158203125,-0.6183206106870229,0.1297709923664122,-1.465648854961832
1.09,0.071044921875,-1.002197265625,0.063232421875,-0.7557251908396947,-0.07633587786259542,-1.450381679389313
1.1,0.066162109375,-1.001708984375,0.0888671875,-0.7480916030534351,-0.09923664122137404,-1.1450381679389312
1.11,0.070068359375,-0.995849609375,0.074951171875,-0.3282442748091603,-0.15267175572519084,-1.3358778625954197
1.12,0.06298828125,-1.00927734375,0.07763671875,-0.31297709923664124,-0.07633587786259542,-1.3053435114503817
1.13,0.066650390625,-1.007080078125,0.07861328125,-0.4580152671755725,0.07633587786259542,-1.3435114503816794
1.14,0.073974609375,-1.002197265625,0.076171875,-0.42748091603053434,-0.17557251908396945,-1.3358778625954197
1.15,0.0703125,-1.0068359375,0.081787109375,-0.7022900763358778,0.007633587786259542,-1.3587786259541985
1.16,0.07080078125,-1.00439453125,0.078369140625,-0.6870229007633588,-0.08396946564885496,-1.2442748091603053
1.17,0.0791015625,-1.0029296875,0.093505859375,-0.5725190839694656,-0.09923664122137404,-1.5725190839694656
1.18,0.070068359375,-1.002685546875,0.0791015625,-0.48854961832061067,-0.03816793893129771,-1.297709923664122
1.19,0.0712890625,-1.006591796875,0.079345703125,-0.3511450381679389,-0.03816793893129771,-1.3740458015267176
1.2,0.071044921875,-1.00830078125,0.081787109375,-0.3893129770992366,-0.12213740458015267,-1.251908396946565
1.21,0.075439453125,-1.015380859375,0.08251953125,-0.32061068702290074,0.030534351145038167,-1.3435114503816794
1.22,0.075927734375,-1.008056640625,0.07861328125,-0.48854961832061067,-0.061068702290076333,-1.3435114503816794
1.23,0.070068359375,-1.0068359375,0.065673828125,-0.366412213740458,-0.183206106870229,-1.381679389312977
1.24,0.07861328125,-1.001708984375,0.091796875,-0.33587786259541985,-0.20610687022900764,-1.3969465648854962
1.25,0.06396484375,-1.001708984375,0.088134765625,-0.12213740458015267,-0.17557251908396945,-1.2671755725190839
1.26,0.06689453125,-1.0048828125,0.084228515625,-0.44274809160305345,-0.04580152671755725,-1.4351145038167938
1.27,0.071044921875,-1.01123046875,0.081787109375,-0.5267175572519084,-0.11450381679389313,-1.5190839694656488
1.28,0.070556640625,-0.999267578125,0.07666015625,-0.4580152671755725,-0.015267175572519083,-1.4045801526717556
1.29,0.072998046875,-1.00341796875,0.078369140625,-0.6335877862595419,-0.24427480916030533,-1.2671755725190839
1.3,0.070556640625,-0.998779296875,0.0625,-0.48091603053435117,1.9236641221374047,-1.3129770992366412
1.31,0.070068359375,-1.007568359375,0.0927734375,-0.5267175572519084,0.061068702290076333,-1.3893129770992367
1.32,0.068115234375,-1.00244140625,0.082763671875,-0.0916030534351145,-0.1297709923664122,-1.213740458015267
1.33,0.080322265625,-1.0078125,0.08544921875,-0.16793893129770993,-0.183206106870229,-1.4351145038167938
1.34,0.07373046875,-1.00439453125,0.08447265625,-0.2366412213740458,-0.17557251908396945,-1.2442748091603053
1.35,0.06640625,-1.009521484375,0.08154296875,-0.20610687022900764,-0.06870229007633588,-1.2595419847328244
1.36,0.0693359375,-1.00244140625,0.093994140625,-0.3969465648854962,-1.916030534351145,-1.4580152671755726
1.37,0.075439453125,-0.98876953125,0.0849609375,-0.6183206106870229,-0.0916030534351145,-1.2671755725190839
1.38,0.063720703125,-1.009765625,0.06298828125,-0.44274809160305345,-0.007633587786259542,-1.4122137404580153
1.39,0.075439453125,-1.00927734375,0.082763671875,-0.5572519083969466,-0.09923664122137404,-1.3893129770992367
1.4,0.07177734375,-1.00439453125,0.082275390625,-0.3969465648854962,-0.04580152671755725,-1.282442748091603
1.41,0.068603515625,-1.00244140625,0.078369140625,-0.1450381679389313,0.022900763358778626,-1.4122137404580153
1.42,0.06640625,-1.002197265625,0.075439453125,-0.05343511450381679,-0.07633587786259542,-1.450381679389313
1.43,0.075927734375,-0.998779296875,0.08203125,-0.29770992366412213,-0.061068702290076333,-1.2748091603053435
1.44,0.071044921875,-1.00048828125,0.077880859375,-0.5038167938931297,-0.030534351145038167,-1.5190839694656488
1.45,0.071044921875,-1.0087890625,0.063720703125,-0.5801526717557252,0.1984732824427481,-1.5419847328244274
1.46,0.0693359375,-0.986572265625,0.076416015625,-0.9694656488549618,0.022900763358778626,-1.2442748091603053
1.47,0.07080078125,-1.003662109375,0.09326171875,-0.4732824427480916,-1.8396946564885497,-1.465648854961832
1.48,0.076171875,-1.005615234375,0.076904296875,-0.5114503816793893,-1.8854961832061068,-1.3511450381679388
1.49,0.07080078125,-1.0068359375,0.080810546875,-0.13740458015267176,-0.015267175572519083,-1.4274809160305344
1.5,0.0703125,-0.998046875,0.08203125,-0.2595419847328244,-0.12213740458015267,-1.282442748091603
1.51,0.068359375,-1.008544921875,0.076904296875,-0.25190839694656486,-0.06870229007633588,-1.3282442748091603
1.52,0.07080078125,-0.988525390625,0.076904296875,-0.37404580152671757,0.1450381679389313,-1.3587786259541985
1.53,0.07373046875,-0.99853515625,0.087890625,-0.6717557251908397,0.1450381679389313,-1.3435114503816794
1.54,0.073974609375,-1.005859375,0.079345703125,-0.7862595419847328,-0.29770992366412213,-1.3435114503816794
1.55,0.072509765625,-1.010009765625,0.063720703125,-0.7633587786259542,-1.900763358778626,-1.3282442748091603
1.56,0.070068359375,-1.001220703125,0.07763671875,-0.3969465648854962,0.07633587786259542,-1.3893129770992367
1.57,0.0693359375,-0.998779296875,0.09228515625,-0.16793893129770993,-0.15267175572519084,-1.2748091603053435
1.58,0.0732421875,-1.001220703125,0.08544921875,-1.9236641221374047,-0.11450381679389313,-1.4274809160305344
1.59,0.072509765625,-1.002197265625,0.08544921875,-0.0916030534351145,-0.13740458015267176,-1.1755725190839694
1.6,0.0673828125,-1.00439453125,0.08447265625,-0.19083969465648856,-1.9541984732824427,-1.4427480916030535
1.61,0.071044921875,-1.000732421875,0.084716796875,-0.5954198473282443,0.07633587786259542,-1.4198473282442747
1.62,0.070068359375,-1.0048828125,0.081787109375,-0.9541984732824428,-0.16030534351145037,-1.251908396946565
1.63,0.069091796875,-1.007568359375,0.0791015625,-0.6870229007633588,-1.9541984732824427,-1.366412213740458
1.64,0.068359375,-1.003173828125,0.0751953125,-0.3969465648854962,-0.16030534351145037,-1.4427480916030535
1.65,0.072021484375,-0.99853515625,0.0908203125,-0.19083969465648856,-0.12213740458015267,-1.3511450381679388
1.66,0.067138671875,-1.0029296875,0.082763671875,-0.19083969465648856,-0.030534351145038167,-1.4580152671755726
1.67,0.0693359375,-1.007080078125,0.079345703125,-0.33587786259541985,-0.16793893129770993,-1.3435114503816794
1.68,0.0703125,-1.002685546875,0.08203125,-0.7862595419847328,-0.06870229007633588,-1.3969465648854962
1.69,0.069091796875,-1.001708984375,0.080810546875,-0.5114503816793893,0.030534351145038167,-1.3587786259541985
1.7,0.068359375,-1.000732421875,0.0771484375,-0.6106870229007634,-0.2748091603053435,-1.450381679389313
1.71,0.07080078125,-0.997314453125,0.077880859375,-0.022900763358778626,0.0,-1.3511450381679388
1.72,0.06884765625,-1.0068359375,0.08251953125,-0.3053435114503817,0.08396946564885496,-1.534351145038168
1.73,0.073974609375,-1.006103515625,0.082763671875,-0.3969465648854962,0.03816793893129771,-1.2748091603053435
1.74,0.07177734375,-1.0078125,0.076171875,-0.46564885496183206,-0.16793893129770993,-1.3893129770992367
1.75,0.073974609375,-1.001220703125,0.081298828125,-0.4351145038167939,-0.15267175572519084,-1.3511450381679388
1.76,0.07373046875,-1.006591796875,0.085205078125,-0.45038167938931295,1.9465648854961832,-1.3053435114503817
1.77,0.072265625,-1.0068359375,0.076904296875,-0.6870229007633588,0.08396946564885496,-1.366412213740458
1.78,0.0703125,-0.999267578125,0.084716796875,-0.5419847328244275,-0.030534351145038167,-1.3587786259541985
1.79,0.066650390625,-1.008056640625,0.07470703125,-0.12213740458015267,0.04580152671755725,-1.2595419847328244
1.8,0.072509765625,-0.99462890625,0.08349609375,-0.3816793893129771,0.10687022900763359,-1.282442748091603
1.81,0.072509765625,-1.007080078125,0.0888671875,-0.2595419847328244,-0.24427480916030533,-1.366412213740458
1.82,0.07080078125,-0.9912109375,0.08642578125,-0.6717557251908397,0.08396946564885496,-1.4732824427480915
1.83,0.06494140625,-1.001708984375,0.08056640625,-0.5343511450381679,-0.2595419847328244,-1.251908396946565
1.84,0.0712890625,-1.000732421875,0.076171875,-0.5877862595419847,-0.2366412213740458,-1.3358778625954197
1.85,0.071533203125,-1.005859375,0.0927734375,-0.48091603053435117,0.17557251908396945,-1.3893129770992367
1.86,0.0654296875,-1.000244140625,0.07666015625,-0.2595419847328244,-0.06870229007633588,-1.534351145038168
1.87,0.067626953125,-1.006103515625,0.075927734375,0.0,-0.1450381679389313,-1.3358778625954197
1.88,0.07275390625,-1.001220703125,0.081298828125,-0.2748091603053435,0.007633587786259542,-1.3129770992366412
1.89,0.0732421875,-1.001220703125,0.081298828125,-0.5343511450381679,-0.0916030534351145,-1.4198473282442747
1.9,0.0712890625,-1.001220703125,0.08203125,-0.8778625954198473,-1.9465648854961832,-1.1297709923664123
1.91,0.0712890625,-1.004150390625,0.081787109375,-0.7633587786259542,-0.11450381679389313,-1.2213740458015268
1.92,0.07177734375,-1.003173828125,0.081298828125,-0.5038167938931297,-0.16030534351145037,-1.450381679389313
1.93,0.064453125,-1.00244140625,0.086181640625,-0.46564885496183206,-1.9389312977099236,-1.3740458015267176
1.94,0.074951171875,-1.00048828125,0.085693359375,-0.1984732824427481,-0.030534351145038167,-1.4122137404580153
1.95,0.072509765625,-1.00341796875,0.076416015625,-1.9541984732824427,0.21374045801526717,-1.450381679389313
1.96,0.0751953125,-1.00146484375,0.087646484375,-0.3282442748091603,-0.15267175572519084,-1.5419847328244274
1.97,0.06982421875,-1.009521484375,0.081298828125,-0.2900763358778626,-0.05343511450381679,-1.4198473282442747
1.98,0.071533203125,-1.00634765625,0.08203125,-0.5725190839694656,-0.13740458015267176,-1.2595419847328244
1.99,0.069091796875,-1.003662109375,0.06689453125,-0.8549618320610687,-1.9389312977099236,-1.3206106870229009
2.0,0.0751953125,-1.007080078125,0.077880859375,-0.5954198473282443,1.9312977099236641,-1.3893129770992367
2.01,0.069580078125,-0.999755859375,0.080810546875,-0.40458015267175573,0.06870229007633588,-1.4045801526717556
2.02,0.066162109375,-1.00927734375,0.081298828125,-0.04580152671755725,-0.05343511450381679,-1.3893129770992367
2.03,0.07421875,-0.999267578125,0.086181640625,-0.17557251908396945,0.04580152671755725,-1.3893129770992367
2.04,0.07373046875,-1.001953125,0.080322265625,-0.22900763358778625,1.916030534351145,-1.2900763358778626
2.05,0.0673828125,-1.013916015625,0.082763671875,-0.5572519083969466,-0.13740458015267176,-1.450381679389313
2.06,0.0693359375,-1.005859375,0.08203125,-0.5801526717557252,-0.0916030534351145,-1.4427480916030535
2.07,0.076416015625,-1.0068359375,0.0830078125,-0.732824427480916,-0.022900763358778626,-1.3053435114503817
2.08,0.06884765625,-1.000244140625,0.078125,-0.5954198473282443,0.183206106870229,-1.3282442748091603
2.09,0.075927734375,-1.00341796875,0.0732421875,-0.3816793893129771,0.007633587786259542,-1.465648854961832
2.1,0.07177734375,-1.0087890625,0.082763671875,-0.32061068702290074,-0.06870229007633588,-1.5114503816793894
2.11,0.066162109375,-1.001708984375,0.079833984375,-0.2824427480916031,-0.09923664122137404,-1.5954198473282444
2.12,0.062744140625,-1.005615234375,0.082275390625,-0.25190839694656486,-0.04580152671755725,-1.297709923664122
2.13,0.0693359375,-1.014892578125,0.087890625,-0.3893129770992366,-0.10687022900763359,-1.3893129770992367
2.14,0.071044921875,-1.002197265625,0.0927734375,-0.4961832061068702,-0.04580152671755725,-1.2061068702290076
2.15,0.07373046875,-0.999755859375,0.0771484375,-0.7404580152671756,1.916030534351145,-1.3282442748091603
2.16,0.073486328125,-1.001708984375,0.092041015625,-0.3969465648854962,-0.11450381679389313,-1.3511450381679388
2.17,0.07177734375,-1.005859375,0.075439453125,-0.3435114503816794,-0.2748091603053435,-1.3587786259541985
2.18,0.071044921875,-1.00244140625,0.0712890625,-0.5648854961832062,0.15267175572519084,-1.366412213740458
2.19,0.086181640625,-1.014404296875,0.082275390625,-0.5343511450381679,-0.183206106870229,-1.3969465648854962
2.2,0.0712890625,-0.987548828125,0.075439453125,-0.3969465648854962,0.061068702290076333,-1.4351145038167938
2.21,0.0693359375,-0.9873046875,0.090576171875,-0.3893129770992366,0.16030534351145037,-1.3053435114503817
2.22,0.065185546875,-1.001953125,0.09033203125,-0.3969465648854962,-0.05343511450381679,-1.3435114503816794
2.23,0.069580078125,-1.0087890625,0.08447265625,-0.48091603053435117,-0.030534351145038167,-1.3893129770992367
2.24,0.074951171875,-1.003173828125,0.083251953125,-0.5877862595419847,0.1297709923664122,-1.5419847328244274
2.25,0.069580078125,-1.0029296875,0.086669921875,-0.29770992366412213,0.16793893129770993,-1.3587786259541985
2.26,0.074462890625,-1.007568359375,0.072021484375,-0.35877862595419846,-0.12213740458015267,-1.2442748091603053
2.27,0.068603515625,-1.00439453125,0.083984375,-0.37404580152671757,-0.1297709923664122,-1.2366412213740459
2.28,0.066162109375,-1.002197265625,0.085205078125,-0.5343511450381679,-0.03816793893129771,-1.297709923664122
2.29,0.0693359375,-1.007080078125,0.0927734375,-0.5572519083969466,0.007633587786259542,-1.465648854961832
2.3,0.074951171875,-0.999755859375,0.075927734375,-0.3053435114503817,-0.11450381679389313,-1.3587786259541985
2.31,0.07421875,-1.01123046875,0.077880859375,-0.3969465648854962,-0.12213740458015267,-1.297709923664122
2.32,0.071044921875,-1.004150390625,0.088623046875,-0.26717557251908397,-0.030534351145038167,-1.3969465648854962
2.33,0.069091796875,-1.00390625,0.09228515625,-0.48091603053435117,-0.11450381679389313,-1.4580152671755726
2.34,0.0712890625,-1.0068359375,0.08154296875,-0.7633587786259542,-1.916030534351145,-1.251908396946565
2.35,0.0751953125,-1.010498046875,0.088134765625,-0.4961832061068702,0.015267175572519083,-1.4122137404580153
2.36,0.0703125,-1.001708984375,0.06689453125,-0.48854961832061067,-0.22900763358778625,-1.3893129770992367
2.37,0.069580078125,-1.00048828125,0.093505859375,-0.45038167938931295,0.09923664122137404,-1.213740458015267
2.38,0.069091796875,-1.002197265625,0.08154296875,-0.13740458015267176,-0.1984732824427481,-1.465648854961832
2.39,0.0693359375,-1.005859375,0.07861328125,-0.32061068702290074,1.9465648854961832,-1.3358778625954197
2.4,0.070068359375,-1.002197265625,0.076416015625,-0.3893129770992366,-0.11450381679389313,-1.2595419847328244
2.41,0.066650390625,-1.007080078125,0.08935546875,-0.37404580152671757,1.900763358778626,-1.4045801526717556
2.42,0.075439453125,-1.01025390625,0.085205078125,-0.6259541984732825,0.07633587786259542,-1.4122137404580153
2.43,0.069091796875,-1.005859375,0.079833984375,-0.6030534351145038,0.022900763358778626,-1.5572519083969465
2.44,0.076171875,-1.00244140625,0.07763671875,-0.6793893129770993,0.10687022900763359,-1.3129770992366412
2.45,0.0712890625,-1.0068359375,0.086181640625,-0.366412213740458,-0.12213740458015267,-1.2671755725190839
2.46,0.074462890625,-1.00048828125,0.079833984375,-0.2595419847328244,-1.916030534351145,-1.4961832061068703
2.47,0.068359375,-1.0029296875,0.084716796875,-0.19083969465648856,-1.9541984732824427,-1.2900763358778626
2.48,0.07275390625,-1.005126953125,0.07470703125,-0.21374045801526717,-0.183206106870229,-1.3435114503816794
2.49,0.070556640625,-1.003173828125,0.0791015625,-0.2748091603053435,-0.19083969465648856,-1.4351145038167938
2.5,0.07275390625,-0.99951171875,0.085693359375,-0.6412213740458015,1.9465648854961832,-1.2061068702290076
2.51,0.07666015625,-1.00439453125,0.08349609375,-0.48091603053435117,-0.06870229007633588,-1.5954198473282444
2.52,0.072021484375,-0.99755859375,0.07861328125,-0.6259541984732825,-0.03816793893129771,-1.381679389312977
2.53,0.06787109375,-1.004638671875,0.087158203125,-0.6259541984732825,-0.07633587786259542,-1.4351145038167938
2.54,0.071044921875,-1.005859375,0.079833984375,-0.5877862595419847,-0.05343511450381679,-1.3893129770992367
2.55,0.06982421875,-1.004638671875,0.07861328125,-0.4351145038167939,-1.9389312977099236,-1.282442748091603
2.56,0.07275390625,-0.986328125,0.093505859375,-0.4961832061068702,0.030534351145038167,-1.4427480916030535
2.57,0.062744140625,-1.0078125,0.0830078125,-0.3816793893129771,-1.900763358778626,-1.297709923664122
2.58,0.0673828125,-1.001708984375,0.082275390625,-0.3969465648854962,0.015267175572519083,-1.3129770992366412
2.59,0.07177734375,-1.001953125,0.093017578125,-0.5038167938931297,-0.2366412213740458,-1.366412213740458
2.6,0.07470703125,-1.001220703125,0.085693359375,-0.2748091603053435,-1.9541984732824427,-1.3435114503816794
2.61,0.0703125,-1.008544921875,0.085693359375,-0.48854961832061067,1.8931297709923665,-1.4045801526717556
2.62,0.071533203125,-1.00146484375,0.07861328125,-0.24427480916030533,0.12213740458015267,-1.3435114503816794
2.63,0.069091796875,-1.003173828125,0.087890625,-0.1297709923664122,-1.9389312977099236,-1.3893129770992367
2.64,0.0703125,-1.002197265625,0.082763671875,-0.4351145038167939,-0.10687022900763359,-1.3969465648854962
2.65,0.068603515625,-0.988525390625,0.077392578125,-0.6946564885496184,0.061068702290076333,-1.4274809160305344
2.66,0.070068359375,-1.001220703125,0.06494140625,-0.5419847328244275,-0.22137404580152673,-1.4732824427480915
2.67,0.0771484375,-1.004150390625,0.072998046875,-0.5114503816793893,-1.9236641221374047,-1.381679389312977
2.68,0.06494140625,-1.005126953125,0.07568359375,-0.2824427480916031,-0.15267175572519084,-1.4961832061068703
2.69,0.071044921875,-1.004638671875,0.080078125,-0.2595419847328244,0.07633587786259542,-1.4274809160305344
2.7,0.0634765625,-1.001220703125,0.076904296875,-0.2366412213740458,-0.12213740458015267,-1.3358778625954197
2.71,0.06298828125,-1.003173828125,0.08251953125,-0.3969465648854962,-0.0916030534351145,-1.5267175572519085
2.72,0.070068359375,-1.000732421875,0.08544921875,-0.6030534351145038,-0.16030534351145037,-1.5038167938931297
2.73,0.0732421875,-1.015625,0.091064453125,-0.6183206106870229,-0.09923664122137404,-1.3587786259541985
2.74,0.07568359375,-1.00390625,0.080078125,-0.4122137404580153,0.08396946564885496,-1.450381679389313
2.75,0.06787109375,-1.000732421875,0.083251953125,-0.3053435114503817,-0.030534351145038167,-1.3053435114503817
2.76,0.072509765625,-1.00244140625,0.080322265625,-0.4198473282442748,-0.06870229007633588,-1.3969465648854962
2.77,0.075927734375,-1.006103515625,0.08251953125,-0.366412213740458,0.09923664122137404,-1.3969465648854962
2.78,0.06494140625,-1.00341796875,0.084716796875,-0.40458015267175573,0.06870229007633588,-1.4351145038167938
2.79,0.072265625,-1.00732421875,0.08154296875,-0.5954198473282443,-0.19083969465648856,-1.3053435114503817
2.8,0.07373046875,-1.00146484375,0.0771484375,-0.5038167938931297,0.08396946564885496,-1.3587786259541985
2.81,0.07373046875,-1.001953125,0.080322265625,-0.7251908396946565,-0.2595419847328244,-1.4580152671755726
2.82,0.067138671875,-1.00244140625,0.08447265625,-0.6641221374045801,-0.061068702290076333,-1.4961832061068703
2.83,0.073974609375,-1.00146484375,0.0869140625,-0.5725190839694656,-0.2366412213740458,-1.3511450381679388
2.84,0.069091796875,-1.00244140625,0.076904296875,-0.366412213740458,-0.0916030534351145,-1.4885496183206106
2.85,0.072021484375,-1.008544921875,0.082275390625,-0.35877862595419846,0.11450381679389313,-1.5114503816793894
2.86,0.0771484375,-1.001708984375,0.087158203125,-0.37404580152671757,0.03816793893129771,-1.4580152671755726
2.87,0.071044921875,-1.001953125,0.0849609375,-0.5038167938931297,0.061068702290076333,-1.2748091603053435
2.88,0.064453125,-1.005126953125,0.083984375,-0.31297709923664124,-0.16030534351145037,-1.4198473282442747
2.89,0.0703125,-0.988525390625,0.080322265625,-0.3816793893129771,-0.17557251908396945,-1.4961832061068703
2.9,0.072265625,-1.00927734375,0.07861328125,-0.7251908396946565,0.13740458015267176,-1.4045801526717556
2.91,0.06884765625,-0.99853515625,0.0751953125,-0.5343511450381679,-0.1297709923664122,-1.3511450381679388
2.92,0.074462890625,-1.00390625,0.080810546875,-0.24427480916030533,0.10687022900763359,-1.3053435114503817
2.93,0.072998046875,-1.0,0.0751953125,-0.20610687022900764,0.007633587786259542,-1.4351145038167938
2.94,0.086181640625,-1.0068359375,0.07861328125,-0.5725190839694656,-0.1450381679389313,-1.5648854961832062
2.95,0.071044921875,-0.996337890625,0.077880859375,-0.40458015267175573,-0.24427480916030533,-1.2442748091603053
2.96,0.06787109375,-1.00439453125,0.083251953125,-0.46564885496183206,-0.1297709923664122,-1.3206106870229009
2.97,0.073974609375,-1.00439453125,0.080322265625,-0.8931297709923665,0.1297709923664122,-1.3435114503816794
2.98,0.0693359375,-0.998779296875,0.083740234375,-0.5343511450381679,-1.8549618320610688,-1.4351145038167938
2.99,0.0771484375,-1.004638671875,0.08251953125,-0.42748091603053434,-0.10687022900763359,-1.465648854961832
3.0,0.070068359375,-1.0068359375,0.071533203125,-0.16793893129770993,0.061068702290076333,-1.5648854961832062
3.01,0.068359375,-1.000732421875,0.087158203125,-0.3053435114503817,1.9312977099236641,-1.282442748091603
3.02,0.07080078125,-1.004150390625,0.083251953125,-0.2366412213740458,-0.04580152671755725,-1.3435114503816794
3.03,0.07421875,-1.01513671875,0.0791015625,-0.42748091603053434,-0.08396946564885496,-1.4427480916030535
3.04,0.0712890625,-1.015380859375,0.09130859375,-0.6564885496183206,1.9083969465648856,-1.297709923664122
3.05,0.066650390625,-1.007568359375,0.083740234375,-0.4351145038167939,0.022900763358778626,-1.3282442748091603
3.06,0.068115234375,-1.004638671875,0.083984375,-0.4732824427480916,-0.2595419847328244,-1.297709923664122
3.07,0.07275390625,-1.0009765625,0.077392578125,-0.2748091603053435,0.030534351145038167,-1.4732824427480915
3.08,0.069580078125,-0.9990234375,0.069580078125,-0.32061068702290074,-0.1450381679389313,-1.297709923664122
3.09,0.065185546875,-0.989501953125,0.076904296875,-0.21374045801526717,-1.916030534351145,-1.4961832061068703
3.1,0.067626953125,-1.00341796875,0.064208984375,-0.31297709923664124,0.015267175572519083,-1.366412213740458
3.11,0.070068359375,-1.00830078125,0.07568359375,-0.6335877862595419,0.04580152671755725,-1.3206106870229009
3.12,0.0712890625,-1.00390625,0.084716796875,-0.7480916030534351,-0.20610687022900764,-1.3129770992366412
3.13,0.07421875,-0.999267578125,0.075439453125,-0.44274809160305345,-0.12213740458015267,-1.381679389312977
3.14,0.068359375,-1.0078125,0.091064453125,-0.2595419847328244,0.030534351145038167,-1.282442748091603
3.15,0.071044921875,-0.99365234375,0.0869140625,-0.31297709923664124,-0.15267175572519084,-1.450381679389313
3.16,0.07177734375,-1.013427734375,0.084716796875,-0.2595419847328244,-0.25190839694656486,-1.5954198473282444
3.17,0.0703125,-0.993408203125,0.068359375,-0.24427480916030533,-0.15267175572519084,-1.2748091603053435
3.18,0.07373046875,-0.9873046875,0.0908203125,-0.35877862595419846,-0.15267175572519084,-1.3358778625954197
3.19,0.0673828125,-1.001220703125,0.07666015625,-0.549618320610687,-0.183206106870229,-1.4122137404580153
3.2,0.06494140625,-1.004150390625,0.085693359375,-0.4580152671755725,1.9083969465648856,-1.4351145038167938
3.21,0.069091796875,-1.000732421875,0.073486328125,-0.40458015267175573,-0.0916030534351145,-1.5114503816793894
3.22,0.070068359375,-1.000732421875,0.079345703125,-0.22137404580152673,-0.06870229007633588,-1.2900763358778626
3.23,0.0693359375,-1.005859375,0.08642578125,-0.3511450381679389,-0.07633587786259542,-1.3206106870229009
3.24,0.07568359375,-1.0029296875,0.08203125,-0.26717557251908397,-0.11450381679389313,-1.3206106870229009
3.25,0.072509765625,-1.01513671875,0.08544921875,-0.48091603053435117,-0.04580152671755725,-1.381679389312977
3.26,0.07666015625,-0.98486328125,0.079345703125,-0.5725190839694656,-0.2595419847328244,-1.2366412213740459
3.27,0.07080078125,-1.0029296875,0.065673828125,-0.44274809160305345,-0.16030534351145037,-1.4045801526717556
3.28,0.072021484375,-1.001708984375,0.071533203125,-0.3893129770992366,-0.06870229007633588,-1.297709923664122
3.29,0.072509765625,-0.997802734375,0.076416015625,-0.366412213740458,-0.16030534351145037,-1.450381679389313
3.3,0.067626953125,-0.995361328125,0.07373046875,-0.37404580152671757,-1.9541984732824427,-1.3358778625954197
3.31,0.069091796875,-1.00634765625,0.076171875,-0.2748091603053435,-0.0916030534351145,-1.4122137404580153
3.32,0.069091796875,-1.013671875,0.0869140625,-0.4198473282442748,-0.11450381679389313,-1.2900763358778626
3.33,0.068359375,-1.004638671875,0.080078125,-0.6183206106870229,-0.08396946564885496,-1.3206106870229009
3.34,0.0712890625,-1.00048828125,0.08203125,-0.8625954198473282,-0.030534351145038167,-1.2748091603053435
3.35,0.07177734375,-1.001708984375,0.078857421875,-0.6259541984732825,0.07633587786259542,-1.2748091603053435
3.36,0.066650390625,-1.004150390625,0.06884765625,-0.6641221374045801,-0.1450381679389313,-1.4732824427480915
3.37,0.068359375,-1.0,0.076904296875,-0.2824427480916031,1.8778625954198473,-1.2671755725190839
3.38,0.072998046875,-1.000732421875,0.07958984375,-0.17557251908396945,0.16030534351145037,-1.3511450381679388
3.39,0.0712890625,-1.00341796875,0.07568359375,-0.4580152671755725,0.022900763358778626,-1.4351145038167938
3.4,0.073486328125,-1.00390625,0.08984375,-0.1450381679389313,-0.21374045801526717,-1.450381679389313
3.41,0.069091796875,-1.001953125,0.083251953125,-0.6183206106870229,0.07633587786259542,-1.297709923664122
3.42,0.069091796875,-1.003662109375,0.08349609375,-0.6259541984732825,1.900763358778626,-1.4122137404580153
3.43,0.0732421875,-1.008056640625,0.07861328125,-0.3282442748091603,-0.05343511450381679,-1.3511450381679388
3.44,0.068115234375,-1.001220703125,0.080322265625,-0.24427480916030533,-0.022900763358778626,-1.366412213740458
3.45,0.06689453125,-1.0048828125,0.085205078125,-0.29770992366412213,-0.2595419847328244,-1.4580152671755726
3.46,0.076171875,-1.00341796875,0.083740234375,-0.2366412213740458,-0.015267175572519083,-1.5038167938931297
3.47,0.069091796875,-1.01513671875,0.0869140625,-0.6793893129770993,-1.9541984732824427,-1.3282442748091603
3.48,0.068603515625,-0.99853515625,0.0654296875,-0.7404580152671756,1.9389312977099236,-1.3358778625954197
3.49,0.0751953125,-1.009033203125,0.084716796875,-0.6793893129770993,-0.16793893129770993,-1.450381679389313
3.5,0.076171875,-1.008544921875,0.07373046875,-0.3053435114503817,-0.20610687022900764,-1.2442748091603053
3.51,0.067138671875,-1.01220703125,0.077392578125,-0.3053435114503817,-0.061068702290076333,-1.16793893129771
3.52,0.071533203125,-1.007568359375,0.086669921875,-0.29770992366412213,-0.015267175572519083,-1.4122137404580153
3.53,0.068603515625,-1.0078125,0.079345703125,-0.2595419847328244,0.05343511450381679,-1.2900763358778626
3.54,0.067626953125,-1.005126953125,0.08251953125,-0.4580152671755725,-0.15267175572519084,-1.4885496183206106
3.55,0.076171875,-0.988037109375,0.080078125,-0.6870229007633588,-0.20610687022900764,-1.4885496183206106
3.56,0.06787109375,-1.005615234375,0.084716796875,-0.6946564885496184,-0.07633587786259542,-1.4274809160305344
3.57,0.074462890625,-0.99951171875,0.064453125,-0.7022900763358778,1.9389312977099236,-1.3053435114503817
3.58,0.068603515625,-1.00146484375,0.075927734375,-0.35877862595419846,-1.900763358778626,-1.282442748091603
3.59,0.067138671875,-1.006103515625,0.08154296875,-0.45038167938931295,0.007633587786259542,-1.3282442748091603
3.6,0.075927734375,-1.004638671875,0.081298828125,-0.40458015267175573,-0.22900763358778625,-1.5267175572519085
3.61,0.07470703125,-1.003173828125,0.080078125,-0.16030534351145037,-0.12213740458015267,-1.381679389312977
3.62,0.0712890625,-1.00048828125,0.0908203125,-0.5725190839694656,-0.25190839694656486,-1.3511450381679388
3.63,0.06689453125,-0.992919921875,0.092529296875,-0.6335877862595419,-0.09923664122137404,-1.4274809160305344
3.64,0.072998046875,-0.999755859375,0.082275390625,-0.5877862595419847,0.13740458015267176,-1.4045801526717556
3.65,0.072509765625,-1.002197265625,0.09228515625,-0.3893129770992366,-0.10687022900763359,-1.4351145038167938
3.66,0.07275390625,-0.99951171875,0.0830078125,-0.37404580152671757,-0.1450381679389313,-1.4351145038167938
3.67,0.067626953125,-1.00244140625,0.076416015625,-0.48854961832061067,-0.24427480916030533,-1.3282442748091603
3.68,0.06787109375,-1.002685546875,0.075927734375,-0.5954198473282443,-0.007633587786259542,-1.2595419847328244
3.69,0.076904296875,-0.996337890625,0.07666015625,-0.21374045801526717,-0.03816793893129771,-1.3358778625954197
3.7,0.072509765625,-1.00341796875,0.080322265625,-0.35877862595419846,-0.007633587786259542,-1.549618320610687
3.71,0.070068359375,-1.00390625,0.068603515625,-0.6946564885496184,-0.183206106870229,-1.5190839694656488
3.72,0.07568359375,-1.003662109375,0.0859375,-0.4351145038167939,-0.09923664122137404,-1.4580152671755726
3.73,0.06884765625,-1.0029296875,0.0849609375,-0.1984732824427481,-0.21374045801526717,-1.381679389312977
3.74,0.07421875,-1.007568359375,0.08056640625,-0.3053435114503817,-0.04580152671755725,-1.3435114503816794
3.75,0.07373046875,-1.001953125,0.08251953125,-0.4351145038167939,0.061068702290076333,-1.4274809160305344
3.76,0.07373046875,-1.00390625,0.07861328125,-0.2748091603053435,-0.08396946564885496,-1.4580152671755726
3.77,0.0712890625,-1.000244140625,0.087646484375,-0.3053435114503817,-0.007633587786259542,-1.366412213740458
3.78,0.068115234375,-1.004150390625,0.078369140625,-0.5877862595419847,-0.03816793893129771,-1.282442748091603
3.79,0.0693359375,-1.007568359375,0.0947265625,-0.5877862595419847,-0.030534351145038167,-1.450381679389313
3.8,0.073974609375,-1.00244140625,0.086669921875,-0.40458015267175573,-0.16030534351145037,-1.4122137404580153
3.81,0.07275390625,-1.00390625,0.08447265625,-0.3053435114503817,-0.1297709923664122,-1.2213740458015268
3.82,0.070068359375,-1.00146484375,0.080810546875,-0.3511450381679389,-0.12213740458015267,-1.3511450381679388
3.83,0.06689453125,-1.00830078125,0.08203125,-0.40458015267175573,0.1984732824427481,-1.4198473282442747
3.84,0.068115234375,-0.99853515625,0.08349609375,-0.7175572519083969,-0.183206106870229,-1.3053435114503817
3.85,0.075439453125,-1.0048828125,0.076171875,-0.6564885496183206,-1.9389312977099236,-1.3358778625954197
3.86,0.069091796875,-1.00341796875,0.081298828125,-0.5190839694656488,0.04580152671755725,-1.183206106870229
3.87,0.076171875,-1.006103515625,0.069091796875,-0.44274809160305345,-0.10687022900763359,-1.4732824427480915
3.88,0.067138671875,-1.00244140625,0.080810546875,-0.35877862595419846,0.022900763358778626,-1.4732824427480915
3.89,0.06787109375,-1.00341796875,0.07763671875,-0.3816793893129771,-0.17557251908396945,-1.4732824427480915
3.9,0.07568359375,-1.00390625,0.080810546875,-0.45038167938931295,-1.8931297709923665,-1.549618320610687
3.91,0.069580078125,-1.00048828125,0.08251953125,-0.4351145038167939,-0.08396946564885496,-1.2366412213740459
3.92,0.068359375,-1.008056640625,0.080322265625,-0.5725190839694656,0.061068702290076333,-1.1984732824427482
3.93,0.0703125,-1.005615234375,0.080810546875,-0.6412213740458015,0.05343511450381679,-1.3511450381679388
3.94,0.071044921875,-1.003662109375,0.084228515625,-0.5190839694656488,-0.03816793893129771,-1.3129770992366412
3.95,0.06787109375,-1.00439453125,0.070556640625,-0.3893129770992366,-0.2748091603053435,-1.4274809160305344
3.96,0.0712890625,-1.00048828125,0.08837890625,-0.4198473282442748,-0.11450381679389313,-1.2595419847328244
3.97,0.0703125,-0.9951171875,0.079833984375,-0.3511450381679389,-0.2748091603053435,-1.2595419847328244
3.98,0.070068359375,-1.010498046875,0.082763671875,-0.48091603053435117,-0.10687022900763359,-1.3511450381679388
3.99,0.066162109375,-0.986083984375,0.084228515625,-0.5190839694656488,1.8778625954198473,-1.5572519083969465
4.0,0.070556640625,-1.0029296875,0.06689453125,-0.5267175572519084,-0.11450381679389313,-1.4122137404580153
4.01,0.0693359375,-1.004638671875,0.076904296875,-0.3435114503816794,-0.08396946564885496,-1.251908396946565
4.02,0.073486328125,-1.003173828125,0.087646484375,-0.35877862595419846,-0.13740458015267176,-1.381679389312977
4.03,0.076171875,-1.005859375,0.079345703125,-0.48854961832061067,0.1297709923664122,-1.3435114503816794
4.04,0.0751953125,-1.001953125,0.076416015625,-0.5877862595419847,-1.9541984732824427,-1.213740458015267
4.05,0.071533203125,-1.005615234375,0.078857421875,-0.4351145038167939,-0.061068702290076333,-1.3053435114503817
4.06,0.06689453125,-1.014404296875,0.07470703125,-0.4198473282442748,-0.25190839694656486,-1.213740458015267
4.07,0.07177734375,-1.00048828125,0.086181640625,-0.4732824427480916,-1.9465648854961832,-1.450381679389313
4.08,0.06298828125,-0.986083984375,0.0810546875,-0.4732824427480916,0.030534351145038167,-1.3282442748091603
4.09,0.067626953125,-0.984619140625,0.092041015625,-0.35877862595419846,-0.20610687022900764,-1.5114503816793894
4.1,0.072265625,-1.000244140625,0.077392578125,-0.4198473282442748,-0.21374045801526717,-1.3358778625954197
4.11,0.076904296875,-1.00634765625,0.081298828125,-0.37404580152671757,-0.04580152671755725,-1.3206106870229009
4.12,0.06494140625,-0.999267578125,0.0771484375,-0.549618320610687,-0.24427480916030533,-1.4580152671755726
4.13,0.06689453125,-1.00537109375,0.090087890625,-0.7633587786259542,0.061068702290076333,-1.3435114503816794
4.14,0.075439453125,-1.01513671875,0.06494140625,-0.26717557251908397,-0.08396946564885496,-1.4580152671755726
4.15,0.067138671875,-1.00244140625,0.08203125,-0.33587786259541985,-0.04580152671755725,-1.2366412213740459
4.16,0.067626953125,-1.000244140625,0.08447265625,-0.37404580152671757,0.0916030534351145,-1.2213740458015268
4.17,0.072509765625,-1.004150390625,0.06787109375,-0.3053435114503817,0.06870229007633588,-1.297709923664122
4.18,0.068359375,-1.001708984375,0.085693359375,-0.6870229007633588,-0.09923664122137404,-1.3740458015267176
4.19,0.06982421875,-1.004150390625,0.08154296875,-0.6259541984732825,-0.0916030534351145,-1.3358778625954197
4.2,0.07275390625,-1.006103515625,0.087646484375,-0.48854961832061067,0.09923664122137404,-1.3511450381679388
4.21,0.06982421875,-1.00146484375,0.0859375,-0.5114503816793893,-0.04580152671755725,-1.251908396946565
4.22,0.068359375,-1.00439453125,0.091552734375,-0.5648854961832062,0.0916030534351145,-1.4351145038167938
4.23,0.072021484375,-1.0029296875,0.080322265625,-0.3053435114503817,-0.03816793893129771,-1.465648854961832
4.24,0.072265625,-1.0048828125,0.09033203125,-0.4198473282442748,-0.22137404580152673,-1.4580152671755726
4.25,0.06787109375,-1.0029296875,0.079345703125,-0.26717557251908397,0.03816793893129771,-1.3893129770992367
4.26,0.064208984375,-1.005126953125,0.0810546875,-0.48854961832061067,-1.9389312977099236,-1.450381679389313
4.27,0.074462890625,-0.99951171875,0.08837890625,-0.6564885496183206,0.0916030534351145,-1.2900763358778626
4.28,0.0732421875,-1.004150390625,0.075439453125,-0.5038167938931297,0.06870229007633588,-1.1984732824427482
4.29,0.0712890625,-1.005615234375,0.069091796875,-0.5267175572519084,-0.16030534351145037,-1.4732824427480915
4.3,0.07568359375,-1.005615234375,0.070556640625,-0.45038167938931295,-0.03816793893129771,-1.3511450381679388
4.31,0.0693359375,-1.000244140625,0.085693359375,-0.2595419847328244,0.09923664122137404,-1.4351145038167938
4.32,0.07421875,-1.00146484375,0.084716796875,-0.2900763358778626,-0.16030534351145037,-1.4580152671755726
4.33,0.075439453125,-0.998291015625,0.08984375,-0.366412213740458,-0.06870229007633588,-1.4580152671755726
4.34,0.06689453125,-0.9970703125,0.08056640625,-0.7557251908396947,-0.06870229007633588,-1.5114503816793894
4.35,0.0673828125,-1.001220703125,0.084228515625,-0.4122137404580153,0.11450381679389313,-1.3282442748091603
4.36,0.0712890625,-1.013916015625,0.077392578125,-0.5648854961832062,-0.22137404580152673,-1.366412213740458
4.37,0.06494140625,-1.006103515625,0.07373046875,-0.4580152671755725,1.8778625954198473,-1.3053435114503817
4.38,0.07373046875,-1.005126953125,0.06298828125,-0.4961832061068702,-0.10687022900763359,-1.4198473282442747
4.39,0.0703125,-1.005859375,0.074951171875,-0.19083969465648856,-0.13740458015267176,-1.3893129770992367
4.4,0.0732421875,-1.00390625,0.077880859375,-0.21374045801526717,-1.9389312977099236,-1.3893129770992367
4.41,0.0703125,-1.00244140625,0.072021484375,-0.29770992366412213,0.05343511450381679,-1.4580152671755726
4.42,0.070556640625,-1.001708984375,0.0869140625,-0.3893129770992366,1.9083969465648856,-1.3435114503816794
4.43,0.066162109375,-1.001953125,0.08203125,-0.5801526717557252,-1.8931297709923665,-1.3129770992366412
4.44,0.0732421875,-1.00341796875,0.091552734375,-0.7480916030534351,0.05343511450381679,-1.3587786259541985
4.45,0.067138671875,-1.001708984375,0.069091796875,-0.48854961832061067,-0.17557251908396945,-1.2900763358778626
4.46,0.06884765625,-0.989013671875,0.074951171875,-0.4351145038167939,-0.07633587786259542,-1.4198473282442747
4.47,0.071044921875,-1.005126953125,0.08056640625,-0.2824427480916031,-0.2900763358778626,-1.4580152671755726
4.48,0.07080078125,-1.00048828125,0.076904296875,-0.3816793893129771,-0.29770992366412213,-1.381679389312977
4.49,0.069091796875,-0.994873046875,0.080078125,-0.29770992366412213,-0.07633587786259542,-1.282442748091603
4.5,0.068359375,-0.997314453125,0.074462890625,-0.4580152671755725,1.916030534351145,-1.381679389312977
4.51,0.072509765625,-1.00146484375,0.08154296875,-0.549618320610687,-0.17557251908396945,-1.4351145038167938
4.52,0.0771484375,-1.00341796875,0.08349609375,-0.3816793893129771,0.17557251908396945,-1.3129770992366412
4.53,0.072998046875,-1.00732421875,0.085693359375,-0.6946564885496184,0.05343511450381679,-1.099236641221374
4.54,0.070068359375,-1.00244140625,0.09326171875,-0.48091603053435117,-1.9465648854961832,-1.282442748091603
4.55,0.072998046875,-1.004150390625,0.0869140625,-0.44274809160305345,-0.0916030534351145,-1.4274809160305344
4.56,0.06787109375,-1.00244140625,0.0830078125,-0.45038167938931295,0.07633587786259542,-1.4809160305343512
4.57,0.071533203125,-0.998779296875,0.076904296875,-0.3511450381679389,-0.07633587786259542,-1.4580152671755726
4.58,0.072265625,-1.0029296875,0.0859375,-0.32061068702290074,-0.16793893129770993,-1.465648854961832
4.59,0.068115234375,-1.015380859375,0.079345703125,-0.5267175572519084,-1.9541984732824427,-1.3282442748091603
4.6,0.066650390625,-1.00341796875,0.06591796875,-0.46564885496183206,0.030534351145038167,-1.3893129770992367
4.61,0.07177734375,-1.003173828125,0.066162109375,-0.42748091603053434,0.015267175572519083,-1.3129770992366412
4.62,0.07568359375,-1.0,0.089111328125,-0.2900763358778626,-1.9541984732824427,-1.3587786259541985
4.63,0.074462890625,-1.00146484375,0.07666015625,-0.31297709923664124,0.015267175572519083,-1.5648854961832062
4.64,0.06640625,-1.00439453125,0.0771484375,-0.2748091603053435,-0.10687022900763359,-1.4274809160305344
4.65,0.065673828125,-1.00341796875,0.078125,-0.32061068702290074,-0.22900763358778625,-1.3740458015267176
4.66,0.072509765625,-0.998779296875,0.073486328125,-0.5725190839694656,-1.9389312977099236,-1.2671755725190839
4.67,0.0712890625,-0.990478515625,0.075439453125,-0.37404580152671757,-0.10687022900763359,-1.3435114503816794
4.68,0.068115234375,-0.998046875,0.080322265625,-0.40458015267175573,-0.04580152671755725,-1.4351145038167938
4.69,0.07080078125,-0.996826171875,0.083984375,-0.32061068702290074,0.007633587786259542,-1.4198473282442747
4.7,0.06982421875,-0.996826171875,0.08056640625,-0.25190839694656486,-0.09923664122137404,-1.3587786259541985
4.71,0.078857421875,-1.005126953125,0.07763671875,-0.4580152671755725,-0.04580152671755725,-1.3893129770992367
4.72,0.0712890625,-1.0048828125,0.07763671875,-0.45038167938931295,-0.1450381679389313,-1.2290076335877862
4.73,0.070556640625,-0.985595703125,0.08544921875,-0.29770992366412213,-0.007633587786259542,-1.213740458015267
4.74,0.07275390625,-1.00341796875,0.081298828125,-0.44274809160305345,0.09923664122137404,-1.5114503816793894
4.75,0.068115234375,-1.008544921875,0.091552734375,-0.4961832061068702,-0.06870229007633588,-1.1450381679389312
4.76,0.0693359375,-1.001708984375,0.079345703125,-0.45038167938931295,0.0,-1.2900763358778626
4.77,0.068359375,-0.999267578125,0.08056640625,-0.4961832061068702,-0.2595419847328244,-1.2290076335877862
4.78,0.075927734375,-1.001953125,0.073974609375,-0.37404580152671757,-1.9083969465648856,-1.3740458015267176
4.79,0.075927734375,-0.994873046875,0.079345703125,-0.16793893129770993,-0.17557251908396945,-1.4045801526717556
4.8,0.0703125,-0.999267578125,0.081298828125,-0.42748091603053434,1.9236641221374047,-1.1755725190839694
4.81,0.068115234375,-0.998291015625,0.079345703125,-0.5877862595419847,0.06870229007633588,-1.366412213740458
4.82,0.07763671875,-1.012451171875,0.084228515625,-0.40458015267175573,-0.09923664122137404,-1.4732824427480915
4.83,0.073486328125,-1.005126953125,0.0791015625,-0.7022900763358778,-0.007633587786259542,-1.3206106870229009
4.84,0.067626953125,-1.001220703125,0.078857421875,-0.3435114503816794,0.03816793893129771,-1.3206106870229009
4.85,0.070068359375,-1.00537109375,0.083740234375,-0.6564885496183206,-1.9541984732824427,-1.3969465648854962
4.86,0.076171875,-1.002197265625,0.079345703125,-0.3816793893129771,-0.05343511450381679,-1.2366412213740459
4.87,0.0673828125,-1.005126953125,0.0791015625,-0.2824427480916031,-0.20610687022900764,-1.2595419847328244
4.88,0.069580078125,-0.99072265625,0.090087890625,-0.19083969465648856,-0.0916030534351145,-1.3053435114503817
4.89,0.076904296875,-0.99951171875,0.085693359375,-0.45038167938931295,0.022900763358778626,-1.1984732824427482
4.9,0.0712890625,-0.984619140625,0.08154296875,-0.7099236641221374,-0.12213740458015267,-1.3282442748091603
4.91,0.068359375,-1.0048828125,0.068603515625,-0.7480916030534351,-0.1450381679389313,-1.2366412213740459
4.92,0.07080078125,-0.999755859375,0.080810546875,-0.5343511450381679,0.183206106870229,-1.4961832061068703
4.93,0.069091796875,-0.99853515625,0.082275390625,-0.5419847328244275,-0.12213740458015267,-1.4809160305343512
4.94,0.072265625,-1.0068359375,0.083251953125,-0.3282442748091603,-0.20610687022900764,-1.3053435114503817
4.95,0.070556640625,-1.002197265625,0.0849609375,-0.32061068702290074,0.022900763358778626,-1.3435114503816794
4.96,0.090087890625,-1.013916015625,0.08447265625,-0.35877862595419846,0.0,-1.4351145038167938
4.97,0.071533203125,-1.001953125,0.091064453125,-0.4961832061068702,0.07633587786259542,-1.3893129770992367
4.98,0.072998046875,-1.006591796875,0.090087890625,-0.5954198473282443,-0.03816793893129771,-1.3206106870229009
4.99,0.07080078125,-1.00439453125,0.073974609375,-0.5648854961832062,-0.16793893129770993,-1.3282442748091603
5.0,0.06982421875,-1.004150390625,0.08642578125,-0.6335877862595419,0.03816793893129771,-1.4580152671755726
5.01,0.07177734375,-0.99951171875,0.0712890625,-0.29770992366412213,-0.11450381679389313,-1.366412213740458
5.02,0.07373046875,-1.00341796875,0.077392578125,-0.5114503816793893,0.0,-1.366412213740458
5.03,0.07275390625,-1.002685546875,0.07861328125,-0.35877862595419846,-0.030534351145038167,-1.297709923664122
5.04,0.07080078125,-0.989501953125,0.076171875,-0.31297709923664124,-0.17557251908396945,-1.183206106870229
5.05,0.069091796875,-1.013427734375,0.080810546875,-0.44274809160305345,-0.061068702290076333,-1.3587786259541985
5.06,0.07470703125,-1.004638671875,0.06396484375,-0.5801526717557252,-1.9312977099236641,-1.4274809160305344
5.07,0.0634765625,-1.002197265625,0.07373046875,-0.7251908396946565,1.8244274809160306,-1.2442748091603053
5.08,0.0712890625,-1.001220703125,0.077392578125,-0.46564885496183206,-0.15267175572519084,-1.4427480916030535
5.09,0.064697265625,-1.00244140625,0.076171875,-0.1984732824427481,-0.0916030534351145,-1.4809160305343512
5.1,0.06689453125,-1.0029296875,0.0791015625,-0.15267175572519084,-0.09923664122137404,-1.2366412213740459
5.11,0.074951171875,-1.00732421875,0.0869140625,-0.1297709923664122,0.05343511450381679,-1.366412213740458
5.12,0.0751953125,-1.00439453125,0.07958984375,-0.5725190839694656,-1.916030534351145,-1.5419847328244274
5.13,0.069091796875,-1.007080078125,0.078857421875,-0.5877862595419847,-0.015267175572519083,-1.4274809160305344
5.14,0.07421875,-0.998779296875,0.08056640625,-0.5648854961832062,-1.9389312977099236,-1.3740458015267176
5.15,0.0732421875,-1.002197265625,0.084228515625,-0.3969465648854962,-0.06870229007633588,-1.450381679389313
5.16,0.068603515625,-1.006591796875,0.0859375,-0.46564885496183206,1.8625954198473282,-1.16793893129771
5.17,0.068603515625,-1.0009765625,0.07958984375,-0.1450381679389313,-0.0916030534351145,-1.4351145038167938
5.18,0.07080078125,-1.012939453125,0.07568359375,-0.48854961832061067,1.916030534351145,-1.6564885496183206
5.19,0.070068359375,-0.98681640625,0.085693359375,-0.26717557251908397,0.15267175572519084,-1.2366412213740459
5.2,0.06982421875,-1.00341796875,0.07763671875,-0.6259541984732825,0.03816793893129771,-1.4351145038167938
5.21,0.072021484375,-1.001953125,0.082763671875,-0.6412213740458015,-0.030534351145038167,-1.3435114503816794
5.22,0.068359375,-1.008056640625,0.07421875,-0.3282442748091603,-0.19083969465648856,-1.4045801526717556
5.23,0.06494140625,-1.000732421875,0.0849609375,-0.12213740458015267,-0.183206106870229,-1.251908396946565
5.24,0.070556640625,-1.00830078125,0.087158203125,-0.2748091603053435,0.1297709923664122,-1.6030534351145038
5.25,0.070556640625,-1.00390625,0.073486328125,-0.33587786259541985,-0.05343511450381679,-1.4351145038167938
5.26,0.06787109375,-1.0068359375,0.082275390625,-0.3435114503816794,-0.06870229007633588,-1.3435114503816794
5.27,0.06884765625,-1.013671875,0.0830078125,-0.7786259541984732,-0.16030534351145037,-1.1755725190839694
5.28,0.06787109375,-0.99462890625,0.091552734375,-0.6030534351145038,-0.030534351145038167,-1.3740458015267176
5.29,0.07177734375,-0.999755859375,0.089111328125,-0.26717557251908397,0.022900763358778626,-1.4122137404580153
5.3,0.07373046875,-0.99951171875,0.073486328125,-0.2824427480916031,-0.1984732824427481,-1.3206106870229009
5.31,0.069091796875,-1.004150390625,0.080810546875,-0.32061068702290074,-0.19083969465648856,-1.5114503816793894
5.32,0.072021484375,-1.002197265625,0.08642578125,-0.48854961832061067,1.916030534351145,-1.5038167938931297
5.33,0.074462890625,-1.0029296875,0.088134765625,-0.6030534351145038,-0.2366412213740458,-1.4961832061068703
5.34,0.06689453125,-1.01123046875,0.080078125,-0.5954198473282443,0.08396946564885496,-1.297709923664122
5.35,0.07275390625,-1.0029296875,0.0634765625,-0.549618320610687,0.07633587786259542,-1.534351145038168
5.36,0.0673828125,-1.000244140625,0.09228515625,-0.5038167938931297,-0.183206106870229,-1.4274809160305344
5.37,0.074951171875,-1.008544921875,0.087646484375,-0.29770992366412213,-1.8778625954198473,-1.2595419847328244
5.38,0.068115234375,-1.0009765625,0.080810546875,-0.11450381679389313,-0.16793893129770993,-1.549618320610687
5.39,0.06982421875,-0.99951171875,0.0751953125,-0.37404580152671757,-0.0916030534351145,-1.3587786259541985
5.4,0.068359375,-0.99755859375,0.08056640625,-0.6717557251908397,-0.04580152671755725,-1.5267175572519085
5.41,0.070556640625,-1.00244140625,0.07861328125,-0.6564885496183206,-1.9312977099236641,-1.2748091603053435
5.42,0.07177734375,-1.003173828125,0.079345703125,-0.7938931297709924,-0.13740458015267176,-1.3893129770992367
5.43,0.070556640625,-0.9921875,0.082275390625,-0.3893129770992366,0.015267175572519083,-1.2900763358778626
5.44,0.068603515625,-1.006591796875,0.0791015625,-0.4580152671755725,-0.07633587786259542,-1.2366412213740459
5.45,0.06884765625,-1.006591796875,0.086669921875,-0.183206106870229,0.10687022900763359,-1.3282442748091603
5.46,0.077392578125,-1.005859375,0.083984375,-0.42748091603053434,-0.19083969465648856,-1.3206106870229009
5.47,0.0693359375,-1.004150390625,0.07666015625,-0.2748091603053435,0.09923664122137404,-1.5267175572519085
5.48,0.0654296875,-1.000244140625,0.081298828125,-0.6564885496183206,0.11450381679389313,-1.4351145038167938
5.49,0.0693359375,-0.99951171875,0.08837890625,-0.7099236641221374,-0.08396946564885496,-1.366412213740458
5.5,0.07666015625,-1.005615234375,0.078857421875,-0.4198473282442748,0.2748091603053435,-1.5419847328244274
5.51,0.07275390625,-0.999755859375,0.092529296875,-0.46564885496183206,-0.030534351145038167,-1.3206106870229009
5.52,0.0673828125,-0.99853515625,0.07763671875,-0.05343511450381679,-0.061068702290076333,-1.5419847328244274
5.53,0.066650390625,-1.005126953125,0.084716796875,-0.3893129770992366,1.9465648854961832,-1.3435114503816794
5.54,0.066650390625,-1.00244140625,0.078369140625,-0.648854961832061,-0.1297709923664122,-1.4732824427480915
5.55,0.071533203125,-1.001953125,0.08544921875,-0.6106870229007634,-0.21374045801526717,-1.3511450381679388
5.56,0.07080078125,-0.98876953125,0.072021484375,-0.5725190839694656,0.04580152671755725,-1.2900763358778626
5.57,0.071044921875,-1.00732421875,0.091552734375,-0.549618320610687,0.04580152671755725,-1.4198473282442747
5.58,0.072509765625,-0.98779296875,0.065673828125,-0.3053435114503817,-0.08396946564885496,-1.381679389312977
5.59,0.0771484375,-1.002197265625,0.068359375,-0.13740458015267176,-0.030534351145038167,-1.2290076335877862
5.6,0.072509765625,-1.004150390625,0.073486328125,-0.40458015267175573,-0.19083969465648856,-1.3740458015267176
5.61,0.068359375,-1.0029296875,0.079345703125,-0.5114503816793893,-0.05343511450381679,-1.2290076335877862
5.62,0.073974609375,-0.998291015625,0.070556640625,-0.48091603053435117,-0.3053435114503817,-1.3740458015267176
5.63,0.064453125,-1.00390625,0.074951171875,-0.6870229007633588,-0.13740458015267176,-1.381679389312977
5.64,0.0712890625,-1.005126953125,0.08544921875,-0.5419847328244275,0.06870229007633588,-1.4961832061068703
5.65,0.071533203125,-1.006103515625,0.092529296875,-0.48854961832061067,-0.29770992366412213,-1.2748091603053435
5.66,0.072265625,-1.00634765625,0.0625,-0.3053435114503817,0.0916030534351145,-1.1755725190839694
5.67,0.0712890625,-1.00634765625,0.08154296875,-0.3969465648854962,0.07633587786259542,-1.3129770992366412
5.68,0.06787109375,-0.999755859375,0.084228515625,-0.5572519083969466,-0.03816793893129771,-1.3358778625954197
5.69,0.070556640625,-1.001953125,0.0791015625,-0.5648854961832062,-0.06870229007633588,-1.3053435114503817
5.7,0.074951171875,-1.005615234375,0.08056640625,-0.7251908396946565,-0.06870229007633588,-1.366412213740458
5.71,0.07177734375,-0.98486328125,0.08203125,-0.48854961832061067,-1.8931297709923665,-1.4274809160305344
5.72,0.074951171875,-1.005126953125,0.067138671875,-0.4198473282442748,-1.9465648854961832,-1.4427480916030535
5.73,0.068603515625,-1.004638671875,0.076416015625,-0.1450381679389313,0.1297709923664122,-1.4809160305343512
5.74,0.069580078125,-1.00048828125,0.08251953125,-0.4961832061068702,-0.25190839694656486,-1.6488549618320612
5.75,0.070556640625,-1.001708984375,0.083740234375,-0.5343511450381679,1.9312977099236641,-1.3587786259541985
5.76,0.07421875,-1.005126953125,0.07861328125,-0.46564885496183206,-0.1297709923664122,-1.4427480916030535
5.77,0.071533203125,-1.00341796875,0.074951171875,-0.4580152671755725,-0.1450381679389313,-1.2595419847328244
5.78,0.07568359375,-1.0068359375,0.0791015625,-0.5190839694656488,-0.16030534351145037,-1.2671755725190839
5.79,0.0654296875,-1.0068359375,0.0810546875,-0.6106870229007634,0.08396946564885496,-1.3206106870229009
5.8,0.072265625,-1.015380859375,0.090576171875,-0.32061068702290074,-0.04580152671755725,-1.450381679389313
5.81,0.075439453125,-1.01416015625,0.093017578125,-0.2748091603053435,0.05343511450381679,-1.4809160305343512
5.82,0.069580078125,-0.998291015625,0.083251953125,-0.3893129770992366,-0.13740458015267176,-1.4045801526717556
5.83,0.066650390625,-1.006103515625,0.078369140625,-0.4580152671755725,-0.04580152671755725,-1.3740458015267176
5.84,0.06982421875,-1.003662109375,0.08349609375,-0.3969465648854962,-0.06870229007633588,-1.4122137404580153
5.85,0.068603515625,-1.005859375,0.083984375,-0.45038167938931295,-0.08396946564885496,-1.4198473282442747
5.86,0.069091796875,-1.00390625,0.078369140625,-0.35877862595419846,0.07633587786259542,-1.381679389312977
5.87,0.06298828125,-1.000732421875,0.082275390625,-0.40458015267175573,0.061068702290076333,-1.465648854961832
5.88,0.062744140625,-1.01220703125,0.087158203125,-0.3893129770992366,1.916030534351145,-1.3511450381679388
5.89,0.068359375,-1.00048828125,0.090087890625,-0.5114503816793893,-0.07633587786259542,-1.366412213740458
5.9,0.071044921875,-0.997314453125,0.080810546875,-0.5343511450381679,0.1450381679389313,-1.3511450381679388
5.91,0.071533203125,-1.0009765625,0.0888671875,-0.5038167938931297,0.19083969465648856,-1.450381679389313
5.92,0.0712890625,-0.999755859375,0.0810546875,-0.5419847328244275,-0.015267175572519083,-1.465648854961832
5.93,0.075927734375,-0.999755859375,0.078369140625,-0.1984732824427481,1.8854961832061068,-1.4732824427480915
5.94,0.0751953125,-1.00927734375,0.08349609375,-0.3282442748091603,0.1297709923664122,-1.3282442748091603
5.95,0.069091796875,-1.00439453125,0.082763671875,-0.3511450381679389,-0.08396946564885496,-1.2061068702290076
5.96,0.068603515625,-1.010986328125,0.093505859375,-0.40458015267175573,-0.0916030534351145,-1.282442748091603
5.97,0.07080078125,-1.0068359375,0.085205078125,-0.5725190839694656,-0.1297709923664122,-1.3587786259541985
5.98,0.076171875,-0.997802734375,0.083984375,-0.48091603053435117,0.05343511450381679,-1.381679389312977
5.99,0.070068359375,-1.001708984375,0.08447265625,-0.4961832061068702,-0.16793893129770993,-1.366412213740458
6.0,0.075927734375,-1.003662109375,0.078369140625,-0.44274809160305345,-0.030534351145038167,-1.3129770992366412
6.01,0.0703125,-1.00390625,0.083740234375,-0.25190839694656486,0.03816793893129771,-1.3282442748091603
6.02,0.073974609375,-1.004638671875,0.072265625,-0.3969465648854962,0.0916030534351145,-1.4198473282442747
6.03,0.07080078125,-0.989013671875,0.090576171875,-0.37404580152671757,1.9389312977099236,-1.4122137404580153
6.04,0.066650390625,-1.003173828125,0.089599609375,-0.2824427480916031,-0.07633587786259542,-1.3129770992366412
6.05,0.06787109375,-1.00390625,0.076904296875,-0.4351145038167939,-0.09923664122137404,-1.366412213740458
6.06,0.06640625,-1.006103515625,0.088623046875,-0.5190839694656488,0.22900763358778625,-1.3587786259541985
6.07,0.0673828125,-1.001953125,0.078369140625,-0.6259541984732825,1.9389312977099236,-1.4732824427480915
6.08,0.06494140625,-1.001220703125,0.076904296875,-0.33587786259541985,-1.916030534351145,-1.3969465648854962
6.09,0.06787109375,-1.005126953125,0.0869140625,-0.42748091603053434,1.9389312977099236,-1.450381679389313
6.1,0.067138671875,-0.9853515625,0.07861328125,-0.2900763358778626,1.900763358778626,-1.3053435114503817
6.11,0.071044921875,-1.006103515625,0.088623046875,-0.22137404580152673,1.8702290076335877,-1.2442748091603053
6.12,0.070068359375,-0.999267578125,0.081787109375,-0.3053435114503817,0.04580152671755725,-1.4427480916030535
6.13,0.06787109375,-1.00537109375,0.07177734375,-0.5190839694656488,-0.10687022900763359,-1.4809160305343512
6.14,0.071044921875,-1.001220703125,0.084716796875,-0.42748091603053434,1.9465648854961832,-1.2671755725190839
6.15,0.068359375,-1.000732421875,0.081787109375,-0.4580152671755725,-0.22900763358778625,-1.2290076335877862
6.16,0.0703125,-1.001708984375,0.07666015625,-0.44274809160305345,-0.2366412213740458,-1.251908396946565
6.17,0.073486328125,-1.003662109375,0.083740234375,-0.4732824427480916,-0.11450381679389313,-1.4045801526717556
6.18,0.070556640625,-1.01123046875,0.07861328125,-0.37404580152671757,-0.1450381679389313,-1.3053435114503817
6.19,0.0703125,-1.001953125,0.082275390625,-0.29770992366412213,0.12213740458015267,-1.3740458015267176
6.2,0.0673828125,-1.005615234375,0.08837890625,-0.22900763358778625,0.015267175572519083,-1.3969465648854962
6.21,0.072509765625,-1.004150390625,0.0810546875,-0.3816793893129771,0.08396946564885496,-1.3129770992366412
6.22,0.068359375,-1.004638671875,0.083984375,-0.6259541984732825,-0.08396946564885496,-1.4580152671755726
6.23,0.06640625,-1.0048828125,0.072998046875,-0.5877862595419847,-1.9389312977099236,-1.1984732824427482
6.24,0.0751953125,-1.01416015625,0.081787109375,-0.6564885496183206,-0.10687022900763359,-1.381679389312977
6.25,0.0703125,-0.986572265625,0.08154296875,-0.3969465648854962,-0.007633587786259542,-1.381679389312977
6.26,0.070068359375,-1.00244140625,0.07763671875,-0.6106870229007634,-0.030534351145038167,-1.2442748091603053
6.27,0.06689453125,-1.00341796875,0.081298828125,-0.3816793893129771,1.9389312977099236,-1.2671755725190839
6.28,0.068603515625,-1.003662109375,0.082275390625,-0.25190839694656486,1.8854961832061068,-1.2061068702290076
6.29,0.072998046875,-0.99853515625,0.084716796875,-0.2824427480916031,-0.12213740458015267,-1.3206106870229009
6.3,0.07373046875,-1.006103515625,0.0830078125,-0.6641221374045801,-1.9083969465648856,-1.2595419847328244
6.31,0.065673828125,-1.00390625,0.082275390625,-0.2366412213740458,-0.061068702290076333,-1.3969465648854962
6.32,0.07666015625,-1.001220703125,0.068115234375,-0.3893129770992366,1.9389312977099236,-1.4580152671755726
6.33,0.06884765625,-1.007568359375,0.075439453125,-0.16793893129770993,0.007633587786259542,-1.3282442748091603
6.34,0.07421875,-1.003173828125,0.09326171875,-0.1984732824427481,-0.06870229007633588,-1.3129770992366412
6.35,0.0732421875,-1.005859375,0.078369140625,-0.5114503816793893,-1.9465648854961832,-1.4885496183206106
6.36,0.069091796875,-1.002685546875,0.0849609375,-0.2824427480916031,0.08396946564885496,-1.3587786259541985
6.37,0.0693359375,-0.994140625,0.078857421875,-0.24427480916030533,0.05343511450381679,-1.1984732824427482
6.38,0.068359375,-0.999267578125,0.073974609375,-0.5343511450381679,-0.04580152671755725,-1.2748091603053435
6.39,0.0693359375,-1.004638671875,0.0810546875,-0.366412213740458,-0.11450381679389313,-1.3587786259541985
6.4,0.068115234375,-1.00048828125,0.076171875,-0.4732824427480916,-0.04580152671755725,-1.282442748091603
6.41,0.066650390625,-1.009033203125,0.080810546875,-0.3511450381679389,-0.09923664122137404,-1.534351145038168
6.42,0.072021484375,-1.0029296875,0.08935546875,-0.4122137404580153,-0.1984732824427481,-1.2671755725190839
6.43,0.069091796875,-1.0,0.081787109375,-0.6412213740458015,0.08396946564885496,-1.3358778625954197
6.44,0.0703125,-1.002197265625,0.077880859375,-0.3969465648854962,-0.061068702290076333,-1.5190839694656488
6.45,0.069580078125,-0.9951171875,0.076416015625,-0.5267175572519084,0.1450381679389313,-1.4961832061068703
6.46,0.067138671875,-1.010009765625,0.081298828125,-0.5572519083969466,-1.9541984732824427,-1.3969465648854962
6.47,0.0693359375,-1.000732421875,0.0791015625,-0.32061068702290074,0.10687022900763359,-1.3587786259541985
6.48,0.068115234375,-1.00634765625,0.08203125,-0.46564885496183206,0.0,-1.618320610687023
6.49,0.06982421875,-0.99462890625,0.078369140625,-0.5343511450381679,0.07633587786259542,-1.2900763358778626
6.5,0.068115234375,-1.000244140625,0.082763671875,-0.48091603053435117,-0.061068702290076333,-1.1908396946564885
6.51,0.06787109375,-1.0029296875,0.084228515625,-0.6717557251908397,-0.183206106870229,-1.4045801526717556
6.52,0.0703125,-1.004150390625,0.078857421875,-0.5572519083969466,0.04580152671755725,-1.4809160305343512
6.53,0.07177734375,-1.00341796875,0.08349609375,-0.48854961832061067,-0.183206106870229,-1.3587786259541985
6.54,0.076904296875,-0.99951171875,0.079833984375,-0.40458015267175573,0.11450381679389313,-1.3587786259541985
6.55,0.06591796875,-1.001220703125,0.0849609375,-0.3893129770992366,1.9236641221374047,-1.2061068702290076
6.56,0.072998046875,-0.999755859375,0.08251953125,-0.22900763358778625,-0.17557251908396945,-1.5190839694656488
6.57,0.0693359375,-1.011474609375,0.0830078125,-0.45038167938931295,1.916030534351145,-1.3435114503816794
6.58,0.0771484375,-1.0009765625,0.085205078125,-0.6641221374045801,0.12213740458015267,-1.3511450381679388
6.59,0.066650390625,-1.006591796875,0.079345703125,-0.6412213740458015,0.25190839694656486,-1.4045801526717556
6.6,0.076171875,-0.998779296875,0.076904296875,-0.4351145038167939,0.08396946564885496,-1.4198473282442747
6.61,0.064208984375,-1.006103515625,0.0771484375,-0.6793893129770993,-1.916030534351145,-1.450381679389313
6.62,0.068603515625,-1.009765625,0.07568359375,-0.5419847328244275,-1.8931297709923665,-1.1984732824427482
6.63,0.07275390625,-1.0048828125,0.08203125,-0.45038167938931295,-0.16030534351145037,-1.4045801526717556
6.64,0.068603515625,-1.000244140625,0.08935546875,-0.31297709923664124,-0.1450381679389313,-1.3587786259541985
6.65,0.07275390625,-0.999755859375,0.079833984375,-0.48091603053435117,-0.007633587786259542,-1.381679389312977
6.66,0.072021484375,-1.00341796875,0.0830078125,-0.5343511450381679,-0.22900763358778625,-1.3893129770992367
6.67,0.0673828125,-0.99658203125,0.078857421875,-0.29770992366412213,-0.10687022900763359,-1.3969465648854962
6.68,0.07421875,-1.007568359375,0.081298828125,-0.3053435114503817,0.15267175572519084,-1.16793893129771
6.69,0.072509765625,-1.0048828125,0.076904296875,-0.5190839694656488,0.05343511450381679,-1.3358778625954197
6.7,0.072998046875,-1.015380859375,0.079345703125,-0.549618320610687,-0.022900763358778626,-1.4732824427480915
6.71,0.0673828125,-1.005859375,0.08349609375,-0.6564885496183206,-0.030534351145038167,-1.549618320610687
6.72,0.070556640625,-1.0048828125,0.087158203125,-0.5267175572519084,1.9236641221374047,-1.2290076335877862
6.73,0.066162109375,-1.001953125,0.083984375,-0.5038167938931297,-0.10687022900763359,-1.366412213740458
6.74,0.063232421875,-1.00390625,0.080810546875,-0.4198473282442748,-0.03816793893129771,-1.2442748091603053
6.75,0.07421875,-1.00537109375,0.075439453125,-0.2824427480916031,1.9465648854961832,-1.4809160305343512
6.76,0.076171875,-1.003662109375,0.084228515625,-0.37404580152671757,-0.4961832061068702,-1.297709923664122
6.77,0.068359375,-1.00146484375,0.082275390625,-0.46564885496183206,-0.09923664122137404,-1.4580152671755726
6.78,0.07080078125,-1.0029296875,0.091796875,-0.6106870229007634,-0.061068702290076333,-1.3893129770992367
6.79,0.07568359375,-1.0,0.082763671875,-0.5419847328244275,-0.22137404580152673,-1.4580152671755726
6.8,0.07177734375,-1.004638671875,0.077392578125,-0.5954198473282443,0.022900763358778626,-1.3129770992366412
6.81,0.07373046875,-1.000732421875,0.07275390625,-0.44274809160305345,0.022900763358778626,-1.4122137404580153
6.82,0.0869140625,-1.006591796875,0.088623046875,-0.25190839694656486,-0.25190839694656486,-1.2595419847328244
6.83,0.06884765625,-1.015625,0.08447265625,-0.2748091603053435,-0.13740458015267176,-1.5114503816793894
6.84,0.07666015625,-1.014404296875,0.084716796875,-0.4351145038167939,1.9389312977099236,-1.465648854961832
6.85,0.071044921875,-1.008544921875,0.0810546875,-0.6030534351145038,-0.06870229007633588,-1.3969465648854962
6.86,0.07177734375,-1.0029296875,0.065185546875,-0.5190839694656488,1.9083969465648856,-1.3053435114503817
6.87,0.0693359375,-1.006591796875,0.080810546875,-0.40458015267175573,-0.20610687022900764,-1.3053435114503817
6.88,0.0712890625,-1.007080078125,0.075927734375,-0.4122137404580153,-0.04580152671755725,-1.2213740458015268
6.89,0.071533203125,-1.005126953125,0.08056640625,-0.4580152671755725,-0.11450381679389313,-1.3740458015267176
6.9,0.068115234375,-1.001220703125,0.081787109375,-0.33587786259541985,0.05343511450381679,-1.3206106870229009
6.91,0.066650390625,-1.004150390625,0.07373046875,-0.46564885496183206,1.8702290076335877,-1.3587786259541985
6.92,0.06787109375,-1.013916015625,0.082763671875,-0.5038167938931297,-0.1450381679389313,-1.3129770992366412
6.93,0.0673828125,-0.990478515625,0.068603515625,-0.33587786259541985,0.0916030534351145,-1.3511450381679388
6.94,0.076171875,-1.001220703125,0.081787109375,-0.1297709923664122,-0.022900763358778626,-1.3053435114503817
6.95,0.07666015625,-1.007080078125,0.084228515625,-0.32061068702290074,-0.007633587786259542,-1.3282442748091603
6.96,0.0693359375,-0.9990234375,0.079345703125,-0.44274809160305345,0.09923664122137404,-1.4580152671755726
6.97,0.06982421875,-0.999755859375,0.080078125,-0.5114503816793893,0.05343511450381679,-1.3740458015267176
6.98,0.065185546875,-1.002197265625,0.078369140625,-0.44274809160305345,-0.007633587786259542,-1.381679389312977
6.99,0.07373046875,-1.00537109375,0.06884765625,-0.48091603053435117,-0.12213740458015267,-1.4045801526717556
7.0,0.06787109375,-1.00244140625,0.063720703125,-0.29770992366412213,-0.05343511450381679,-1.4580152671755726
7.01,0.077392578125,-1.004638671875,0.086669921875,-0.22137404580152673,-0.16793893129770993,-1.4122137404580153
7.02,0.076416015625,-1.0048828125,0.08349609375,-0.4580152671755725,1.916030534351145,-1.0610687022900764
7.03,0.070556640625,-1.001708984375,0.086669921875,-0.5877862595419847,-1.9541984732824427,-1.4198473282442747
7.04,0.070556640625,-1.0078125,0.079345703125,-0.6183206106870229,-0.061068702290076333,-1.381679389312977
7.05,0.071044921875,-1.00048828125,0.08935546875,-0.5648854961832062,-0.09923664122137404,-1.2748091603053435
7.06,0.077392578125,-1.000244140625,0.065673828125,-0.5725190839694656,-0.13740458015267176,-1.3893129770992367
7.07,0.071533203125,-1.014892578125,0.08642578125,-0.12213740458015267,0.0,-1.4122137404580153
7.08,0.0712890625,-1.00537109375,0.083251953125,-0.1297709923664122,-0.09923664122137404,-1.3893129770992367
7.09,0.068603515625,-1.005615234375,0.07470703125,-0.22900763358778625,0.0916030534351145,-1.3053435114503817
7.1,0.071044921875,-1.001708984375,0.078369140625,-0.5877862595419847,0.03816793893129771,-1.3587786259541985
7.11,0.06591796875,-1.005615234375,0.081298828125,-0.6412213740458015,-0.015267175572519083,-1.4274809160305344
7.12,0.070068359375,-0.999755859375,0.07373046875,-0.5267175572519084,-0.16030534351145037,-1.2213740458015268
7.13,0.0693359375,-1.01318359375,0.083984375,-0.4732824427480916,-0.17557251908396945,-1.3435114503816794
7.14,0.071044921875,-1.004150390625,0.0830078125,-0.26717557251908397,-1.9465648854961832,-1.3969465648854962
7.15,0.066650390625,-1.00244140625,0.077880859375,-0.16793893129770993,-0.03816793893129771,-1.5190839694656488
7.16,0.067138671875,-1.0,0.08935546875,-0.183206106870229,-0.04580152671755725,-1.213740458015267
7.17,0.062255859375,-1.002685546875,0.073974609375,-0.4732824427480916,-0.07633587786259542,-1.3206106870229009
7.18,0.06591796875,-0.997314453125,0.082763671875,-0.8091603053435115,-0.12213740458015267,-1.3053435114503817
7.19,0.06494140625,-1.002197265625,0.08935546875,-1.0534351145038168,0.11450381679389313,-1.4351145038167938
7.2,0.072509765625,-0.98583984375,0.080810546875,-0.6870229007633588,-1.9541984732824427,-1.381679389312977
7.21,0.072021484375,-1.015380859375,0.075439453125,-0.16030534351145037,0.06870229007633588,-1.4122137404580153
7.22,0.071533203125,-0.99951171875,0.072021484375,0.3053435114503817,-0.16793893129770993,-1.3206106870229009
7.23,0.07080078125,-1.013671875,0.081787109375,0.007633587786259542,-0.22137404580152673,-1.4732824427480915
7.24,0.070068359375,-1.005615234375,0.0859375,-0.4198473282442748,0.10687022900763359,-1.3129770992366412
7.25,0.0703125,-0.998046875,0.08544921875,-0.8473282442748091,-0.19083969465648856,-1.465648854961832
7.26,0.068603515625,-1.00048828125,0.0791015625,-1.0229007633587786,-0.04580152671755725,-1.4351145038167938
7.27,0.072998046875,-0.99853515625,0.07861328125,-0.6335877862595419,-1.900763358778626,-1.4045801526717556
7.28,0.072021484375,-1.01513671875,0.07275390625,-0.04580152671755725,-0.16793893129770993,-1.4122137404580153
7.29,0.070068359375,-1.007568359375,0.08447265625,0.015267175572519083,-0.015267175572519083,-1.4885496183206106
7.3,0.073974609375,-1.01220703125,0.08203125,-0.04580152671755725,-0.183206106870229,-1.4198473282442747
7.31,0.0673828125,-1.00244140625,0.0693359375,-0.6564885496183206,-0.06870229007633588,-1.3129770992366412
7.32,0.073974609375,-1.002197265625,0.074951171875,-0.8320610687022901,-0.09923664122137404,-1.5648854961832062
7.33,0.069580078125,-1.00048828125,0.084716796875,-0.916030534351145,-0.09923664122137404,-1.3282442748091603
7.34,0.06787109375,-0.998291015625,0.069091796875,-0.7862595419847328,1.9389312977099236,-1.297709923664122
7.35,0.06689453125,-1.006591796875,0.079345703125,-0.31297709923664124,0.04580152671755725,-1.3053435114503817
7.36,0.06787109375,-1.001708984375,0.0908203125,0.10687022900763359,-1.9541984732824427,-1.4198473282442747
7.37,0.068359375,-0.98681640625,0.090576171875,1.9083969465648856,1.9312977099236641,-1.4274809160305344
7.38,0.076171875,-1.006591796875,0.081298828125,-0.08396946564885496,-0.19083969465648856,-1.3358778625954197
7.39,0.071044921875,-1.002197265625,0.087646484375,-0.7175572519083969,-0.1984732824427481,-1.5114503816793894
7.4,0.072509765625,-1.00244140625,0.078857421875,-0.9465648854961832,-1.9389312977099236,-1.297709923664122
7.41,0.07275390625,-1.002197265625,0.080078125,-0.8625954198473282,-0.06870229007633588,-1.450381679389313
7.42,0.069580078125,-1.002685546875,0.072021484375,-0.3511450381679389,-0.1297709923664122,-1.2061068702290076
7.43,0.075927734375,-1.00244140625,0.08154296875,-1.9312977099236641,-0.09923664122137404,-1.4198473282442747
7.44,0.077392578125,-1.005615234375,0.064453125,0.16793893129770993,0.11450381679389313,-1.5114503816793894
7.45,0.07421875,-1.004150390625,0.088623046875,-0.1450381679389313,-0.13740458015267176,-1.4198473282442747
7.46,0.073486328125,-0.999755859375,0.080810546875,-0.5038167938931297,1.9312977099236641,-1.534351145038168
7.47,0.06884765625,-1.003173828125,0.07373046875,-1.0381679389312977,0.05343511450381679,-1.2671755725190839
7.48,0.0712890625,-1.0048828125,0.085693359375,-0.8244274809160306,-0.17557251908396945,-1.465648854961832
7.49,0.07275390625,-0.998046875,0.077392578125,-0.3282442748091603,0.07633587786259542,-1.4580152671755726
7.5,0.069580078125,-1.01513671875,0.0751953125,-0.06870229007633588,0.061068702290076333,-1.6030534351145038
7.51,0.071044921875,-1.000244140625,0.09033203125,-0.21374045801526717,0.015267175572519083,-1.4580152671755726
7.52,0.066650390625,-1.00341796875,0.064208984375,-0.08396946564885496,-0.06870229007633588,-1.3740458015267176
7.53,0.072265625,-1.00244140625,0.082763671875,-0.5801526717557252,-0.16793893129770993,-1.4885496183206106
7.54,0.073974609375,-1.0068359375,0.093505859375,-0.7251908396946565,0.06870229007633588,-1.4732824427480915
7.55,0.072509765625,-1.00927734375,0.07958984375,-0.8854961832061069,0.03816793893129771,-1.381679389312977
7.56,0.077880859375,-0.996826171875,0.07177734375,-0.6641221374045801,-0.10687022900763359,-1.2366412213740459
7.57,0.067138671875,-1.005615234375,0.077392578125,-0.29770992366412213,0.17557251908396945,-1.4427480916030535
7.58,0.072998046875,-1.013916015625,0.081298828125,-0.2900763358778626,-0.07633587786259542,-1.2290076335877862
7.59,0.0693359375,-1.0068359375,0.079833984375,0.05343511450381679,-0.06870229007633588,-1.3435114503816794
7.6,0.074951171875,-1.0068359375,0.08935546875,-0.17557251908396945,0.015267175572519083,-1.4809160305343512
7.61,0.07470703125,-1.001220703125,0.085205078125,-0.5267175572519084,1.8854961832061068,-1.3587786259541985
7.62,0.069580078125,-1.006591796875,0.082763671875,-0.7251908396946565,0.1297709923664122,-1.2442748091603053
7.63,0.0693359375,-1.01171875,0.073974609375,-0.9007633587786259,1.9312977099236641,-1.4732824427480915
7.64,0.0712890625,-0.994140625,0.076416015625,-0.7557251908396947,0.061068702290076333,-1.2595419847328244
7.65,0.073486328125,-1.00048828125,0.07421875,-0.22137404580152673,-0.2366412213740458,-1.2748091603053435
7.66,0.076904296875,-0.9951171875,0.077880859375,0.4198473282442748,-0.1450381679389313,-1.4580152671755726
7.67,0.0732421875,-1.00390625,0.081787109375,1.900763358778626,-0.05343511450381679,-1.3358778625954197
7.68,0.06982421875,-1.008544921875,0.087158203125,-0.5954198473282443,-0.05343511450381679,-1.5725190839694656
7.69,0.072998046875,-0.99365234375,0.081787109375,-1.015267175572519,0.1984732824427481,-1.450381679389313
7.7,0.068603515625,-1.005615234375,0.07080078125,-0.9770992366412213,-1.9236641221374047,-1.3435114503816794
7.71,0.072509765625,-1.003662109375,0.07666015625,-0.42748091603053434,-0.15267175572519084,-1.0229007633587786
7.72,0.07373046875,-1.00390625,0.07177734375,-0.11450381679389313,1.9465648854961832,-1.5114503816793894
7.73,0.08203125,-0.986328125,0.07568359375,0.4122137404580153,-0.10687022900763359,-1.3435114503816794
7.74,0.0888671875,-1.005615234375,0.068115234375,0.13740458015267176,0.015267175572519083,-1.4809160305343512
7.75,0.073486328125,-1.00146484375,0.08984375,-0.549618320610687,0.15267175572519084,-1.2213740458015268
7.76,0.072021484375,-1.0,0.08203125,-0.9465648854961832,1.9465648854961832,-1.4351145038167938
7.77,0.0625,-1.006103515625,0.082763671875,-1.0687022900763359,0.06870229007633588,-1.4198473282442747
7.78,0.069580078125,-1.004638671875,0.07763671875,-1.0916030534351144,1.9236641221374047,-1.2366412213740459
7.79,0.075439453125,-1.006103515625,0.072265625,-0.5877862595419847,-0.183206106870229,-1.183206106870229
7.8,0.07470703125,-1.0029296875,0.08154296875,-0.015267175572519083,-0.13740458015267176,-1.5190839694656488
7.81,0.063232421875,-1.005126953125,0.09326171875,0.5419847328244275,-1.9236641221374047,-1.381679389312977
7.82,0.070068359375,-0.989501953125,0.08154296875,0.32061068702290074,0.061068702290076333,-1.4885496183206106
7.83,0.07275390625,-1.005615234375,0.0791015625,-0.42748091603053434,-0.03816793893129771,-1.4198473282442747
7.84,0.072021484375,-1.001708984375,0.07763671875,-1.2748091603053435,0.11450381679389313,-1.3893129770992367
7.85,0.068115234375,-1.002197265625,0.082763671875,-1.6412213740458015,-0.08396946564885496,-1.297709923664122
7.86,0.076904296875,-1.00732421875,0.075439453125,-1.0305343511450382,-0.1297709923664122,-1.3435114503816794
7.87,0.067626953125,-1.005126953125,0.072509765625,0.13740458015267176,-0.10687022900763359,-1.1908396946564885
7.88,0.0869140625,-1.005126953125,0.093505859375,0.6259541984732825,0.022900763358778626,-1.3206106870229009
7.89,0.068115234375,-1.00390625,0.081787109375,0.11450381679389313,1.9465648854961832,-1.3358778625954197
7.9,0.07177734375,-1.00146484375,0.086181640625,-0.6106870229007634,-0.07633587786259542,-1.4732824427480915
7.91,0.06982421875,-1.0009765625,0.0849609375,-1.0763358778625953,-0.03816793893129771,-1.4885496183206106
7.92,0.06982421875,-1.00537109375,0.08203125,-1.2213740458015268,-0.12213740458015267,-1.4198473282442747
7.93,0.070068359375,-1.000732421875,0.075439453125,-0.8091603053435115,-0.04580152671755725,-1.4809160305343512
7.94,0.06884765625,-1.0029296875,0.07861328125,-0.16793893129770993,-0.030534351145038167,-1.2290076335877862
7.95,0.076171875,-1.00341796875,0.077392578125,0.2595419847328244,-0.007633587786259542,-1.3053435114503817
7.96,0.0703125,-1.008056640625,0.08251953125,0.0916030534351145,-0.07633587786259542,-1.4732824427480915
7.97,0.0703125,-0.985595703125,0.086669921875,-0.20610687022900764,0.04580152671755725,-1.2900763358778626
7.98,0.0751953125,-1.006103515625,0.093505859375,-0.8091603053435115,-0.061068702290076333,-1.251908396946565
7.99,0.064697265625,-1.00244140625,0.07763671875,-1.0916030534351144,-0.06870229007633588,-1.5419847328244274
8.0,0.071533203125,-1.00830078125,0.085205078125,-0.9312977099236641,-0.11450381679389313,-1.3587786259541985
8.01,0.07666015625,-1.00732421875,0.073486328125,-0.3969465648854962,-1.916030534351145,-1.297709923664122
8.02,0.072998046875,-0.98828125,0.083740234375,0.1297709923664122,-0.04580152671755725,-1.3282442748091603
8.03,0.068359375,-1.01318359375,0.079833984375,0.22137404580152673,-0.10687022900763359,-1.3053435114503817
8.04,0.07080078125,-1.0,0.08984375,-0.366412213740458,-0.17557251908396945,-1.3358778625954197
8.05,0.073974609375,-0.99755859375,0.080322265625,-0.7862595419847328,0.0,-1.282442748091603
8.06,0.0732421875,-1.001953125,0.0810546875,-1.2442748091603053,1.9389312977099236,-1.4274809160305344
8.07,0.06884765625,-1.0087890625,0.080810546875,-0.916030534351145,-0.05343511450381679,-1.381679389312977
8.08,0.0703125,-0.99462890625,0.071533203125,-0.3435114503816794,1.9389312977099236,-1.3053435114503817
8.09,0.06884765625,-1.0009765625,0.067626953125,0.31297709923664124,-0.1984732824427481,-1.4274809160305344
8.1,0.072265625,-0.98583984375,0.07861328125,0.45038167938931295,0.11450381679389313,-1.3435114503816794
8.11,0.072509765625,-1.005615234375,0.085693359375,0.03816793893129771,-1.9389312977099236,-1.3893129770992367
8.12,0.073974609375,-1.00146484375,0.07470703125,-0.9465648854961832,0.10687022900763359,-1.4732824427480915
8.13,0.068603515625,-1.001953125,0.067138671875,-1.3053435114503817,-0.08396946564885496,-1.1603053435114503
8.14,0.069580078125,-1.002197265625,0.07958984375,-1.183206106870229,-0.13740458015267176,-1.2671755725190839
8.15,0.060546875,-1.002685546875,0.064697265625,-0.4198473282442748,0.030534351145038167,-1.4198473282442747
8.16,0.0712890625,-1.0068359375,0.07373046875,0.2366412213740458,0.12213740458015267,-1.4580152671755726
8.17,0.0703125,-0.988037109375,0.0791015625,0.5725190839694656,0.09923664122137404,-1.3282442748091603
8.18,0.074462890625,-1.00146484375,0.082763671875,0.061068702290076333,-0.09923664122137404,-1.2748091603053435
8.19,0.068603515625,-1.001220703125,0.0810546875,-0.7709923664122137,0.04580152671755725,-1.3358778625954197
8.2,0.069580078125,-1.0087890625,0.086181640625,-1.1755725190839694,-0.05343511450381679,-1.3740458015267176
8.21,0.062744140625,-1.003173828125,0.083251953125,-1.2671755725190839,-0.061068702290076333,-1.381679389312977
8.22,0.067138671875,-1.00341796875,0.074462890625,-0.8778625954198473,-0.05343511450381679,-1.3206106870229009
8.23,0.071044921875,-1.002685546875,0.076904296875,-0.16793893129770993,-0.022900763358778626,-1.3129770992366412
8.24,0.070556640625,-1.00390625,0.07275390625,0.2366412213740458,-1.8702290076335877,-1.3206106870229009
8.25,0.068359375,-1.0048828125,0.06689453125,0.40458015267175573,-0.183206106870229,-1.2442748091603053
8.26,0.071044921875,-0.99853515625,0.08447265625,0.0916030534351145,-0.10687022900763359,-1.4045801526717556
8.27,0.071044921875,-1.005126953125,0.0908203125,-0.5343511450381679,-0.16030534351145037,-1.2595419847328244
8.28,0.072265625,-1.00341796875,0.083740234375,-0.8702290076335878,-0.1297709923664122,-1.4274809160305344
8.29,0.070068359375,-1.0,0.07568359375,-1.0076335877862594,-1.9541984732824427,-1.3435114503816794
8.3,0.072021484375,-1.000732421875,0.081298828125,-0.7709923664122137,1.8702290076335877,-1.3129770992366412
8.31,0.074462890625,-1.004638671875,0.075439453125,0.06870229007633588,-0.06870229007633588,-1.3053435114503817
8.32,0.07373046875,-1.0146484375,0.076416015625,0.33587786259541985,-0.2595419847328244,-1.2748091603053435
8.33,0.068359375,-1.004638671875,0.0859375,0.35877862595419846,-0.1984732824427481,-1.4198473282442747
8.34,0.076171875,-1.000244140625,0.0888671875,-0.549618320610687,0.061068702290076333,-1.366412213740458
8.35,0.068603515625,-1.00341796875,0.084716796875,-1.3587786259541985,-0.1450381679389313,-1.4198473282442747
8.36,0.07666015625,-1.0029296875,0.08251953125,-1.633587786259542,1.9083969465648856,-1.4580152671755726
8.37,0.0732421875,-0.997802734375,0.068115234375,-1.183206106870229,1.9312977099236641,-1.381679389312977
8.38,0.066162109375,-1.00830078125,0.071533203125,0.42748091603053434,0.08396946564885496,-1.4198473282442747
8.39,0.07763671875,-1.000732421875,0.0859375,1.5648854961832062,0.0,-1.5267175572519085
8.4,0.0751953125,-1.00341796875,0.082275390625,1.251908396946565,0.08396946564885496,-1.3511450381679388
8.41,0.073974609375,-1.000244140625,0.096435546875,-0.26717557251908397,-0.22137404580152673,-1.3740458015267176
8.42,0.0712890625,-1.002685546875,0.082275390625,-2.0076335877862594,-0.06870229007633588,-1.0687022900763359
8.43,0.0693359375,-1.001220703125,0.081298828125,-2.0381679389312977,-0.22900763358778625,-1.4198473282442747
8.44,0.073486328125,-1.005615234375,0.077880859375,-1.549618320610687,-0.007633587786259542,-1.4580152671755726
8.45,0.068603515625,-1.003662109375,0.072021484375,-0.2366412213740458,0.022900763358778626,-1.381679389312977
8.46,0.083251953125,-1.00732421875,0.0654296875,0.6641221374045801,-0.21374045801526717,-1.5038167938931297
8.47,0.072021484375,-0.99072265625,0.08544921875,1.1145038167938932,0.20610687022900764,-1.4198473282442747
8.48,0.071533203125,-1.00341796875,0.080810546875,0.6259541984732825,0.15267175572519084,-1.4580152671755726
8.49,0.078125,-1.002197265625,0.08984375,-0.6183206106870229,1.900763358778626,-1.2366412213740459
8.5,0.069580078125,-0.99609375,0.084228515625,-1.4045801526717556,1.9312977099236641,-1.3435114503816794
8.51,0.06884765625,-1.008544921875,0.0830078125,-3.8473282442748094,-0.007633587786259542,-1.3282442748091603
8.52,0.069580078125,-0.99560546875,0.072265625,-1.6412213740458015,0.030534351145038167,-1.4732824427480915
8.53,0.07470703125,-1.002197265625,0.065673828125,-0.5877862595419847,0.1450381679389313,-1.3206106870229009
8.54,0.076416015625,-1.00439453125,0.072509765625,0.7022900763358778,0.03816793893129771,-1.3435114503816794
8.55,0.07275390625,-0.996826171875,0.07080078125,0.732824427480916,0.03816793893129771,-1.4427480916030535
8.56,0.072509765625,-1.015380859375,0.088623046875,0.6412213740458015,-0.030534351145038167,-1.3893129770992367
8.57,0.0703125,-1.003173828125,0.08203125,-0.3969465648854962,0.03816793893129771,-1.534351145038168
8.58,0.068359375,-0.998291015625,0.08642578125,-1.4198473282442747,-0.03816793893129771,-1.2595419847328244
8.59,0.065185546875,-1.00439453125,0.080322265625,-1.7938931297709924,-0.09923664122137404,-1.3053435114503817
8.6,0.068359375,-1.002197265625,0.07080078125,-1.1374045801526718,-1.9083969465648856,-1.381679389312977
8.61,0.06982421875,-1.005615234375,0.07421875,-0.5419847328244275,-0.13740458015267176,-1.2900763358778626
8.62,0.068603515625,-1.001708984375,0.0703125,0.2824427480916031,-1.9541984732824427,-1.2671755725190839
8.63,0.067138671875,-1.0009765625,0.064208984375,0.6183206106870229,-0.13740458015267176,-1.3893129770992367
8.64,0.0703125,-1.00634765625,0.081298828125,1.9083969465648856,-0.12213740458015267,-1.366412213740458
8.65,0.07177734375,-1.00830078125,0.089111328125,-0.5190839694656488,0.13740458015267176,-1.297709923664122
8.66,0.0751953125,-1.001953125,0.0888671875,-0.9083969465648855,-0.12213740458015267,-1.465648854961832
8.67,0.068115234375,-1.002197265625,0.0849609375,-1.083969465648855,-0.06870229007633588,-1.3511450381679388
8.68,0.075439453125,-1.012939453125,0.07470703125,-0.8549618320610687,-0.04580152671755725,-1.3206106870229009
8.69,0.072509765625,-1.002685546875,0.0732421875,-0.3893129770992366,0.04580152671755725,-1.251908396946565
8.7,0.0703125,-1.005126953125,0.06689453125,0.1297709923664122,-0.08396946564885496,-1.5725190839694656
8.71,0.071044921875,-1.010498046875,0.078125,0.5419847328244275,-0.10687022900763359,-1.3893129770992367
8.72,0.063232421875,-1.010986328125,0.077880859375,-0.16030534351145037,-0.13740458015267176,-1.4961832061068703
8.73,0.072509765625,-0.998779296875,0.091064453125,-0.549618320610687,-0.09923664122137404,-1.465648854961832
8.74,0.075439453125,-0.99853515625,0.078857421875,-0.7557251908396947,-0.13740458015267176,-1.4198473282442747
8.75,0.066650390625,-0.9990234375,0.08203125,-0.8015267175572519,-0.04580152671755725,-1.3969465648854962
8.76,0.068359375,-0.985595703125,0.087158203125,-0.4732824427480916,0.15267175572519084,-1.3053435114503817
8.77,0.066650390625,-1.00390625,0.083740234375,-0.06870229007633588,-0.19083969465648856,-1.5267175572519085
8.78,0.0732421875,-1.014892578125,0.082763671875,0.1450381679389313,-0.10687022900763359,-1.534351145038168
8.79,0.071533203125,-1.00439453125,0.09130859375,-0.2900763358778626,-0.07633587786259542,-1.4122137404580153
8.8,0.072265625,-1.00439453125,0.079345703125,-0.6793893129770993,0.12213740458015267,-1.4122137404580153
8.81,0.068359375,-0.99853515625,0.087646484375,-0.8320610687022901,-0.21374045801526717,-1.3282442748091603
8.82,0.0673828125,-1.00146484375,0.074462890625,-0.7557251908396947,-0.05343511450381679,-1.4427480916030535
8.83,0.06591796875,-1.00341796875,0.08349609375,-0.37404580152671757,-0.09923664122137404,-1.381679389312977
8.84,0.0732421875,-1.00244140625,0.066650390625,-0.10687022900763359,-0.09923664122137404,-1.4274809160305344
8.85,0.068359375,-1.00439453125,0.082275390625,-0.22900763358778625,-0.1297709923664122,-1.282442748091603
8.86,0.0712890625,-0.99853515625,0.086669921875,-0.3282442748091603,0.030534351145038167,-1.2442748091603053
8.87,0.0771484375,-0.999755859375,0.088134765625,-0.6870229007633588,-0.0916030534351145,-1.4122137404580153
8.88,0.068115234375,-0.997314453125,0.074951171875,-0.8473282442748091,0.09923664122137404,-1.3893129770992367
8.89,0.072021484375,-1.010986328125,0.080810546875,-0.7557251908396947,-0.09923664122137404,-1.2213740458015268
8.9,0.07080078125,-1.005615234375,0.07177734375,-0.549618320610687,-0.15267175572519084,-1.4580152671755726
8.91,0.068359375,-1.0029296875,0.068603515625,-0.29770992366412213,-0.030534351145038167,-1.3206106870229009
8.92,0.0654296875,-1.01513671875,0.063720703125,0.21374045801526717,1.83206106870229,-1.2442748091603053
8.93,0.0712890625,-1.008544921875,0.091064453125,-0.21374045801526717,-0.03816793893129771,-1.5114503816793894
8.94,0.07275390625,-1.0009765625,0.083740234375,-0.5267175572519084,0.08396946564885496,-1.4809160305343512
8.95,0.07177734375,-1.006103515625,0.0849609375,-0.9312977099236641,-1.9541984732824427,-1.3282442748091603
8.96,0.071044921875,-1.0029296875,0.079345703125,-0.9923664122137404,0.03816793893129771,-1.3206106870229009
8.97,0.074462890625,-1.001220703125,0.078125,-0.7709923664122137,0.12213740458015267,-1.4274809160305344
8.98,0.07470703125,-0.989013671875,0.080810546875,-0.2366412213740458,-0.15267175572519084,-1.3282442748091603
8.99,0.06884765625,-1.01513671875,0.09130859375,-0.24427480916030533,0.05343511450381679,-1.4122137404580153
9.0,0.07177734375,-1.004150390625,0.0625,-0.1450381679389313,0.09923664122137404,-1.5725190839694656
9.01,0.0712890625,-1.00634765625,0.087646484375,-0.3435114503816794,-0.11450381679389313,-1.4961832061068703
9.02,0.07470703125,-1.005126953125,0.07568359375,-0.7099236641221374,-0.022900763358778626,-1.4045801526717556
9.03,0.069091796875,-1.001953125,0.07568359375,-0.5725190839694656,0.22137404580152673,-1.381679389312977
9.04,0.077392578125,-1.0029296875,0.07470703125,-0.2595419847328244,-0.15267175572519084,-1.297709923664122
9.05,0.055419921875,-1.00439453125,0.07666015625,-0.5725190839694656,-0.20610687022900764,-1.297709923664122
9.06,0.067626953125,-1.01416015625,0.082275390625,-0.6106870229007634,0.04580152671755725,-1.6030534351145038
9.07,0.06787109375,-1.0087890625,0.0859375,-0.45038167938931295,-0.09923664122137404,-1.251908396946565
9.08,0.070068359375,-1.002197265625,0.07421875,-0.33587786259541985,-0.015267175572519083,-1.3282442748091603
9.09,0.07275390625,-1.003662109375,0.074951171875,-0.25190839694656486,-0.1297709923664122,-1.4351145038167938
9.1,0.073486328125,-1.002197265625,0.07958984375,-0.31297709923664124,-0.10687022900763359,-1.2595419847328244
9.11,0.069580078125,-1.00341796875,0.082763671875,-0.5877862595419847,-0.12213740458015267,-1.1755725190839694
9.12,0.070556640625,-1.004638671875,0.086181640625,-0.7862595419847328,-0.15267175572519084,-1.3969465648854962
9.13,0.066162109375,-1.00537109375,0.068603515625,-0.5954198473282443,-0.10687022900763359,-1.3587786259541985
9.14,0.065185546875,-1.00634765625,0.078857421875,-0.6335877862595419,0.183206106870229,-1.282442748091603
9.15,0.066162109375,-1.000244140625,0.06494140625,-0.6335877862595419,-0.08396946564885496,-1.3206106870229009
9.16,0.06787109375,-0.999755859375,0.08251953125,-0.5038167938931297,-0.2366412213740458,-1.4351145038167938
9.17,0.065185546875,-1.00146484375,0.070068359375,-0.2900763358778626,0.15267175572519084,-1.381679389312977
9.18,0.0693359375,-1.002197265625,0.068115234375,-0.1450381679389313,-0.1297709923664122,-1.2748091603053435
9.19,0.075927734375,-1.00439453125,0.08154296875,-0.21374045801526717,0.10687022900763359,-1.2290076335877862
9.2,0.06982421875,-1.000244140625,0.092041015625,-0.5801526717557252,0.007633587786259542,-1.4427480916030535
9.21,0.067138671875,-1.0009765625,0.088134765625,-0.6793893129770993,0.07633587786259542,-1.549618320610687
9.22,0.070068359375,-1.007080078125,0.092529296875,-1.0610687022900764,0.0916030534351145,-1.465648854961832
9.23,0.072998046875,-0.99853515625,0.07421875,-0.4122137404580153,-0.0916030534351145,-1.3129770992366412
9.24,0.07177734375,-1.0087890625,0.079345703125,-0.32061068702290074,-0.015267175572519083,-1.450381679389313
9.25,0.072509765625,-1.000244140625,0.08056640625,-0.1297709923664122,-0.09923664122137404,-1.4198473282442747
9.26,0.06689453125,-0.994140625,0.083740234375,-0.08396946564885496,-0.11450381679389313,-1.3969465648854962
9.27,0.069091796875,-1.00439453125,0.07861328125,-0.37404580152671757,-0.08396946564885496,-1.4274809160305344
9.28,0.076171875,-1.011474609375,0.09130859375,-0.9236641221374046,1.9312977099236641,-1.3435114503816794
9.29,0.06982421875,-1.01123046875,0.064453125,-0.9694656488549618,-0.20610687022900764,-1.4198473282442747
9.3,0.068115234375,-1.004150390625,0.0732421875,-0.5419847328244275,0.04580152671755725,-1.381679389312977
9.31,0.06494140625,-1.000732421875,0.07958984375,-0.26717557251908397,1.9389312977099236,-1.2900763358778626
9.32,0.073486328125,-1.011474609375,0.080322265625,0.04580152671755725,0.06870229007633588,-1.1984732824427482
9.33,0.073974609375,-0.997314453125,0.085205078125,0.12213740458015267,-0.183206106870229,-1.282442748091603
9.34,0.071533203125,-1.00439453125,0.08935546875,-0.366412213740458,-0.09923664122137404,-1.5190839694656488
9.35,0.070068359375,-1.00537109375,0.08642578125,-0.6946564885496184,1.8473282442748091,-1.2595419847328244
9.36,0.07275390625,-1.006103515625,0.072509765625,-1.0076335877862594,-0.17557251908396945,-1.4351145038167938
9.37,0.068359375,-0.99658203125,0.066162109375,-0.7404580152671756,0.12213740458015267,-1.251908396946565
9.38,0.073974609375,-1.00927734375,0.091064453125,-0.1297709923664122,0.10687022900763359,-1.5877862595419847
9.39,0.068603515625,-1.0048828125,0.071533203125,0.11450381679389313,-1.916030534351145,-1.465648854961832
9.4,0.072021484375,-1.00390625,0.08154296875,-0.061068702290076333,-0.1984732824427481,-1.465648854961832
9.41,0.064697265625,-1.005126953125,0.07958984375,-0.3893129770992366,-0.24427480916030533,-1.4351145038167938
9.42,0.06689453125,-1.00244140625,0.08642578125,-1.0076335877862594,0.03816793893129771,-1.2748091603053435
9.43,0.0703125,-1.0068359375,0.084716796875,-1.366412213740458,1.916030534351145,-1.3206106870229009
9.44,0.07080078125,-1.005126953125,0.090576171875,-0.9389312977099237,-0.20610687022900764,-1.5114503816793894
9.45,0.064697265625,-1.007568359375,0.07470703125,-0.022900763358778626,0.007633587786259542,-1.3053435114503817
9.46,0.072509765625,-1.002685546875,0.077880859375,0.22900763358778625,0.25190839694656486,-1.3969465648854962
9.47,0.066162109375,-1.00244140625,0.0830078125,0.5038167938931297,0.06870229007633588,-1.3969465648854962
9.48,0.076904296875,-1.000244140625,0.085693359375,0.19083969465648856,-0.0916030534351145,-1.3587786259541985
9.49,0.068603515625,-1.003662109375,0.091552734375,-1.0687022900763359,-0.1984732824427481,-1.083969465648855
9.5,0.072509765625,-1.005859375,0.0634765625,-1.5419847328244274,-0.07633587786259542,-1.3587786259541985
9.51,0.076171875,-1.004638671875,0.092041015625,-1.3282442748091603,-0.1450381679389313,-1.3053435114503817
9.52,0.073486328125,-1.00390625,0.068603515625,-0.8473282442748091,1.8931297709923665,-1.5038167938931297
9.53,0.06640625,-1.000244140625,0.08154296875,0.06870229007633588,0.1297709923664122,-1.5114503816793894
9.54,0.072509765625,-1.0029296875,0.0810546875,0.5343511450381679,-1.9083969465648856,-1.4351145038167938
9.55,0.070556640625,-1.00390625,0.081787109375,0.37404580152671757,-0.16793893129770993,-1.2900763358778626
9.56,0.07373046875,-1.00244140625,0.0869140625,-0.40458015267175573,-0.10687022900763359,-1.4809160305343512
9.57,0.074951171875,-1.000244140625,0.08447265625,-1.1221374045801527,-0.11450381679389313,-1.366412213740458
9.58,0.0751953125,-1.005126953125,0.0849609375,-1.1526717557251909,-0.05343511450381679,-1.3740458015267176
9.59,0.06982421875,-1.0009765625,0.072021484375,-0.8015267175572519,-0.19083969465648856,-1.282442748091603
9.6,0.07177734375,-0.99755859375,0.074462890625,-0.48091603053435117,1.8778625954198473,-1.3740458015267176
9.61,0.069580078125,-1.005126953125,0.076416015625,-0.007633587786259542,-0.183206106870229,-1.3358778625954197
9.62,0.06982421875,-1.002685546875,0.07763671875,0.33587786259541985,0.09923664122137404,-1.534351145038168
9.63,0.07666015625,-1.008056640625,0.087890625,-0.21374045801526717,-0.015267175572519083,-1.4274809160305344
9.64,0.076171875,-1.000732421875,0.087890625,-0.4961832061068702,0.06870229007633588,-1.4274809160305344
9.65,0.064453125,-0.9990234375,0.0791015625,-0.9541984732824428,0.030534351145038167,-1.2366412213740459
9.66,0.06640625,-1.001708984375,0.080810546875,-1.0458015267175573,-0.1450381679389313,-1.4122137404580153
9.67,0.06787109375,-1.001953125,0.07177734375,-0.7404580152671756,-0.06870229007633588,-1.4809160305343512
9.68,0.071533203125,-1.00244140625,0.08544921875,-1.9541984732824427,-0.022900763358778626,-1.4351145038167938
9.69,0.07373046875,-1.007080078125,0.082763671875,0.3053435114503817,-1.9541984732824427,-1.2213740458015268
9.7,0.070556640625,-1.005859375,0.08056640625,-0.09923664122137404,-0.030534351145038167,-1.3053435114503817
9.71,0.069580078125,-0.998779296875,0.0859375,-0.4122137404580153,-0.022900763358778626,-1.2671755725190839
9.72,0.074951171875,-1.00390625,0.062744140625,-0.6870229007633588,-0.030534351145038167,-1.3129770992366412
9.73,0.074462890625,-1.002197265625,0.078125,-0.8625954198473282,-0.3053435114503817,-1.3358778625954197
9.74,0.07080078125,-1.00390625,0.07861328125,-0.6793893129770993,-0.06870229007633588,-1.4427480916030535
9.75,0.06787109375,-1.004150390625,0.0869140625,-0.3282442748091603,-0.04580152671755725,-1.3969465648854962
9.76,0.0751953125,-1.004150390625,0.086181640625,-0.16030534351145037,0.007633587786259542,-1.450381679389313
9.77,0.07568359375,-1.0078125,0.080810546875,-0.33587786259541985,0.1450381679389313,-1.3282442748091603
9.78,0.07275390625,-1.005126953125,0.0732421875,-0.2748091603053435,-0.12213740458015267,-1.366412213740458
9.79,0.072998046875,-1.01513671875,0.0810546875,-0.7480916030534351,-0.15267175572519084,-1.4045801526717556
9.8,0.0732421875,-0.99755859375,0.06640625,-0.5877862595419847,-0.0916030534351145,-1.5038167938931297
9.81,0.069091796875,-1.001953125,0.073486328125,-0.5954198473282443,0.06870229007633588,-1.4198473282442747
9.82,0.073974609375,-1.005859375,0.084716796875,-0.7251908396946565,-0.0916030534351145,-1.450381679389313
9.83,0.070068359375,-1.007568359375,0.078369140625,-0.29770992366412213,-0.1984732824427481,-1.5190839694656488
9.84,0.07275390625,-1.003173828125,0.078369140625,-0.21374045801526717,-1.900763358778626,-1.450381679389313
9.85,0.072021484375,-0.99853515625,0.076904296875,-0.061068702290076333,-0.022900763358778626,-1.5114503816793894
9.86,0.0703125,-1.00927734375,0.08349609375,-0.17557251908396945,-1.9083969465648856,-1.3435114503816794
9.87,0.067626953125,-1.003173828125,0.084228515625,-0.5343511450381679,-0.16030534351145037,-1.251908396946565
9.88,0.07177734375,-1.014892578125,0.08349609375,-0.6259541984732825,-0.04580152671755725,-1.297709923664122
9.89,0.072265625,-1.010498046875,0.0927734375,-0.5648854961832062,0.04580152671755725,-1.3129770992366412
9.9,0.070068359375,-1.002197265625,0.07470703125,-0.3893129770992366,0.09923664122137404,-1.4045801526717556
9.91,0.077880859375,-1.007568359375,0.08203125,-0.40458015267175573,0.007633587786259542,-1.4885496183206106
9.92,0.07470703125,-1.005615234375,0.0869140625,-0.37404580152671757,0.10687022900763359,-1.3206106870229009
9.93,0.0751953125,-1.0048828125,0.072265625,-0.2366412213740458,-0.007633587786259542,-1.3893129770992367
9.94,0.07275390625,-1.007080078125,0.074462890625,-0.10687022900763359,-0.015267175572519083,-1.3740458015267176
9.95,0.0751953125,-1.0029296875,0.08154296875,-0.5725190839694656,-0.07633587786259542,-1.5190839694656488
9.96,0.071533203125,-1.015625,0.092529296875,-0.6946564885496184,-1.9312977099236641,-1.4045801526717556
9.97,0.07373046875,-1.006103515625,0.07861328125,-0.6641221374045801,-1.8244274809160306,-1.5114503816793894
9.98,0.074951171875,-1.001708984375,0.075927734375,-0.6259541984732825,-0.1297709923664122,-1.3511450381679388
9.99,0.06884765625,-1.005615234375,0.076904296875,-0.366412213740458,0.04580152671755725,-1.465648854961832
10.0,0.065673828125,-1.001220703125,0.0849609375,-0.3511450381679389,-0.07633587786259542,-1.4732824427480915
10.01,0.06884765625,-1.000244140625,0.0654296875,-0.44274809160305345,0.16793893129770993,-1.5038167938931297
10.02,0.074462890625,-1.001220703125,0.079833984375,-0.7709923664122137,-0.11450381679389313,-1.2213740458015268
10.03,0.07080078125,-0.987060546875,0.080078125,-0.5419847328244275,-1.9083969465648856,-1.3053435114503817
10.04,0.069091796875,-1.005859375,0.066162109375,-0.648854961832061,-0.03816793893129771,-1.4122137404580153
10.05,0.071533203125,-1.0009765625,0.0810546875,-0.45038167938931295,-0.16030534351145037,-1.381679389312977
10.06,0.069580078125,-1.001708984375,0.077880859375,-0.45038167938931295,1.9465648854961832,-1.2748091603053435
10.07,0.071044921875,-1.002197265625,0.0908203125,-0.29770992366412213,0.007633587786259542,-1.4427480916030535
10.08,0.072998046875,-1.00341796875,0.0791015625,-0.5038167938931297,-0.11450381679389313,-1.4274809160305344
10.09,0.0712890625,-1.001220703125,0.080810546875,-0.13740458015267176,-0.13740458015267176,-1.3511450381679388
10.1,0.074951171875,-1.00244140625,0.080810546875,-0.29770992366412213,-0.16793893129770993,-1.4732824427480915
10.11,0.068359375,-1.00390625,0.067138671875,-0.5801526717557252,-1.9236641221374047,-1.4122137404580153
10.12,0.07470703125,-1.01220703125,0.08447265625,-0.3816793893129771,-0.07633587786259542,-1.297709923664122
10.13,0.06884765625,-1.001953125,0.07666015625,-0.549618320610687,-0.16030534351145037,-1.3282442748091603
10.14,0.0712890625,-0.99951171875,0.082763671875,-0.3816793893129771,-0.13740458015267176,-1.450381679389313
10.15,0.07080078125,-1.006103515625,0.08544921875,-0.42748091603053434,0.183206106870229,-1.2595419847328244
10.16,0.0703125,-1.005615234375,0.086181640625,-0.21374045801526717,-0.10687022900763359,-1.3053435114503817
10.17,0.0693359375,-1.007080078125,0.085693359375,-0.4580152671755725,-0.1450381679389313,-1.2748091603053435
10.18,0.071533203125,-1.001953125,0.08251953125,-0.5267175572519084,-1.9541984732824427,-1.2671755725190839
10.19,0.067626953125,-1.001220703125,0.078369140625,-0.6641221374045801,0.19083969465648856,-1.4274809160305344
10.2,0.068603515625,-1.0,0.07373046875,-0.5648854961832062,0.20610687022900764,-1.251908396946565
10.21,0.069091796875,-1.005615234375,0.076171875,-0.5419847328244275,0.08396946564885496,-1.4045801526717556
10.22,0.06591796875,-1.0,0.078125,-0.3053435114503817,-0.061068702290076333,-1.3282442748091603
10.23,0.06689453125,-1.000732421875,0.08154296875,-0.21374045801526717,-0.05343511450381679,-1.3053435114503817
10.24,0.067138671875,-1.009033203125,0.0830078125,1.8549618320610688,0.03816793893129771,-1.5648854961832062
10.25,0.0703125,-0.989990234375,0.082275390625,-0.3816793893129771,-0.10687022900763359,-1.3511450381679388
10.26,0.0751953125,-1.0,0.0830078125,-0.6335877862595419,-0.05343511450381679,-1.4122137404580153
10.27,0.068359375,-1.001953125,0.0771484375,-0.8931297709923665,-0.21374045801526717,-1.3969465648854962
10.28,0.0712890625,-1.004638671875,0.079833984375,-0.48091603053435117,0.0,-1.381679389312977
10.29,0.07275390625,-1.0078125,0.0791015625,-0.2900763358778626,-0.007633587786259542,-1.366412213740458
10.3,0.063720703125,-1.01318359375,0.075927734375,-0.16030534351145037,0.13740458015267176,-1.4274809160305344
10.31,0.068603515625,-0.9892578125,0.080078125,-0.04580152671755725,1.8854961832061068,-1.3893129770992367
10.32,0.068603515625,-0.99072265625,0.07568359375,-0.20610687022900764,-0.22137404580152673,-1.4198473282442747
10.33,0.0751953125,-1.0029296875,0.079833984375,-0.5801526717557252,-0.022900763358778626,-1.4580152671755726
10.34,0.063720703125,-1.005126953125,0.078125,-0.732824427480916,-0.26717557251908397,-1.2213740458015268
10.35,0.070068359375,-1.00244140625,0.072509765625,-0.8091603053435115,0.0,-1.3435114503816794
10.36,0.071533203125,-1.00439453125,0.083984375,-0.4351145038167939,-0.07633587786259542,-1.3435114503816794
10.37,0.068603515625,-1.009765625,0.079833984375,-0.24427480916030533,-0.061068702290076333,-1.4198473282442747
10.38,0.069091796875,-1.0029296875,0.080810546875,1.8854961832061068,-0.03816793893129771,-1.5038167938931297
10.39,0.069091796875,-0.986328125,0.08447265625,-1.916030534351145,0.07633587786259542,-1.3740458015267176
10.4,0.067138671875,-1.0048828125,0.083740234375,-0.2824427480916031,-0.16030534351145037,-1.381679389312977
10.41,0.0693359375,-1.001708984375,0.086669921875,-0.8549618320610687,-0.1297709923664122,-1.3358778625954197
10.42,0.068359375,-1.0078125,0.072998046875,-0.9847328244274809,-0.061068702290076333,-1.2290076335877862
10.43,0.072265625,-0.999267578125,0.070068359375,-0.8702290076335878,0.09923664122137404,-1.3358778625954197
10.44,0.071044921875,-1.006103515625,0.07763671875,-0.5572519083969466,-0.13740458015267176,-1.4427480916030535
10.45,0.071533203125,-1.004638671875,0.072998046875,-0.13740458015267176,-0.1450381679389313,-1.4351145038167938
10.46,0.06982421875,-0.985107421875,0.092529296875,0.16793893129770993,-0.16793893129770993,-1.1755725190839694
10.47,0.07568359375,-1.0048828125,0.07958984375,-0.11450381679389313,0.2595419847328244,-1.4351145038167938
10.48,0.070556640625,-1.001953125,0.0791015625,-0.5648854961832062,0.007633587786259542,-1.3129770992366412
10.49,0.072998046875,-1.0048828125,0.0810546875,-0.8702290076335878,0.03816793893129771,-1.251908396946565
10.5,0.06982421875,-1.001220703125,0.081787109375,-0.7633587786259542,0.06870229007633588,-1.5114503816793894
10.51,0.075439453125,-1.002685546875,0.07666015625,-0.6106870229007634,0.12213740458015267,-1.2671755725190839
10.52,0.0693359375,-1.006103515625,0.0830078125,-0.37404580152671757,-0.03816793893129771,-1.4045801526717556
10.53,0.07080078125,-1.00830078125,0.080322265625,-0.22900763358778625,0.13740458015267176,-1.3206106870229009
10.54,0.0751953125,-1.013916015625,0.078369140625,-0.10687022900763359,0.0,-1.4274809160305344
10.55,0.07080078125,-0.99951171875,0.070556640625,-0.2748091603053435,-0.13740458015267176,-1.3129770992366412
10.56,0.068359375,-0.997314453125,0.0908203125,-0.7251908396946565,-0.24427480916030533,-1.3129770992366412
10.57,0.0693359375,-1.00537109375,0.08056640625,-0.8320610687022901,-0.04580152671755725,-1.4198473282442747
10.58,0.06884765625,-1.00146484375,0.085205078125,-0.5572519083969466,0.0916030534351145,-1.3587786259541985
10.59,0.070068359375,-1.00439453125,0.079345703125,-0.48854961832061067,-0.11450381679389313,-1.4961832061068703
10.6,0.0654296875,-1.013671875,0.080810546875,0.04580152671755725,0.13740458015267176,-1.4580152671755726
10.61,0.08935546875,-0.984619140625,0.087158203125,-0.03816793893129771,-0.13740458015267176,-1.5419847328244274
10.62,0.07568359375,-1.002685546875,0.086181640625,-0.3282442748091603,0.015267175572519083,-1.450381679389313
10.63,0.06982421875,-0.9990234375,0.07763671875,-0.648854961832061,0.05343511450381679,-1.2595419847328244
10.64,0.073974609375,-1.000732421875,0.089599609375,-0.8244274809160306,1.8473282442748091,-1.3435114503816794
10.65,0.07421875,-1.00390625,0.077392578125,-0.8625954198473282,0.03816793893129771,-1.3358778625954197
10.66,0.0693359375,-1.007080078125,0.08349609375,-0.6106870229007634,-0.33587786259541985,-1.3206106870229009
10.67,0.0693359375,-1.014892578125,0.08203125,-0.04580152671755725,-0.10687022900763359,-1.3129770992366412
10.68,0.070556640625,-0.98876953125,0.063232421875,0.030534351145038167,-0.06870229007633588,-1.4809160305343512
10.69,0.07373046875,-1.00634765625,0.090576171875,-0.05343511450381679,-0.030534351145038167,-1.3358778625954197
10.7,0.0693359375,-1.005615234375,0.08203125,-0.48091603053435117,0.04580152671755725,-1.4198473282442747
10.71,0.06982421875,-1.002685546875,0.086669921875,-0.8473282442748091,-0.0916030534351145,-1.4809160305343512
10.72,0.072265625,-1.00732421875,0.086669921875,-1.015267175572519,-0.09923664122137404,-1.465648854961832
10.73,0.0703125,-1.005615234375,0.072265625,-0.44274809160305345,0.030534351145038167,-1.3435114503816794
10.74,0.073486328125,-0.98681640625,0.074462890625,0.11450381679389313,0.05343511450381679,-1.366412213740458
10.75,0.07470703125,-1.003173828125,0.0712890625,0.1984732824427481,0.061068702290076333,-1.4198473282442747
10.76,0.0693359375,-1.004150390625,0.086669921875,0.015267175572519083,-0.0916030534351145,-1.5419847328244274
10.77,0.071044921875,-1.0029296875,0.0830078125,-0.37404580152671757,0.1450381679389313,-1.4045801526717556
10.78,0.06982421875,-1.00634765625,0.081298828125,-0.8396946564885496,0.030534351145038167,-1.450381679389313
10.79,0.066162109375,-0.998291015625,0.088623046875,-0.9923664122137404,-0.183206106870229,-1.1755725190839694
10.8,0.064208984375,-1.004150390625,0.077392578125,-0.7099236641221374,0.0,-1.366412213740458
10.81,0.06494140625,-1.005126953125,0.085693359375,-0.2900763358778626,0.1297709923664122,-1.3435114503816794
10.82,0.069580078125,-1.002197265625,0.08251953125,-0.04580152671755725,1.9465648854961832,-1.6641221374045803
10.83,0.072998046875,-1.0146484375,0.08251953125,0.2900763358778626,-0.007633587786259542,-1.4580152671755726
10.84,0.069580078125,-1.0009765625,0.09130859375,-0.22900763358778625,-0.06870229007633588,-1.3435114503816794
10.85,0.065673828125,-1.006103515625,0.0810546875,-0.45038167938931295,1.9083969465648856,-1.381679389312977
10.86,0.076171875,-1.001708984375,0.08837890625,-1.083969465648855,-0.2748091603053435,-1.4122137404580153
10.87,0.072265625,-1.003173828125,0.07177734375,-0.9007633587786259,-0.12213740458015267,-1.3511450381679388
10.88,0.06982421875,-1.005859375,0.076171875,-0.7022900763358778,-0.08396946564885496,-1.297709923664122
10.89,0.0693359375,-1.00341796875,0.08349609375,-0.3511450381679389,-0.04580152671755725,-1.4809160305343512
10.9,0.06787109375,-1.013671875,0.064453125,0.030534351145038167,-0.22137404580152673,-1.618320610687023
10.91,0.072509765625,-1.004150390625,0.0888671875,0.030534351145038167,-1.9236641221374047,-1.381679389312977
10.92,0.07275390625,-1.00537109375,0.085693359375,-0.1297709923664122,-0.11450381679389313,-1.381679389312977
10.93,0.069580078125,-1.0048828125,0.087646484375,-0.7175572519083969,-0.17557251908396945,-1.251908396946565
10.94,0.072998046875,-1.00341796875,0.08056640625,-0.7786259541984732,0.030534351145038167,-1.4045801526717556
10.95,0.068115234375,-1.006103515625,0.0830078125,-0.7099236641221374,0.13740458015267176,-1.3969465648854962
10.96,0.074462890625,-1.001708984375,0.072509765625,-0.4732824427480916,1.9312977099236641,-1.3969465648854962
