Time(s),AccX,AccY,AccZ,GyrX,GyrY,GyrZ
0.0,0.06982421875,-1.0029296875,0.06787109375,-0.7709923664122137,-0.06870229007633588,-1.1908396946564885
0.01,0.06689453125,-1.003662109375,0.06201171875,-0.7175572519083969,-0.25190839694656486,-1.381679389312977
0.02,0.07080078125,-1.002685546875,0.05810546875,-0.2824427480916031,-0.08396946564885496,-1.366412213740458
0.03,0.075439453125,-0.99267578125,0.06298828125,-0.29770992366412213,-0.19083969465648856,-1.4122137404580153
0.04,0.068603515625,-1.00341796875,0.061279296875,-0.08396946564885496,-0.20610687022900764,-1.4580152671755726
0.05,0.068359375,-1.010009765625,0.065185546875,-0.3816793893129771,-0.12213740458015267,-1.2671755725190839
0.06,0.06787109375,-1.00439453125,0.06591796875,-0.7099236641221374,-0.030534351145038167,-1.5038167938931297
0.07,0.075927734375,-1.0048828125,0.06494140625,-0.5343511450381679,-0.13740458015267176,-1.3587786259541985
0.08,0.071533203125,-1.008056640625,0.076416015625,-0.6412213740458015,-0.1450381679389313,-1.4045801526717556
0.09,0.067626953125,-1.00634765625,0.065673828125,-0.26717557251908397,0.007633587786259542,-1.2900763358778626
0.1,0.0712890625,-0.98486328125,0.053466796875,-0.32061068702290074,-0.183206106870229,-1.4885496183206106
0.11,0.0751953125,-1.00634765625,0.06982421875,-0.40458015267175573,-0.21374045801526717,-1.3435114503816794
0.12,0.068115234375,-1.008056640625,0.07568359375,-0.48091603053435117,-0.16030534351145037,-1.450381679389313
0.13,0.07177734375,-0.995849609375,0.06787109375,-0.6946564885496184,-0.06870229007633588,-1.3358778625954197
0.14,0.072509765625,-1.002685546875,0.06494140625,-0.42748091603053434,-1.9541984732824427,-1.5877862595419847
0.15,0.06787109375,-1.005126953125,0.0654296875,-0.45038167938931295,0.06870229007633588,-1.1603053435114503
0.16,0.06884765625,-1.014892578125,0.0693359375,-0.5190839694656488,-0.24427480916030533,-1.4198473282442747
0.17,0.076416015625,-1.001953125,0.066650390625,-0.35877862595419846,-0.15267175572519084,-1.3587786259541985
0.18,0.0673828125,-0.98681640625,0.066650390625,-0.33587786259541985,-1.9312977099236641,-1.2366412213740459
0.19,0.070068359375,-0.99951171875,0.07421875,-0.08396946564885496,-0.16030534351145037,-1.3740458015267176
0.2,0.071533203125,-1.006103515625,0.0732421875,-0.5038167938931297,0.08396946564885496,-1.2900763358778626
0.21,0.072021484375,-1.00048828125,0.063720703125,-0.6641221374045801,-0.12213740458015267,-1.3893129770992367
0.22,0.072509765625,-0.998291015625,0.06103515625,-0.5572519083969466,-0.05343511450381679,-1.5801526717557253
0.23,0.072998046875,-1.01416015625,0.062255859375,-0.5114503816793893,-0.05343511450381679,-1.3053435114503817
0.24,0.074462890625,-0.9990234375,0.072021484375,-0.4732824427480916,-0.16030534351145037,-1.3587786259541985
0.25,0.07470703125,-1.00634765625,0.060791015625,-0.0916030534351145,-0.15267175572519084,-1.4351145038167938
0.26,0.072265625,-0.99951171875,0.070556640625,-0.42748091603053434,-0.07633587786259542,-1.213740458015267
0.27,0.067626953125,-1.00732421875,0.064453125,-0.48091603053435117,0.030534351145038167,-1.3129770992366412
0.28,0.068359375,-1.00146484375,0.0693359375,-0.5954198473282443,-0.2595419847328244,-1.5725190839694656
0.29,0.07470703125,-0.99951171875,0.05810546875,-0.6030534351145038,-1.8931297709923665,-1.3587786259541985
0.3,0.0712890625,-0.9921875,0.069091796875,-0.48091603053435117,-0.08396946564885496,-1.4885496183206106
0.31,0.068603515625,-0.98828125,0.0693359375,-0.4961832061068702,-0.05343511450381679,-1.3511450381679388
0.32,0.06494140625,-1.01513671875,0.066650390625,-0.10687022900763359,-0.015267175572519083,-1.4274809160305344
0.33,0.06494140625,-1.002685546875,0.070068359375,-0.16030534351145037,-0.10687022900763359,-1.2366412213740459
0.34,0.067626953125,-0.997802734375,0.068603515625,-0.5267175572519084,-0.16030534351145037,-1.2366412213740459
0.35,0.073974609375,-0.999755859375,0.07080078125,-0.5648854961832062,-0.0916030534351145,-1.3129770992366412
0.36,0.07080078125,-0.999267578125,0.071533203125,-0.5343511450381679,-0.2366412213740458,-1.3206106870229009
0.37,0.068359375,-0.9873046875,0.067138671875,-0.6793893129770993,-0.3511450381679389,-1.1984732824427482
0.38,0.072509765625,-1.005126953125,0.066162109375,-0.4961832061068702,-0.11450381679389313,-1.4427480916030535
0.39,0.06982421875,-1.003173828125,0.065185546875,-0.20610687022900764,-0.1450381679389313,-1.4045801526717556
0.4,0.069091796875,-0.997314453125,0.070068359375,-0.1297709923664122,-1.9389312977099236,-1.3969465648854962
0.41,0.070068359375,-0.995849609375,0.0673828125,-0.5114503816793893,-0.183206106870229,-1.3129770992366412
0.42,0.0693359375,-1.0009765625,0.066162109375,-0.4732824427480916,1.900763358778626,-1.4122137404580153
0.43,0.07666015625,-1.001708984375,0.0625,-0.648854961832061,-0.05343511450381679,-1.366412213740458
0.44,0.064697265625,-1.006103515625,0.065673828125,-0.4351145038167939,-0.13740458015267176,-1.3358778625954197
0.45,0.0703125,-1.014404296875,0.07373046875,-0.6259541984732825,-1.9541984732824427,-1.450381679389313
0.46,0.068359375,-1.00244140625,0.069091796875,-0.46564885496183206,-0.09923664122137404,-1.465648854961832
0.47,0.0693359375,-1.00341796875,0.07421875,-0.15267175572519084,-1.9541984732824427,-1.4122137404580153
0.48,0.071044921875,-1.000244140625,0.06884765625,-0.37404580152671757,1.8854961832061068,-1.3969465648854962
0.49,0.068115234375,-0.999755859375,0.0693359375,-0.2366412213740458,-0.1297709923664122,-1.4198473282442747
0.5,0.06982421875,-1.00439453125,0.06982421875,-0.46564885496183206,-0.09923664122137404,-1.4732824427480915
0.51,0.0732421875,-1.00634765625,0.067138671875,-0.5114503816793893,-0.07633587786259542,-1.3969465648854962
0.52,0.0625,-1.00439453125,0.07763671875,-0.5038167938931297,0.0,-1.2366412213740459
0.53,0.071044921875,-1.001708984375,0.068603515625,-0.5419847328244275,-0.15267175572519084,-1.4045801526717556
0.54,0.070556640625,-0.998046875,0.069580078125,-0.5038167938931297,-0.06870229007633588,-1.4732824427480915
0.55,0.071533203125,-1.002197265625,0.066162109375,-0.3816793893129771,-0.13740458015267176,-1.2213740458015268
0.56,0.07373046875,-1.004150390625,0.0693359375,-0.35877862595419846,-0.24427480916030533,-1.2748091603053435
0.57,0.070556640625,-1.001953125,0.06689453125,-0.4351145038167939,-0.16030534351145037,-1.4732824427480915
0.58,0.071533203125,-1.015625,0.072509765625,-0.366412213740458,-0.1297709923664122,-1.2900763358778626
0.59,0.068603515625,-1.002685546875,0.0654296875,-0.5343511450381679,-0.11450381679389313,-1.381679389312977
0.6,0.07080078125,-1.00146484375,0.059326171875,-0.6641221374045801,-0.0916030534351145,-1.3511450381679388
0.61,0.06689453125,-1.000732421875,0.063232421875,-0.366412213740458,0.007633587786259542,-1.282442748091603
0.62,0.071044921875,-1.003173828125,0.068359375,-0.5114503816793893,0.11450381679389313,-1.450381679389313
0.63,0.0693359375,-1.004638671875,0.074462890625,-0.15267175572519084,0.1297709923664122,-1.1908396946564885
0.64,0.070068359375,-0.999755859375,0.067626953125,-0.3511450381679389,-0.15267175572519084,-1.4580152671755726
0.65,0.0654296875,-1.00244140625,0.068603515625,-0.5954198473282443,-0.1450381679389313,-1.3435114503816794
0.66,0.072509765625,-1.002197265625,0.06298828125,-0.3969465648854962,-0.03816793893129771,-1.3740458015267176
0.67,0.0693359375,-1.00048828125,0.062744140625,-0.40458015267175573,1.9236641221374047,-1.2061068702290076
0.68,0.0654296875,-1.00146484375,0.053955078125,-0.5343511450381679,-0.061068702290076333,-1.4961832061068703
0.69,0.0712890625,-1.00439453125,0.07177734375,-0.3511450381679389,-0.13740458015267176,-1.3893129770992367
0.7,0.06787109375,-1.0009765625,0.065673828125,-0.4961832061068702,-0.08396946564885496,-1.4274809160305344
0.71,0.0693359375,-1.001708984375,0.073486328125,-0.5648854961832062,-0.25190839694656486,-1.3358778625954197
0.72,0.06884765625,-1.001708984375,0.059814453125,-0.29770992366412213,-0.15267175572519084,-1.3358778625954197
0.73,0.0732421875,-1.002685546875,0.0634765625,-0.5038167938931297,-0.22900763358778625,-1.366412213740458
0.74,0.067626953125,-1.00244140625,0.072265625,-0.5267175572519084,-0.11450381679389313,-1.2595419847328244
0.75,0.0751953125,-1.0009765625,0.070556640625,-0.4732824427480916,-1.9083969465648856,-1.3129770992366412
0.76,0.06640625,-1.00390625,0.072509765625,-0.5648854961832062,-0.2748091603053435,-1.3740458015267176
0.77,0.069580078125,-1.007568359375,0.067138671875,-0.25190839694656486,-1.9465648854961832,-1.5190839694656488
0.78,0.073486328125,-1.006103515625,0.069091796875,-0.4961832061068702,-0.1297709923664122,-1.2290076335877862
0.79,0.072509765625,-1.0087890625,0.065185546875,-0.5267175572519084,-0.04580152671755725,-1.3206106870229009
0.8,0.069091796875,-1.005126953125,0.077392578125,-0.7709923664122137,0.015267175572519083,-1.1908396946564885
0.81,0.0732421875,-1.013916015625,0.07275390625,-0.32061068702290074,0.10687022900763359,-1.2671755725190839
0.82,0.069091796875,-0.992431640625,0.064697265625,-0.4580152671755725,-0.07633587786259542,-1.3206106870229009
0.83,0.064208984375,-1.001220703125,0.071044921875,-0.48091603053435117,-0.1984732824427481,-1.4045801526717556
0.84,0.075439453125,-1.001708984375,0.0625,-0.366412213740458,0.07633587786259542,-1.3893129770992367
0.85,0.0693359375,-1.00390625,0.06201171875,-0.45038167938931295,-0.09923664122137404,-1.3282442748091603
0.86,0.070068359375,-0.9970703125,0.063232421875,-0.35877862595419846,-0.2824427480916031,-1.4961832061068703
0.87,0.06982421875,-1.00048828125,0.07763671875,-0.48091603053435117,-0.11450381679389313,-1.381679389312977
0.88,0.065185546875,-1.008544921875,0.0634765625,-0.4198473282442748,-0.17557251908396945,-1.4885496183206106
0.89,0.070068359375,-1.012451171875,0.074951171875,-0.42748091603053434,-0.11450381679389313,-1.4732824427480915
0.9,0.074462890625,-1.004150390625,0.07373046875,-0.5267175572519084,-0.1450381679389313,-1.3740458015267176
0.91,0.072509765625,-1.00244140625,0.0654296875,-0.35877862595419846,-0.08396946564885496,-1.2671755725190839
0.92,0.07763671875,-1.003173828125,0.066162109375,-0.6641221374045801,-0.08396946564885496,-1.4274809160305344
0.93,0.077392578125,-0.998046875,0.068359375,-0.7557251908396947,-0.06870229007633588,-1.1526717557251909
0.94,0.073486328125,-1.0048828125,0.072265625,-0.4580152671755725,-0.21374045801526717,-1.4427480916030535
0.95,0.0703125,-1.0048828125,0.069091796875,-0.5725190839694656,-0.183206106870229,-1.4885496183206106
0.96,0.06982421875,-1.000732421875,0.06640625,-0.33587786259541985,-0.1450381679389313,-1.4122137404580153
0.97,0.0703125,-1.006103515625,0.06591796875,-0.46564885496183206,-0.25190839694656486,-1.5114503816793894
0.98,0.071533203125,-0.9970703125,0.06640625,-0.4580152671755725,-0.11450381679389313,-1.3893129770992367
0.99,0.072998046875,-0.99951171875,0.061767578125,-0.5038167938931297,-0.3435114503816794,-1.2442748091603053
1.0,0.072998046875,-1.001708984375,0.072998046875,-0.3969465648854962,0.04580152671755725,-1.450381679389313
1.01,0.0732421875,-1.005126953125,0.063232421875,-0.40458015267175573,-0.13740458015267176,-1.3893129770992367
1.02,0.07373046875,-1.0029296875,0.072998046875,-0.17557251908396945,-1.9236641221374047,-1.3969465648854962
1.03,0.070068359375,-1.01123046875,0.0478515625,-0.46564885496183206,-0.21374045801526717,-1.4351145038167938
1.04,0.07275390625,-1.000244140625,0.061279296875,-0.44274809160305345,-0.22900763358778625,-1.4351145038167938
1.05,0.061767578125,-0.99951171875,0.068115234375,-0.2824427480916031,-0.12213740458015267,-1.366412213740458
1.06,0.0693359375,-0.9990234375,0.065673828125,-0.4961832061068702,-0.24427480916030533,-1.2671755725190839
1.07,0.071533203125,-1.001953125,0.06884765625,-0.22137404580152673,-0.20610687022900764,-1.3893129770992367
1.08,0.06591796875,-0.990966796875,0.07421875,-0.40458015267175573,-0.2595419847328244,-1.3206106870229009
1.09,0.074462890625,-1.004638671875,0.064208984375,-0.46564885496183206,-0.1297709923664122,-1.450381679389313
1.1,0.07080078125,-1.006591796875,0.066162109375,-0.48854961832061067,-0.030534351145038167,-1.366412213740458
1.11,0.075927734375,-1.0,0.0673828125,-0.3435114503816794,-0.12213740458015267,-1.4427480916030535
1.12,0.070556640625,-1.001953125,0.06689453125,-0.17557251908396945,-0.1450381679389313,-1.3129770992366412
1.13,0.0712890625,-1.00048828125,0.065673828125,-0.4198473282442748,-0.16030534351145037,-1.4427480916030535
1.14,0.069580078125,-1.0009765625,0.066162109375,-0.20610687022900764,-0.1984732824427481,-1.534351145038168
1.15,0.069580078125,-1.0068359375,0.066650390625,-0.6793893129770993,-1.9541984732824427,-1.282442748091603
1.16,0.071533203125,-1.0146484375,0.069580078125,-0.42748091603053434,-0.022900763358778626,-1.4045801526717556
1.17,0.0712890625,-0.98974609375,0.068603515625,-0.6717557251908397,-0.12213740458015267,-1.297709923664122
1.18,0.06689453125,-1.001220703125,0.072509765625,-0.48091603053435117,-0.06870229007633588,-1.3893129770992367
1.19,0.068603515625,-0.999267578125,0.060791015625,-0.549618320610687,1.9083969465648856,-1.3893129770992367
1.2,0.068603515625,-1.010498046875,0.064697265625,-0.45038167938931295,0.1297709923664122,-1.3435114503816794
1.21,0.0732421875,-1.00146484375,0.066650390625,-0.31297709923664124,-0.03816793893129771,-1.3740458015267176
1.22,0.066162109375,-1.002197265625,0.06787109375,-0.48854961832061067,-0.17557251908396945,-1.2290076335877862
1.23,0.070068359375,-1.00439453125,0.06396484375,-0.7022900763358778,-1.9465648854961832,-1.2595419847328244
1.24,0.068603515625,-1.00244140625,0.069580078125,-0.48091603053435117,-0.0916030534351145,-1.366412213740458
1.25,0.0703125,-1.004638671875,0.052978515625,-0.5877862595419847,-0.04580152671755725,-1.4198473282442747
1.26,0.0771484375,-1.006103515625,0.06689453125,-0.5801526717557252,0.08396946564885496,-1.251908396946565
1.27,0.066162109375,-1.00048828125,0.06396484375,-0.6641221374045801,0.061068702290076333,-1.2671755725190839
1.28,0.067138671875,-1.00634765625,0.069580078125,-0.5038167938931297,-1.9541984732824427,-1.5419847328244274
1.29,0.0712890625,-1.001220703125,0.0732421875,-0.3053435114503817,0.07633587786259542,-1.3206106870229009
1.3,0.07373046875,-1.006591796875,0.076416015625,-0.42748091603053434,-1.9541984732824427,-1.5038167938931297
1.31,0.06884765625,-1.00146484375,0.068115234375,-0.5267175572519084,-0.22137404580152673,-1.3053435114503817
1.32,0.07275390625,-1.009033203125,0.064208984375,-0.5572519083969466,-0.06870229007633588,-1.3129770992366412
1.33,0.06982421875,-1.00341796875,0.066162109375,-0.3816793893129771,-0.11450381679389313,-1.3740458015267176
1.34,0.069091796875,-1.00439453125,0.0625,-0.7022900763358778,-0.05343511450381679,-1.3587786259541985
1.35,0.07177734375,-1.0029296875,0.06396484375,-0.5725190839694656,-0.03816793893129771,-1.3740458015267176
1.36,0.069580078125,-1.01220703125,0.06396484375,-0.549618320610687,-0.05343511450381679,-1.366412213740458
1.37,0.074951171875,-0.985107421875,0.070556640625,-0.5114503816793893,-0.09923664122137404,-1.4732824427480915
1.38,0.0693359375,-1.004150390625,0.05078125,-0.366412213740458,0.15267175572519084,-1.3969465648854962
1.39,0.073974609375,-1.0048828125,0.0771484375,-0.4122137404580153,-0.04580152671755725,-1.5267175572519085
1.4,0.071044921875,-0.995849609375,0.072265625,-0.5343511450381679,0.07633587786259542,-1.381679389312977
1.41,0.06884765625,-0.999267578125,0.065673828125,-0.5038167938931297,0.061068702290076333,-1.5801526717557253
1.42,0.0625,-1.009765625,0.0693359375,-0.2366412213740458,-0.1450381679389313,-1.5038167938931297
1.43,0.070556640625,-1.0029296875,0.07177734375,-0.42748091603053434,-0.2824427480916031,-1.5648854961832062
1.44,0.073486328125,-1.005126953125,0.07421875,-0.33587786259541985,-0.08396946564885496,-1.2900763358778626
1.45,0.068115234375,-0.992919921875,0.068603515625,-0.5419847328244275,1.9465648854961832,-1.297709923664122
1.46,0.072998046875,-1.00390625,0.050537109375,-0.48854961832061067,-1.9236641221374047,-1.3358778625954197
1.47,0.070556640625,-1.003173828125,0.0654296875,-0.4580152671755725,-0.10687022900763359,-1.3129770992366412
1.48,0.07568359375,-0.99755859375,0.060791015625,-0.2366412213740458,0.16793893129770993,-1.3358778625954197
1.49,0.063720703125,-1.00048828125,0.06591796875,-0.25190839694656486,-0.05343511450381679,-1.4809160305343512
1.5,0.07177734375,-1.001220703125,0.0595703125,-0.20610687022900764,-0.05343511450381679,-1.282442748091603
1.51,0.07421875,-1.0068359375,0.0673828125,-0.2595419847328244,1.900763358778626,-1.2671755725190839
1.52,0.068359375,-1.002197265625,0.068603515625,-0.5877862595419847,-0.12213740458015267,-1.2290076335877862
1.53,0.0712890625,-1.005126953125,0.065673828125,-0.3969465648854962,-0.10687022900763359,-1.4351145038167938
1.54,0.0703125,-1.0048828125,0.05908203125,-0.48854961832061067,-0.07633587786259542,-1.3740458015267176
1.55,0.079833984375,-0.999267578125,0.06640625,-0.3435114503816794,1.9389312977099236,-1.4274809160305344
1.56,0.0703125,-1.00634765625,0.06298828125,-0.5267175572519084,0.04580152671755725,-1.3511450381679388
1.57,0.073486328125,-1.003173828125,0.063232421875,-0.3893129770992366,0.04580152671755725,-1.3740458015267176
1.58,0.07373046875,-1.006103515625,0.050537109375,-0.37404580152671757,-0.1297709923664122,-1.3206106870229009
1.59,0.0712890625,-1.001708984375,0.0732421875,-0.5114503816793893,-0.17557251908396945,-1.2595419847328244
1.6,0.066650390625,-1.0068359375,0.0703125,-0.5038167938931297,-0.1297709923664122,-1.4274809160305344
1.61,0.070068359375,-1.00390625,0.0634765625,-0.6259541984732825,-0.015267175572519083,-1.450381679389313
1.62,0.07275390625,-1.005615234375,0.0673828125,-0.7099236641221374,0.07633587786259542,-1.3587786259541985
1.63,0.07470703125,-1.00634765625,0.066162109375,-0.3969465648854962,0.03816793893129771,-1.2442748091603053
1.64,0.068359375,-1.00146484375,0.072998046875,-0.2900763358778626,0.10687022900763359,-1.3893129770992367
1.65,0.07373046875,-1.01416015625,0.07763671875,-0.5267175572519084,-0.2824427480916031,-1.4045801526717556
1.66,0.0712890625,-0.986083984375,0.071533203125,-0.48854961832061067,0.007633587786259542,-1.3511450381679388
1.67,0.0712890625,-1.00634765625,0.05712890625,-0.6030534351145038,-0.22137404580152673,-1.282442748091603
1.68,0.0693359375,-1.00146484375,0.066162109375,-0.5190839694656488,-0.13740458015267176,-1.3358778625954197
1.69,0.072509765625,-1.0029296875,0.06591796875,-0.5648854961832062,-0.03816793893129771,-1.282442748091603
1.7,0.0703125,-1.00244140625,0.056640625,-0.46564885496183206,0.06870229007633588,-1.282442748091603
1.71,0.071044921875,-1.004638671875,0.065673828125,-0.40458015267175573,-0.061068702290076333,-1.183206106870229
1.72,0.07275390625,-1.015380859375,0.06201171875,-0.29770992366412213,1.9465648854961832,-1.4351145038167938
1.73,0.072021484375,-1.006103515625,0.07763671875,-0.5648854961832062,-0.1297709923664122,-1.465648854961832
1.74,0.067138671875,-1.0107421875,0.068359375,-0.5190839694656488,-0.03816793893129771,-1.3893129770992367
1.75,0.068603515625,-1.004638671875,0.05419921875,-0.4198473282442748,-1.9541984732824427,-1.3435114503816794
1.76,0.072509765625,-1.001708984375,0.066650390625,-0.24427480916030533,-0.015267175572519083,-1.3587786259541985
1.77,0.073486328125,-1.0029296875,0.067626953125,-0.3511450381679389,-0.11450381679389313,-1.4351145038167938
1.78,0.066162109375,-1.001220703125,0.064208984375,-0.3511450381679389,-0.1450381679389313,-1.3358778625954197
1.79,0.067626953125,-1.00244140625,0.066162109375,-0.35877862595419846,0.061068702290076333,-1.3435114503816794
1.8,0.072509765625,-0.988037109375,0.0693359375,-0.648854961832061,-0.11450381679389313,-1.2748091603053435
1.81,0.071533203125,-1.005126953125,0.065185546875,-0.5572519083969466,0.04580152671755725,-1.4961832061068703
1.82,0.07568359375,-1.00732421875,0.066650390625,-0.5877862595419847,-0.022900763358778626,-1.2748091603053435
1.83,0.07177734375,-0.996337890625,0.065673828125,-0.4580152671755725,0.030534351145038167,-1.3053435114503817
1.84,0.07470703125,-1.005126953125,0.062255859375,-0.25190839694656486,0.015267175572519083,-1.381679389312977
1.85,0.07080078125,-1.0009765625,0.0634765625,-0.3053435114503817,-0.1984732824427481,-1.4198473282442747
1.86,0.068115234375,-1.000244140625,0.064453125,-0.3511450381679389,-0.15267175572519084,-1.4198473282442747
1.87,0.07421875,-0.985107421875,0.072265625,-0.37404580152671757,-0.04580152671755725,-1.2213740458015268
1.88,0.071044921875,-0.991943359375,0.064208984375,-0.5801526717557252,-0.21374045801526717,-1.3282442748091603
1.89,0.067626953125,-0.997802734375,0.063720703125,-0.7175572519083969,-0.16793893129770993,-1.4198473282442747
1.9,0.069580078125,-1.004150390625,0.062255859375,-0.5343511450381679,-0.26717557251908397,-1.3587786259541985
1.91,0.070556640625,-1.007080078125,0.060791015625,-0.32061068702290074,-0.1297709923664122,-1.465648854961832
1.92,0.07275390625,-1.006103515625,0.059814453125,0.16793893129770993,-0.15267175572519084,-1.5267175572519085
1.93,0.062744140625,-1.002197265625,0.072998046875,-0.15267175572519084,0.0,-1.3511450381679388
1.94,0.0615234375,-1.014404296875,0.076904296875,-0.48091603053435117,0.07633587786259542,-1.6106870229007633
1.95,0.0712890625,-0.99853515625,0.063720703125,-1.4198473282442747,0.19083969465648856,-1.4122137404580153
1.96,0.079345703125,-1.0048828125,0.046875,-1.465648854961832,-0.15267175572519084,-1.3587786259541985
1.97,0.078857421875,-1.003173828125,0.060791015625,-0.48091603053435117,-0.061068702290076333,-1.2900763358778626
1.98,0.082275390625,-1.00048828125,0.064453125,1.0076335877862594,0.04580152671755725,-1.366412213740458
1.99,0.0693359375,-1.000244140625,0.06689453125,1.381679389312977,-1.8702290076335877,-1.465648854961832
2.0,0.070068359375,-0.985595703125,0.0771484375,0.17557251908396945,-0.04580152671755725,-1.4198473282442747
2.01,0.048583984375,-1.002685546875,0.0751953125,-1.7251908396946565,-0.05343511450381679,-1.3587786259541985
2.02,0.06689453125,-0.99658203125,0.072509765625,-2.763358778625954,-1.9541984732824427,-1.1603053435114503
2.03,0.07373046875,-1.001953125,0.058349609375,-1.9923664122137406,-0.12213740458015267,-1.3282442748091603
2.04,0.0693359375,-1.0078125,0.04931640625,-0.007633587786259542,-0.05343511450381679,-1.3053435114503817
2.05,0.0751953125,-1.004638671875,0.05859375,1.633587786259542,-0.183206106870229,-1.4885496183206106
2.06,0.0732421875,-1.001708984375,0.07080078125,1.6793893129770991,-0.030534351145038167,-1.5038167938931297
2.07,0.071044921875,-1.005126953125,0.082275390625,0.5801526717557252,-0.09923664122137404,-1.4885496183206106
2.08,0.068359375,-1.0107421875,0.08056640625,-1.4885496183206106,-0.061068702290076333,-1.297709923664122
2.09,0.068359375,-1.00732421875,0.066650390625,-2.6106870229007635,0.1297709923664122,-1.3358778625954197
2.1,0.070068359375,-1.001708984375,0.0546875,-2.435114503816794,-0.06870229007633588,-1.3053435114503817
2.11,0.07763671875,-1.001220703125,0.051025390625,-1.3206106870229009,-0.35877862595419846,-1.297709923664122
2.12,0.072998046875,-1.00048828125,0.0537109375,0.6412213740458015,-0.030534351145038167,-1.3587786259541985
2.13,0.07177734375,-0.998779296875,0.056640625,2.2213740458015265,0.11450381679389313,-1.4732824427480915
2.14,0.071044921875,-0.99365234375,0.076904296875,1.9389312977099236,0.09923664122137404,-1.450381679389313
2.15,0.065185546875,-0.9951171875,0.089599609375,-0.20610687022900764,0.21374045801526717,-1.3435114503816794
2.16,0.070556640625,-1.012939453125,0.09716796875,-2.2595419847328246,0.08396946564885496,-1.450381679389313
2.17,0.0732421875,-1.011962890625,0.06982421875,-3.236641221374046,-0.16030534351145037,-1.251908396946565
2.18,0.071044921875,-1.0078125,0.0537109375,-2.4122137404580153,-0.12213740458015267,-1.2213740458015268
2.19,0.07080078125,-0.997802734375,0.054443359375,-0.1450381679389313,0.06870229007633588,-1.4122137404580153
2.2,0.074951171875,-1.00341796875,0.061767578125,1.7709923664122138,0.16030534351145037,-1.5572519083969465
2.21,0.0771484375,-0.998046875,0.066650390625,0.0,-0.10687022900763359,-1.3435114503816794
2.22,0.07080078125,-0.987060546875,0.081298828125,0.6412213740458015,-0.03816793893129771,-1.297709923664122
2.23,0.07080078125,-1.01416015625,0.088134765625,-1.3053435114503817,0.061068702290076333,-1.2213740458015268
2.24,0.069091796875,-1.00341796875,0.064453125,-2.7022900763358777,-0.1297709923664122,-1.2595419847328244
2.25,0.069091796875,-0.99951171875,0.04736328125,-2.1603053435114505,0.13740458015267176,-1.1374045801526718
2.26,0.070068359375,-1.002685546875,0.050537109375,-0.6641221374045801,0.022900763358778626,-1.297709923664122
2.27,0.072998046875,-1.010498046875,0.05712890625,0.732824427480916,-0.07633587786259542,-1.297709923664122
2.28,0.074951171875,-1.001953125,0.068115234375,1.3969465648854962,0.015267175572519083,-1.3435114503816794
2.29,0.090087890625,-1.0009765625,0.081298828125,0.8320610687022901,1.9465648854961832,-1.282442748091603
2.3,0.072998046875,-0.989990234375,0.063720703125,-0.46564885496183206,0.10687022900763359,-1.1908396946564885
2.31,0.0625,-1.0146484375,0.068359375,-1.8396946564885497,0.15267175572519084,-1.213740458015267
2.32,0.068115234375,-1.001953125,0.074462890625,-2.2977099236641223,-0.04580152671755725,-1.213740458015267
2.33,0.0693359375,-1.008056640625,0.050048828125,-1.3435114503816794,0.13740458015267176,-1.3587786259541985
2.34,0.076416015625,-1.00244140625,0.058837890625,0.13740458015267176,1.9389312977099236,-1.3511450381679388
2.35,0.071533203125,-1.0009765625,0.053466796875,1.381679389312977,-0.1450381679389313,-1.381679389312977
2.36,0.074462890625,-1.01220703125,0.06787109375,1.213740458015267,-0.22137404580152673,-1.534351145038168
2.37,0.07763671875,-1.0009765625,0.06640625,-0.22900763358778625,-1.9236641221374047,-1.2748091603053435
2.38,0.067626953125,-1.00341796875,0.08154296875,-1.5954198473282444,-0.061068702290076333,-1.1908396946564885
2.39,0.072021484375,-1.00439453125,0.06591796875,-2.33587786259542,-0.20610687022900764,-1.1984732824427482
2.4,0.064697265625,-1.00439453125,0.062744140625,-1.5801526717557253,-0.05343511450381679,-1.3740458015267176
2.41,0.066650390625,-1.002685546875,0.05712890625,-0.4122137404580153,-0.022900763358778626,-1.4427480916030535
2.42,0.075927734375,-1.009033203125,0.05419921875,0.7786259541984732,-0.21374045801526717,-1.3511450381679388
2.43,0.07568359375,-1.00341796875,0.061279296875,1.3282442748091603,-0.15267175572519084,-1.5954198473282444
2.44,0.066650390625,-1.003662109375,0.076171875,0.8549618320610687,0.0916030534351145,-1.4961832061068703
2.45,0.076904296875,-0.98681640625,0.078125,-0.6870229007633588,-0.20610687022900764,-1.549618320610687
2.46,0.063720703125,-1.000732421875,0.079345703125,-1.8396946564885497,1.9465648854961832,-1.3053435114503817
2.47,0.064453125,-0.999755859375,0.06591796875,-2.1297709923664123,0.16793893129770993,-1.4351145038167938
2.48,0.071044921875,-1.00390625,0.05810546875,-1.1755725190839694,1.8778625954198473,-1.3053435114503817
2.49,0.0712890625,-0.998779296875,0.052978515625,-0.1297709923664122,-0.183206106870229,-1.4045801526717556
2.5,0.069580078125,-1.005859375,0.067138671875,1.0458015267175573,-0.022900763358778626,-1.366412213740458
2.51,0.066162109375,-1.001953125,0.063232421875,0.8320610687022901,-0.12213740458015267,-1.4732824427480915
2.52,0.07421875,-1.00341796875,0.080322265625,0.022900763358778626,-0.03816793893129771,-1.2748091603053435
2.53,0.07470703125,-1.001220703125,0.064208984375,-1.1221374045801527,-0.1450381679389313,-1.3282442748091603
2.54,0.067138671875,-1.00634765625,0.072265625,-1.786259541984733,0.007633587786259542,-1.2061068702290076
2.55,0.0712890625,-1.005615234375,0.054443359375,-1.8091603053435115,-1.9236641221374047,-1.2595419847328244
2.56,0.0693359375,-1.0078125,0.060546875,-0.816793893129771,-1.8625954198473282,-1.4045801526717556
2.57,0.07470703125,-1.014892578125,0.056396484375,0.26717557251908397,0.11450381679389313,-1.465648854961832
2.58,0.0732421875,-1.0078125,0.06591796875,0.9007633587786259,-0.04580152671755725,-1.3511450381679388
2.59,0.071533203125,-1.00341796875,0.0751953125,0.5419847328244275,-0.16793893129770993,-1.3969465648854962
2.6,0.0673828125,-1.00390625,0.06591796875,-0.2366412213740458,-1.9465648854961832,-1.3053435114503817
2.61,0.06787109375,-1.0078125,0.064453125,-1.0763358778625953,0.16030534351145037,-1.381679389312977
2.62,0.069580078125,-1.00146484375,0.066650390625,-1.633587786259542,-0.2824427480916031,-1.465648854961832
2.63,0.06640625,-1.0029296875,0.053466796875,-1.1526717557251909,-0.061068702290076333,-1.1755725190839694
2.64,0.07275390625,-1.003173828125,0.069091796875,-0.2595419847328244,0.061068702290076333,-1.4351145038167938
2.65,0.089111328125,-1.001708984375,0.060791015625,0.48854961832061067,0.09923664122137404,-1.3587786259541985
2.66,0.06591796875,-0.987060546875,0.077880859375,0.29770992366412213,-0.07633587786259542,-1.4427480916030535
2.67,0.067626953125,-1.005126953125,0.076171875,0.007633587786259542,-0.061068702290076333,-1.3129770992366412
2.68,0.0693359375,-1.0068359375,0.091552734375,-0.8549618320610687,-0.030534351145038167,-1.297709923664122
2.69,0.0712890625,-1.0048828125,0.068115234375,-1.0534351145038168,0.03816793893129771,-1.3129770992366412
2.7,0.072265625,-1.002685546875,0.06298828125,-0.8549618320610687,-0.09923664122137404,-1.4427480916030535
2.71,0.0634765625,-0.998779296875,0.06591796875,-0.7251908396946565,-0.16030534351145037,-1.213740458015267
2.72,0.069091796875,-1.01220703125,0.06103515625,0.061068702290076333,-1.916030534351145,-1.3053435114503817
2.73,0.074951171875,-1.00537109375,0.0703125,0.19083969465648856,-0.07633587786259542,-1.4122137404580153
2.74,0.070068359375,-0.9873046875,0.066650390625,-0.0916030534351145,-0.022900763358778626,-1.3282442748091603
2.75,0.075439453125,-1.015625,0.06982421875,-0.4732824427480916,-0.13740458015267176,-1.3129770992366412
2.76,0.06591796875,-1.00048828125,0.075439453125,-1.1068702290076335,-0.15267175572519084,-1.2748091603053435
2.77,0.0673828125,-1.004150390625,0.0673828125,-0.9847328244274809,-0.07633587786259542,-1.3206106870229009
2.78,0.07373046875,-1.00341796875,0.0654296875,-0.7862595419847328,-0.1450381679389313,-1.4198473282442747
2.79,0.067626953125,-1.006591796875,0.060791015625,-0.29770992366412213,-0.015267175572519083,-1.4732824427480915
2.8,0.0732421875,-0.990478515625,0.07763671875,-0.11450381679389313,-1.8549618320610688,-1.4732824427480915
2.81,0.068603515625,-0.9892578125,0.0537109375,-0.10687022900763359,-0.15267175572519084,-1.4885496183206106
2.82,0.0732421875,-1.010009765625,0.068359375,-0.3282442748091603,-0.16793893129770993,-1.5114503816793894
2.83,0.071044921875,-1.0,0.070068359375,-0.7099236641221374,-0.10687022900763359,-1.3587786259541985
2.84,0.07080078125,-0.9970703125,0.078857421875,-0.7709923664122137,-0.1297709923664122,-1.4045801526717556
2.85,0.072998046875,-1.003662109375,0.06640625,-0.9541984732824428,-0.09923664122137404,-1.381679389312977
2.86,0.0654296875,-1.005615234375,0.06787109375,-0.6106870229007634,-1.9236641221374047,-1.3969465648854962
2.87,0.074951171875,-1.000732421875,0.0732421875,-0.183206106870229,-0.13740458015267176,-1.4351145038167938
2.88,0.064453125,-1.0068359375,0.068603515625,-0.2824427480916031,-0.16030534351145037,-1.4351145038167938
2.89,0.075927734375,-1.001953125,0.073486328125,-0.46564885496183206,-0.25190839694656486,-1.251908396946565
2.9,0.062744140625,-1.002685546875,0.066162109375,-0.648854961832061,0.022900763358778626,-1.4351145038167938
2.91,0.060302734375,-0.999267578125,0.06884765625,-0.5648854961832062,-0.06870229007633588,-1.4580152671755726
2.92,0.06494140625,-1.0009765625,0.06201171875,-0.48854961832061067,-0.04580152671755725,-1.3206106870229009
2.93,0.072021484375,-0.99951171875,0.065673828125,-0.3435114503816794,-0.20610687022900764,-1.5038167938931297
2.94,0.068359375,-1.005126953125,0.068603515625,-0.33587786259541985,-0.19083969465648856,-1.3587786259541985
2.95,0.065185546875,-1.006591796875,0.0751953125,-0.20610687022900764,-0.007633587786259542,-1.4732824427480915
2.96,0.068603515625,-1.015625,0.076904296875,-0.6183206106870229,0.06870229007633588,-1.3969465648854962
2.97,0.06640625,-0.99951171875,0.049560546875,-0.6183206106870229,-0.13740458015267176,-1.3587786259541985
2.98,0.0732421875,-1.002685546875,0.072265625,-0.648854961832061,-0.24427480916030533,-1.381679389312977
2.99,0.071044921875,-1.001953125,0.066650390625,-0.35877862595419846,-0.22900763358778625,-1.3587786259541985
3.0,0.06591796875,-1.001220703125,0.076904296875,-0.17557251908396945,-0.03816793893129771,-1.4045801526717556
3.01,0.073486328125,-1.013916015625,0.075439453125,-0.1297709923664122,-0.15267175572519084,-1.3893129770992367
3.02,0.071533203125,-0.989501953125,0.06982421875,-0.5343511450381679,-0.22137404580152673,-1.381679389312977
3.03,0.0693359375,-1.000244140625,0.06640625,-0.7404580152671756,0.022900763358778626,-1.4732824427480915
3.04,0.06884765625,-0.998046875,0.077880859375,-0.8473282442748091,0.1450381679389313,-1.4045801526717556
3.05,0.068603515625,-1.00390625,0.05908203125,-0.648854961832061,-0.007633587786259542,-1.3740458015267176
3.06,0.070068359375,-0.996337890625,0.066650390625,-0.07633587786259542,0.05343511450381679,-1.5038167938931297
3.07,0.06787109375,-1.002685546875,0.0673828125,-0.24427480916030533,-0.13740458015267176,-1.251908396946565
3.08,0.062744140625,-1.001953125,0.06787109375,0.1297709923664122,-0.16030534351145037,-1.2748091603053435
3.09,0.0712890625,-1.015625,0.071044921875,-0.44274809160305345,-0.08396946564885496,-1.4198473282442747
3.1,0.06689453125,-1.00341796875,0.08740234375,-0.6946564885496184,-0.015267175572519083,-1.3740458015267176
3.11,0.0703125,-0.999267578125,0.068115234375,-0.8778625954198473,0.12213740458015267,-1.2366412213740459
3.12,0.07177734375,-1.003173828125,0.064453125,-0.8091603053435115,-0.05343511450381679,-1.2671755725190839
3.13,0.071533203125,-1.00927734375,0.063232421875,-0.5190839694656488,-0.1984732824427481,-1.3587786259541985
3.14,0.0703125,-1.005859375,0.059326171875,-0.15267175572519084,-0.10687022900763359,-1.4580152671755726
3.15,0.066162109375,-1.005615234375,0.0712890625,0.10687022900763359,0.015267175572519083,-1.4274809160305344
3.16,0.06787109375,-1.0107421875,0.073974609375,-0.32061068702290074,-0.20610687022900764,-1.2748091603053435
3.17,0.06591796875,-1.013427734375,0.076904296875,-0.7251908396946565,-1.900763358778626,-1.4198473282442747
3.18,0.068115234375,-1.00048828125,0.07470703125,-0.9083969465648855,-0.183206106870229,-1.3511450381679388
3.19,0.062255859375,-1.001953125,0.065673828125,-0.9389312977099237,-0.12213740458015267,-1.3969465648854962
3.2,0.07275390625,-1.003662109375,0.054931640625,-0.48091603053435117,0.05343511450381679,-1.2748091603053435
3.21,0.07080078125,-1.0048828125,0.062255859375,-0.16030534351145037,0.061068702290076333,-1.4885496183206106
3.22,0.07275390625,-1.0048828125,0.06591796875,1.9312977099236641,-1.9465648854961832,-1.3053435114503817
3.23,0.0634765625,-1.0146484375,0.0712890625,-0.2366412213740458,-0.0916030534351145,-1.2442748091603053
3.24,0.06640625,-1.00146484375,0.077880859375,-0.40458015267175573,-1.8702290076335877,-1.16793893129771
3.25,0.07080078125,-1.00146484375,0.064697265625,-0.7862595419847328,-0.03816793893129771,-1.3587786259541985
3.26,0.075439453125,-1.00244140625,0.064453125,-0.9465648854961832,-0.05343511450381679,-1.1145038167938932
3.27,0.065185546875,-1.00244140625,0.073486328125,-0.8702290076335878,-0.15267175572519084,-1.3511450381679388
3.28,0.0732421875,-1.00390625,0.05712890625,-0.6030534351145038,1.9083969465648856,-1.5572519083969465
3.29,0.0673828125,-1.00244140625,0.060546875,-0.15267175572519084,-0.19083969465648856,-1.1755725190839694
3.3,0.070556640625,-1.00048828125,0.05810546875,-0.13740458015267176,-0.16030534351145037,-1.2671755725190839
3.31,0.07080078125,-1.003173828125,0.065673828125,-0.549618320610687,-0.08396946564885496,-1.4045801526717556
3.32,0.0703125,-1.00048828125,0.062744140625,-0.7022900763358778,-0.10687022900763359,-1.5038167938931297
3.33,0.07470703125,-0.99755859375,0.06787109375,-0.7404580152671756,-1.9389312977099236,-1.3587786259541985
3.34,0.070068359375,-0.99951171875,0.0625,-0.6641221374045801,-0.19083969465648856,-1.3740458015267176
3.35,0.071044921875,-1.003662109375,0.071533203125,-0.3053435114503817,-1.9389312977099236,-1.4961832061068703
3.36,0.071533203125,-1.00537109375,0.064208984375,-0.4198473282442748,-0.29770992366412213,-1.381679389312977
3.37,0.0673828125,-0.99072265625,0.070556640625,-0.26717557251908397,0.015267175572519083,-1.5190839694656488
3.38,0.07470703125,-1.002197265625,0.068603515625,-0.2595419847328244,-0.1297709923664122,-1.4198473282442747
3.39,0.072021484375,-0.998779296875,0.0634765625,-0.4961832061068702,-0.030534351145038167,-1.5114503816793894
3.4,0.07177734375,-1.001708984375,0.07275390625,-0.7251908396946565,0.007633587786259542,-1.3053435114503817
3.41,0.071533203125,-1.008544921875,0.062744140625,-0.7633587786259542,1.900763358778626,-1.1984732824427482
3.42,0.069580078125,-0.9990234375,0.060791015625,-0.6259541984732825,-1.8931297709923665,-1.3587786259541985
3.43,0.0693359375,-1.015380859375,0.06640625,-0.4961832061068702,1.9236641221374047,-1.3282442748091603
3.44,0.076904296875,-1.00341796875,0.06982421875,-0.06870229007633588,-0.04580152671755725,-1.3969465648854962
3.45,0.0712890625,-1.0048828125,0.072265625,-1.9236641221374047,-0.16793893129770993,-1.5725190839694656
3.46,0.076904296875,-1.007080078125,0.069091796875,-0.31297709923664124,-0.1450381679389313,-1.4809160305343512
3.47,0.070556640625,-1.001708984375,0.069091796875,-0.40458015267175573,-0.061068702290076333,-1.3893129770992367
3.48,0.0673828125,-1.0029296875,0.072509765625,-0.8473282442748091,0.10687022900763359,-1.3358778625954197
3.49,0.070556640625,-1.010009765625,0.075927734375,-0.9312977099236641,0.1450381679389313,-1.3435114503816794
3.5,0.075927734375,-1.004638671875,0.067626953125,-0.8244274809160306,-0.022900763358778626,-1.3129770992366412
3.51,0.065185546875,-1.00439453125,0.06787109375,-0.3282442748091603,-0.030534351145038167,-1.4732824427480915
3.52,0.077392578125,-1.015625,0.076416015625,1.9236641221374047,-0.17557251908396945,-1.3053435114503817
3.53,0.066162109375,-1.007568359375,0.072998046875,-0.022900763358778626,0.11450381679389313,-1.4961832061068703
3.54,0.071044921875,-1.00146484375,0.066650390625,-0.2900763358778626,0.07633587786259542,-1.213740458015267
3.55,0.07177734375,-1.000244140625,0.0703125,-0.6259541984732825,-0.32061068702290074,-1.3511450381679388
3.56,0.0732421875,-0.99658203125,0.068359375,-0.7938931297709924,-0.030534351145038167,-1.465648854961832
3.57,0.067626953125,-1.003173828125,0.069580078125,-0.7786259541984732,0.10687022900763359,-1.366412213740458
3.58,0.06982421875,-0.98681640625,0.07177734375,-0.8091603053435115,0.022900763358778626,-1.282442748091603
3.59,0.072021484375,-1.00146484375,0.058837890625,-0.15267175572519084,-0.061068702290076333,-1.297709923664122
3.6,0.06689453125,-1.001708984375,0.05322265625,-0.2748091603053435,-0.05343511450381679,-1.4198473282442747
3.61,0.0654296875,-1.001953125,0.077880859375,-1.9312977099236641,-0.04580152671755725,-1.534351145038168
3.62,0.073974609375,-1.0078125,0.06689453125,-0.16030534351145037,0.08396946564885496,-1.1603053435114503
3.63,0.066650390625,-1.002197265625,0.067138671875,-0.5419847328244275,-0.10687022900763359,-1.4351145038167938
3.64,0.067138671875,-1.0029296875,0.068603515625,-0.6717557251908397,-0.08396946564885496,-1.3129770992366412
3.65,0.065673828125,-0.990478515625,0.066162109375,-0.5801526717557252,1.9389312977099236,-1.297709923664122
3.66,0.064697265625,-0.987060546875,0.059814453125,-0.6030534351145038,-0.0916030534351145,-1.465648854961832
3.67,0.072998046875,-1.003173828125,0.059814453125,-0.3816793893129771,-0.12213740458015267,-1.4732824427480915
3.68,0.07373046875,-1.00439453125,0.06591796875,-1.9389312977099236,-0.16793893129770993,-1.3282442748091603
3.69,0.072998046875,-1.00537109375,0.06982421875,0.061068702290076333,-0.25190839694656486,-1.366412213740458
3.7,0.06787109375,-0.999755859375,0.07958984375,-0.3053435114503817,-0.09923664122137404,-1.4732824427480915
3.71,0.068603515625,-1.001953125,0.07275390625,-0.6946564885496184,-0.08396946564885496,-1.4427480916030535
3.72,0.068115234375,-1.0078125,0.06201171875,-1.1603053435114503,-0.17557251908396945,-1.4198473282442747
3.73,0.074951171875,-1.013671875,0.063720703125,-0.9770992366412213,0.03816793893129771,-1.5267175572519085
3.74,0.070556640625,-1.00390625,0.064697265625,-0.4198473282442748,0.17557251908396945,-1.251908396946565
3.75,0.07177734375,-0.998779296875,0.061767578125,0.09923664122137404,-0.11450381679389313,-1.3740458015267176
3.76,0.072021484375,-0.998046875,0.069580078125,0.1297709923664122,-0.03816793893129771,-1.282442748091603
3.77,0.069091796875,-0.9951171875,0.072021484375,0.0,-0.08396946564885496,-1.2900763358778626
3.78,0.06982421875,-1.00244140625,0.083984375,-0.3282442748091603,1.9465648854961832,-1.282442748091603
3.79,0.064453125,-1.00390625,0.074951171875,-0.9694656488549618,-0.03816793893129771,-1.2290076335877862
3.8,0.06982421875,-0.998291015625,0.068115234375,-1.3129770992366412,-0.10687022900763359,-1.633587786259542
3.81,0.060546875,-1.0078125,0.068603515625,-0.8778625954198473,0.06870229007633588,-1.3740458015267176
3.82,0.074951171875,-1.00732421875,0.061767578125,-0.2595419847328244,-0.12213740458015267,-1.2900763358778626
3.83,0.069091796875,-0.9990234375,0.061279296875,0.13740458015267176,-0.2748091603053435,-1.3435114503816794
3.84,0.066650390625,-1.00537109375,0.07275390625,0.4732824427480916,1.9312977099236641,-1.3740458015267176
3.85,0.0703125,-1.004638671875,0.06494140625,0.061068702290076333,1.916030534351145,-1.1755725190839694
3.86,0.093017578125,-1.001953125,0.06884765625,-0.48854961832061067,-0.10687022900763359,-1.5419847328244274
3.87,0.07861328125,-1.002685546875,0.07373046875,-1.0916030534351144,0.04580152671755725,-1.4427480916030535
3.88,0.069091796875,-1.0009765625,0.064208984375,-1.4961832061068703,-0.11450381679389313,-1.251908396946565
3.89,0.068115234375,-0.996337890625,0.059326171875,-1.0305343511450382,0.030534351145038167,-1.5267175572519085
3.9,0.0712890625,-1.003662109375,0.058837890625,-0.09923664122137404,-0.061068702290076333,-1.3053435114503817
3.91,0.066650390625,-1.007568359375,0.068359375,0.5114503816793893,-0.1450381679389313,-1.2442748091603053
3.92,0.07470703125,-1.005126953125,0.0712890625,0.2595419847328244,0.03816793893129771,-1.2061068702290076
3.93,0.0693359375,-1.000244140625,0.090576171875,-0.2900763358778626,-0.15267175572519084,-1.3587786259541985
3.94,0.069580078125,-1.00244140625,0.073974609375,-0.8931297709923665,0.15267175572519084,-1.2442748091603053
3.95,0.067626953125,-1.01025390625,0.070556640625,-1.4045801526717556,-0.015267175572519083,-1.4122137404580153
3.96,0.072998046875,-1.008544921875,0.064208984375,-1.0229007633587786,-0.11450381679389313,-1.2748091603053435
3.97,0.0732421875,-1.0029296875,0.061279296875,-0.6030534351145038,-0.16030534351145037,-1.1984732824427482
3.98,0.07275390625,-1.00439453125,0.0546875,0.2748091603053435,-0.12213740458015267,-1.5572519083969465
3.99,0.06884765625,-0.990478515625,0.06201171875,0.3282442748091603,0.061068702290076333,-1.4122137404580153
4.0,0.06884765625,-1.00439453125,0.0546875,0.37404580152671757,-1.9541984732824427,-1.5267175572519085
4.01,0.070556640625,-1.005615234375,0.07080078125,-0.45038167938931295,-0.19083969465648856,-1.3587786259541985
4.02,0.069091796875,-0.996337890625,0.065185546875,-0.9847328244274809,1.9083969465648856,-1.297709923664122
4.03,0.070556640625,-1.001220703125,0.06640625,-1.213740458015267,0.03816793893129771,-1.3740458015267176
4.04,0.069091796875,-0.9970703125,0.06005859375,-0.7938931297709924,-0.1297709923664122,-1.4198473282442747
4.05,0.0712890625,-1.007568359375,0.061767578125,-0.29770992366412213,-1.9236641221374047,-1.4580152671755726
4.06,0.0712890625,-1.00146484375,0.062255859375,0.366412213740458,-0.06870229007633588,-1.4961832061068703
4.07,0.068359375,-1.00244140625,0.065185546875,0.549618320610687,-0.1984732824427481,-1.4045801526717556
4.08,0.0693359375,-0.987548828125,0.076171875,-0.15267175572519084,-0.3053435114503817,-1.3893129770992367
4.09,0.0693359375,-0.995849609375,0.069091796875,-0.7480916030534351,0.05343511450381679,-1.4427480916030535
4.1,0.070556640625,-1.001708984375,0.07177734375,-1.2442748091603053,-0.022900763358778626,-1.2671755725190839
4.11,0.069091796875,-0.997314453125,0.07177734375,-0.9770992366412213,-0.12213740458015267,-1.4045801526717556
4.12,0.071044921875,-1.00634765625,0.06640625,-0.6641221374045801,-0.09923664122137404,-1.4427480916030535
4.13,0.07080078125,-1.0009765625,0.06494140625,0.16030534351145037,0.11450381679389313,-1.4809160305343512
4.14,0.06884765625,-1.013671875,0.059814453125,0.35877862595419846,-0.0916030534351145,-1.366412213740458
4.15,0.072265625,-1.014892578125,0.069580078125,-0.1984732824427481,-1.8625954198473282,-1.3358778625954197
4.16,0.06982421875,-1.001953125,0.07275390625,-0.7404580152671756,1.8931297709923665,-1.2900763358778626
4.17,0.06787109375,-1.000244140625,0.064208984375,-1.1526717557251909,0.09923664122137404,-1.251908396946565
4.18,0.0673828125,-1.006591796875,0.06884765625,-1.1984732824427482,-0.11450381679389313,-1.3282442748091603
4.19,0.07080078125,-1.00341796875,0.06201171875,-0.8549618320610687,-0.03816793893129771,-1.2748091603053435
4.2,0.07421875,-1.007080078125,0.062744140625,-0.06870229007633588,-0.1450381679389313,-1.2671755725190839
4.21,0.0751953125,-1.00341796875,0.06396484375,0.17557251908396945,-0.07633587786259542,-1.3511450381679388
4.22,0.070068359375,-1.00537109375,0.063720703125,1.8854961832061068,-0.16030534351145037,-1.4427480916030535
4.23,0.071533203125,-0.99951171875,0.0712890625,-0.4961832061068702,-0.1984732824427481,-1.5267175572519085
4.24,0.066162109375,-1.00146484375,0.070068359375,-1.0381679389312977,-0.15267175572519084,-1.3053435114503817
4.25,0.0673828125,-1.00634765625,0.065185546875,-1.0229007633587786,-0.1984732824427481,-1.3358778625954197
4.26,0.068603515625,-0.995849609375,0.066162109375,-0.7251908396946565,-0.0916030534351145,-1.366412213740458
4.27,0.068603515625,-0.985595703125,0.060302734375,-0.1450381679389313,-0.17557251908396945,-1.2900763358778626
4.28,0.072509765625,-0.9853515625,0.06494140625,-1.9389312977099236,-0.10687022900763359,-1.3969465648854962
4.29,0.07470703125,-1.005859375,0.0625,0.07633587786259542,-0.2595419847328244,-1.3282442748091603
4.3,0.0712890625,-1.002685546875,0.06787109375,-0.4351145038167939,1.9389312977099236,-1.3511450381679388
4.31,0.072265625,-1.002197265625,0.072021484375,-0.5038167938931297,-0.16793893129770993,-1.3511450381679388
4.32,0.072265625,-1.003662109375,0.0732421875,-0.8244274809160306,-0.1984732824427481,-1.3740458015267176
4.33,0.064453125,-1.0078125,0.05859375,-0.6717557251908397,-0.21374045801526717,-1.2671755725190839
4.34,0.069091796875,-1.003662109375,0.06787109375,-0.3282442748091603,-0.1450381679389313,-1.1603053435114503
4.35,0.071044921875,-0.99853515625,0.06103515625,0.16793893129770993,0.16793893129770993,-1.4045801526717556
4.36,0.073486328125,-1.002685546875,0.0693359375,0.05343511450381679,0.03816793893129771,-1.4122137404580153
4.37,0.0703125,-1.00439453125,0.0673828125,-0.16793893129770993,0.015267175572519083,-1.4809160305343512
4.38,0.065185546875,-1.008056640625,0.05908203125,-0.7633587786259542,-0.183206106870229,-1.3587786259541985
4.39,0.069580078125,-1.002197265625,0.056884765625,-0.916030534351145,-0.11450381679389313,-1.3435114503816794
4.4,0.07373046875,-1.003173828125,0.06884765625,-0.7404580152671756,-0.061068702290076333,-1.3969465648854962
4.41,0.068359375,-1.002685546875,0.060546875,-0.44274809160305345,1.9465648854961832,-1.3587786259541985
4.42,0.07177734375,-1.001953125,0.068359375,-0.11450381679389313,-0.03816793893129771,-1.450381679389313
4.43,0.072998046875,-1.002685546875,0.06494140625,0.030534351145038167,-1.9541984732824427,-1.3893129770992367
4.44,0.06591796875,-1.0009765625,0.070068359375,-0.48854961832061067,0.061068702290076333,-1.4351145038167938
4.45,0.0751953125,-1.003173828125,0.07666015625,-0.5114503816793893,-1.8931297709923665,-1.3435114503816794
4.46,0.07275390625,-1.00537109375,0.06494140625,-1.0610687022900764,0.06870229007633588,-1.3969465648854962
4.47,0.07080078125,-1.00390625,0.08154296875,-0.8244274809160306,1.9389312977099236,-1.4809160305343512
4.48,0.0654296875,-1.01123046875,0.056396484375,-0.4732824427480916,-0.05343511450381679,-1.2671755725190839
4.49,0.0703125,-1.009033203125,0.076171875,-0.5267175572519084,-0.15267175572519084,-1.3893129770992367
4.5,0.070068359375,-1.0146484375,0.069091796875,0.0916030534351145,-0.16030534351145037,-1.2900763358778626
4.51,0.074951171875,-1.005126953125,0.072509765625,1.8931297709923665,0.007633587786259542,-1.4732824427480915
4.52,0.06982421875,-0.999755859375,0.068115234375,-0.4122137404580153,0.15267175572519084,-1.465648854961832
4.53,0.069580078125,-1.00390625,0.0693359375,-0.5419847328244275,0.030534351145038167,-1.3282442748091603
4.54,0.073974609375,-1.004638671875,0.068603515625,-0.732824427480916,-0.030534351145038167,-1.2900763358778626
4.55,0.066650390625,-1.0068359375,0.067138671875,-0.8320610687022901,-0.15267175572519084,-1.2213740458015268
4.56,0.071533203125,-1.00390625,0.054443359375,-0.5267175572519084,-0.2824427480916031,-1.2595419847328244
4.57,0.071044921875,-1.01513671875,0.06640625,-0.29770992366412213,-0.183206106870229,-1.381679389312977
4.58,0.067626953125,-0.998046875,0.068603515625,-0.05343511450381679,-0.09923664122137404,-1.297709923664122
4.59,0.068603515625,-1.003662109375,0.06982421875,-0.16793893129770993,-0.17557251908396945,-1.4885496183206106
4.6,0.070068359375,-1.002197265625,0.070068359375,-0.48091603053435117,-0.09923664122137404,-1.3129770992366412
4.61,0.07861328125,-1.000732421875,0.072998046875,-0.732824427480916,-0.17557251908396945,-1.366412213740458
4.62,0.0625,-1.00732421875,0.0654296875,-0.6641221374045801,-0.08396946564885496,-1.2595419847328244
4.63,0.0712890625,-1.003173828125,0.067626953125,-0.9389312977099237,-0.061068702290076333,-1.366412213740458
4.64,0.06982421875,-1.007080078125,0.06298828125,-0.3969465648854962,-0.24427480916030533,-1.3969465648854962
4.65,0.0625,-1.004638671875,0.04736328125,-0.3511450381679389,-1.9389312977099236,-1.381679389312977
4.66,0.0703125,-1.00390625,0.071044921875,-0.3053435114503817,-0.09923664122137404,-1.549618320610687
4.67,0.076416015625,-1.0107421875,0.06689453125,-0.37404580152671757,0.0,-1.5190839694656488
4.68,0.071044921875,-1.0068359375,0.066162109375,-0.3511450381679389,-0.08396946564885496,-1.3740458015267176
4.69,0.079345703125,-1.005126953125,0.064453125,-0.6259541984732825,-1.900763358778626,-1.3282442748091603
4.7,0.070556640625,-0.985107421875,0.051025390625,-0.6641221374045801,-1.8549618320610688,-1.450381679389313
4.71,0.06591796875,-0.988525390625,0.07373046875,-0.4961832061068702,0.05343511450381679,-1.450381679389313
4.72,0.07568359375,-0.989990234375,0.07763671875,-0.648854961832061,-0.08396946564885496,-1.183206106870229
4.73,0.070556640625,-1.0068359375,0.076904296875,-0.3053435114503817,-0.22900763358778625,-1.4274809160305344
4.74,0.072021484375,-1.00830078125,0.0751953125,0.20610687022900764,-0.061068702290076333,-1.282442748091603
4.75,0.07177734375,-0.9990234375,0.07177734375,-0.3435114503816794,-0.015267175572519083,-1.381679389312977
4.76,0.076904296875,-1.003173828125,0.06689453125,-0.6335877862595419,-0.15267175572519084,-1.1908396946564885
4.77,0.075927734375,-0.986328125,0.06298828125,-0.7099236641221374,-1.9465648854961832,-1.3129770992366412
4.78,0.0703125,-1.001953125,0.06689453125,-0.648854961832061,-0.1984732824427481,-1.2671755725190839
4.79,0.072021484375,-0.985107421875,0.0771484375,-0.4198473282442748,-1.9541984732824427,-1.4198473282442747
4.8,0.066650390625,-0.998046875,0.069580078125,-0.2900763358778626,-0.08396946564885496,-1.4961832061068703
4.81,0.06787109375,-1.006103515625,0.0615234375,-0.17557251908396945,-0.13740458015267176,-1.3587786259541985
4.82,0.06982421875,-1.000732421875,0.061767578125,-0.2900763358778626,-0.11450381679389313,-1.450381679389313
4.83,0.073486328125,-1.002685546875,0.075927734375,-0.37404580152671757,0.0,-1.4427480916030535
4.84,0.065185546875,-1.015625,0.06591796875,-0.7175572519083969,0.09923664122137404,-1.4274809160305344
4.85,0.06591796875,-1.0087890625,0.067626953125,-0.48091603053435117,-0.2366412213740458,-1.2900763358778626
4.86,0.072509765625,-1.004638671875,0.062744140625,-0.5954198473282443,-0.19083969465648856,-1.450381679389313
4.87,0.0673828125,-1.004150390625,0.067138671875,-0.5114503816793893,-0.13740458015267176,-1.4122137404580153
4.88,0.072265625,-1.003173828125,0.065673828125,-0.5572519083969466,-0.22900763358778625,-1.251908396946565
4.89,0.070556640625,-1.000244140625,0.065185546875,-0.2366412213740458,-0.19083969465648856,-1.297709923664122
4.9,0.0712890625,-1.004150390625,0.063232421875,-0.19083969465648856,-0.05343511450381679,-1.3740458015267176
4.91,0.073486328125,-1.001953125,0.07373046875,-0.29770992366412213,-0.12213740458015267,-1.4961832061068703
4.92,0.07763671875,-0.992431640625,0.0634765625,-0.4198473282442748,-0.1450381679389313,-1.3511450381679388
4.93,0.06884765625,-1.000732421875,0.0693359375,-0.5267175572519084,-0.10687022900763359,-1.3587786259541985
4.94,0.06982421875,-1.009765625,0.069091796875,-0.7175572519083969,0.015267175572519083,-1.2595419847328244
4.95,0.06982421875,-1.001953125,0.0712890625,-0.816793893129771,-0.2595419847328244,-1.3969465648854962
4.96,0.073974609375,-1.003173828125,0.063720703125,-0.5877862595419847,-0.07633587786259542,-1.3206106870229009
4.97,0.070556640625,-1.003662109375,0.0693359375,-0.42748091603053434,-0.2595419847328244,-1.3053435114503817
4.98,0.066162109375,-1.001220703125,0.067138671875,-0.22137404580152673,0.061068702290076333,-1.4580152671755726
4.99,0.066162109375,-1.000732421875,0.063232421875,-0.24427480916030533,0.1450381679389313,-1.4961832061068703
5.0,0.0771484375,-1.004150390625,0.070068359375,-0.45038167938931295,1.8931297709923665,-1.465648854961832
5.01,0.071044921875,-0.999755859375,0.068603515625,-0.5343511450381679,-0.16793893129770993,-1.381679389312977
5.02,0.0703125,-1.0,0.072265625,-0.46564885496183206,-0.061068702290076333,-1.4351145038167938
5.03,0.072021484375,-0.997314453125,0.065673828125,-0.5419847328244275,0.015267175572519083,-1.3129770992366412
5.04,0.068115234375,-1.005126953125,0.069091796875,-0.9389312977099237,-0.20610687022900764,-1.4427480916030535
5.05,0.0771484375,-0.985595703125,0.069091796875,-0.5954198473282443,-0.13740458015267176,-1.4045801526717556
5.06,0.073486328125,-1.003173828125,0.065185546875,-0.42748091603053434,-1.9389312977099236,-1.5267175572519085
5.07,0.07080078125,-1.001708984375,0.07421875,-0.19083969465648856,-0.007633587786259542,-1.3893129770992367
5.08,0.06689453125,-1.007568359375,0.06640625,-0.03816793893129771,0.12213740458015267,-1.4351145038167938
5.09,0.068115234375,-0.99609375,0.067626953125,-0.4198473282442748,-1.9389312977099236,-1.3358778625954197
5.1,0.063232421875,-0.99951171875,0.067626953125,-0.48854961832061067,-0.08396946564885496,-1.2900763358778626
5.11,0.06396484375,-1.00537109375,0.067138671875,-0.816793893129771,-0.1450381679389313,-1.4809160305343512
5.12,0.072998046875,-1.001953125,0.064208984375,-0.6946564885496184,-0.05343511450381679,-1.3358778625954197
5.13,0.0703125,-1.01416015625,0.05615234375,-0.21374045801526717,0.05343511450381679,-1.3435114503816794
5.14,0.0625,-1.015625,0.05126953125,-0.2824427480916031,-1.9465648854961832,-1.3206106870229009
5.15,0.072021484375,-1.005615234375,0.070556640625,-0.4122137404580153,-0.12213740458015267,-1.4351145038167938
5.16,0.0693359375,-1.00341796875,0.0732421875,-0.48091603053435117,-0.030534351145038167,-1.381679389312977
5.17,0.07373046875,-0.99951171875,0.069091796875,-0.7251908396946565,-1.916030534351145,-1.3511450381679388
5.18,0.072265625,-1.0029296875,0.06640625,-0.4351145038167939,-0.061068702290076333,-1.4045801526717556
5.19,0.072021484375,-1.00048828125,0.073974609375,-0.21374045801526717,-0.12213740458015267,-1.4961832061068703
5.2,0.066650390625,-1.01513671875,0.06640625,-0.46564885496183206,-0.3282442748091603,-1.251908396946565
5.21,0.06689453125,-0.998291015625,0.0703125,-0.4198473282442748,0.17557251908396945,-1.3206106870229009
5.22,0.073486328125,-1.004638671875,0.068603515625,-0.5114503816793893,-0.16030534351145037,-1.4274809160305344
5.23,0.064697265625,-1.002197265625,0.07568359375,-0.5114503816793893,1.9312977099236641,-1.3740458015267176
5.24,0.07421875,-0.99853515625,0.068359375,-0.42748091603053434,-0.0916030534351145,-1.4427480916030535
5.25,0.068359375,-1.004638671875,0.070556640625,-0.366412213740458,0.12213740458015267,-1.4122137404580153
5.26,0.072509765625,-1.004638671875,0.06640625,-0.22900763358778625,-0.21374045801526717,-1.3893129770992367
5.27,0.072265625,-1.001708984375,0.0751953125,-0.2824427480916031,-0.22900763358778625,-1.4732824427480915
5.28,0.06591796875,-0.99853515625,0.06884765625,-0.5572519083969466,-0.09923664122137404,-1.4961832061068703
5.29,0.0654296875,-1.006591796875,0.071533203125,-0.4961832061068702,-1.9541984732824427,-1.1908396946564885
5.3,0.072998046875,-1.001220703125,0.06787109375,-0.5877862595419847,-0.12213740458015267,-1.5419847328244274
5.31,0.073974609375,-1.00390625,0.060791015625,-0.6412213740458015,-1.9236641221374047,-1.2748091603053435
5.32,0.06884765625,-0.99951171875,0.05908203125,-0.6183206106870229,-0.06870229007633588,-1.2748091603053435
5.33,0.065185546875,-1.001220703125,0.065185546875,-0.648854961832061,-0.15267175572519084,-1.297709923664122
5.34,0.0751953125,-1.003173828125,0.062744140625,-0.48091603053435117,-0.07633587786259542,-1.282442748091603
5.35,0.068115234375,-1.00439453125,0.0703125,-0.2595419847328244,0.07633587786259542,-1.3358778625954197
5.36,0.073486328125,-1.014892578125,0.063232421875,-0.366412213740458,0.05343511450381679,-1.3358778625954197
5.37,0.068603515625,-1.0029296875,0.076171875,-0.48854961832061067,-0.16793893129770993,-1.3740458015267176
5.38,0.06591796875,-1.004638671875,0.059326171875,-0.816793893129771,-0.07633587786259542,-1.3740458015267176
5.39,0.066650390625,-1.00537109375,0.067138671875,-0.5572519083969466,-0.07633587786259542,-1.4427480916030535
5.4,0.07275390625,-1.0048828125,0.06298828125,-0.4198473282442748,0.007633587786259542,-1.4122137404580153
5.41,0.070556640625,-1.006103515625,0.063232421875,-0.3893129770992366,0.06870229007633588,-1.3587786259541985
5.42,0.07177734375,-1.01513671875,0.075439453125,-0.35877862595419846,0.061068702290076333,-1.3282442748091603
5.43,0.068359375,-1.004638671875,0.049072265625,-0.20610687022900764,-0.1450381679389313,-1.4198473282442747
5.44,0.070068359375,-1.0,0.066162109375,-0.3816793893129771,-0.1297709923664122,-1.3893129770992367
5.45,0.07080078125,-1.00146484375,0.074462890625,-0.3893129770992366,-0.15267175572519084,-1.4274809160305344
5.46,0.0703125,-1.0048828125,0.06005859375,-0.6030534351145038,-0.07633587786259542,-1.4274809160305344
5.47,0.07568359375,-1.00341796875,0.0693359375,-0.45038167938931295,-0.3435114503816794,-1.4274809160305344
5.48,0.0712890625,-1.00146484375,0.06591796875,-0.5343511450381679,-0.0916030534351145,-1.4580152671755726
5.49,0.06298828125,-1.015625,0.06494140625,-0.33587786259541985,-0.2366412213740458,-1.3893129770992367
5.5,0.06640625,-1.005615234375,0.07080078125,-0.6106870229007634,-0.13740458015267176,-1.4809160305343512
5.51,0.070068359375,-1.004150390625,0.071044921875,-0.3282442748091603,-0.2595419847328244,-1.3511450381679388
5.52,0.076416015625,-1.001708984375,0.0595703125,-0.3511450381679389,0.13740458015267176,-1.366412213740458
5.53,0.068603515625,-1.000732421875,0.068603515625,-0.31297709923664124,-0.4351145038167939,-1.381679389312977
5.54,0.069091796875,-1.008544921875,0.071533203125,-0.5190839694656488,-0.2366412213740458,-1.3969465648854962
5.55,0.075927734375,-1.001220703125,0.061767578125,-0.5190839694656488,-0.04580152671755725,-1.2671755725190839
5.56,0.070068359375,-0.999755859375,0.06591796875,-0.31297709923664124,-0.022900763358778626,-1.3740458015267176
5.57,0.071044921875,-1.00390625,0.06884765625,-0.44274809160305345,-0.22137404580152673,-1.4274809160305344
5.58,0.068603515625,-1.00341796875,0.0712890625,-0.42748091603053434,-0.183206106870229,-1.251908396946565
5.59,0.072021484375,-1.005126953125,0.064208984375,-0.42748091603053434,-0.10687022900763359,-1.2748091603053435
5.6,0.069580078125,-1.000732421875,0.060791015625,-0.35877862595419846,-0.1297709923664122,-1.2671755725190839
5.61,0.068115234375,-1.005126953125,0.065185546875,-0.4961832061068702,-0.22137404580152673,-1.3587786259541985
5.62,0.067626953125,-1.005126953125,0.070556640625,-0.6030534351145038,-0.16030534351145037,-1.213740458015267
5.63,0.072265625,-1.00439453125,0.07421875,-0.5877862595419847,0.08396946564885496,-1.2595419847328244
5.64,0.072998046875,-1.000732421875,0.074462890625,-0.366412213740458,-0.030534351145038167,-1.450381679389313
5.65,0.07666015625,-1.00244140625,0.04736328125,-0.4122137404580153,-0.26717557251908397,-1.5114503816793894
5.66,0.0732421875,-1.007080078125,0.07177734375,-0.40458015267175573,-0.061068702290076333,-1.297709923664122
5.67,0.07373046875,-1.00341796875,0.065185546875,-0.6564885496183206,-0.1297709923664122,-1.3587786259541985
5.68,0.07275390625,-0.99560546875,0.0712890625,-0.5419847328244275,0.03816793893129771,-1.3740458015267176
5.69,0.069580078125,-1.003662109375,0.070556640625,-0.5954198473282443,-1.9083969465648856,-1.2671755725190839
5.7,0.071044921875,-1.013671875,0.067138671875,-0.48854961832061067,1.9236641221374047,-1.4885496183206106
5.71,0.070556640625,-1.0146484375,0.05419921875,-0.16793893129770993,0.05343511450381679,-1.366412213740458
5.72,0.0673828125,-1.00341796875,0.06591796875,-0.3282442748091603,-0.20610687022900764,-1.183206106870229
5.73,0.070556640625,-1.005859375,0.066650390625,-0.4580152671755725,-0.05343511450381679,-1.2671755725190839
5.74,0.072265625,-1.00390625,0.0673828125,-0.4580152671755725,0.05343511450381679,-1.534351145038168
5.75,0.07275390625,-1.002197265625,0.07568359375,-0.5801526717557252,-0.12213740458015267,-1.2290076335877862
5.76,0.07568359375,-1.00830078125,0.07080078125,-0.5801526717557252,-0.19083969465648856,-1.5725190839694656
5.77,0.070068359375,-1.003662109375,0.066650390625,-0.25190839694656486,-1.9083969465648856,-1.465648854961832
5.78,0.0703125,-1.00244140625,0.076416015625,-0.2748091603053435,-0.15267175572519084,-1.4274809160305344
5.79,0.071533203125,-1.007080078125,0.06298828125,-0.25190839694656486,-0.16030534351145037,-1.3129770992366412
5.8,0.068115234375,-1.001953125,0.068115234375,-0.4580152671755725,-0.05343511450381679,-1.3282442748091603
5.81,0.0673828125,-1.00830078125,0.072998046875,-0.6183206106870229,1.8931297709923665,-1.3740458015267176
5.82,0.072998046875,-0.99755859375,0.058837890625,-0.6793893129770993,0.05343511450381679,-1.465648854961832
5.83,0.072998046875,-1.006103515625,0.06884765625,-0.732824427480916,0.11450381679389313,-1.465648854961832
5.84,0.07275390625,-1.00048828125,0.062744140625,-0.5877862595419847,-0.1297709923664122,-1.3893129770992367
5.85,0.076171875,-1.007568359375,0.068603515625,-0.17557251908396945,-0.22900763358778625,-1.2290076335877862
5.86,0.0693359375,-1.0146484375,0.0712890625,-0.022900763358778626,-0.2748091603053435,-1.4045801526717556
5.87,0.06396484375,-1.00634765625,0.06298828125,-0.2595419847328244,-0.061068702290076333,-1.4351145038167938
5.88,0.0673828125,-1.001708984375,0.065673828125,-0.2748091603053435,0.030534351145038167,-1.3511450381679388
5.89,0.071533203125,-1.005126953125,0.073486328125,-0.5954198473282443,-1.900763358778626,-1.4885496183206106
5.9,0.06591796875,-1.007080078125,0.059814453125,-0.6335877862595419,-1.916030534351145,-1.4961832061068703
5.91,0.06396484375,-0.986083984375,0.06591796875,-0.6259541984732825,-0.06870229007633588,-1.3587786259541985
5.92,0.0693359375,-1.001953125,0.057373046875,-0.1984732824427481,-0.0916030534351145,-1.4885496183206106
5.93,0.068359375,-1.002685546875,0.065673828125,-0.24427480916030533,-1.9236641221374047,-1.3587786259541985
5.94,0.0732421875,-1.004150390625,0.048095703125,-0.13740458015267176,-0.29770992366412213,-1.4122137404580153
5.95,0.0751953125,-1.00048828125,0.060302734375,-0.48091603053435117,-0.0916030534351145,-1.4351145038167938
5.96,0.06201171875,-0.999755859375,0.064208984375,-0.5801526717557252,-0.1984732824427481,-1.4809160305343512
5.97,0.072265625,-0.999755859375,0.072509765625,-0.816793893129771,-1.900763358778626,-1.2900763358778626
5.98,0.074462890625,-0.989013671875,0.06201171875,-0.6641221374045801,0.06870229007633588,-1.4427480916030535
5.99,0.0712890625,-1.015380859375,0.07763671875,-0.3893129770992366,-0.030534351145038167,-1.282442748091603
6.0,0.07177734375,-1.005126953125,0.068603515625,-0.24427480916030533,0.17557251908396945,-1.2900763358778626
6.01,0.071533203125,-0.99658203125,0.0634765625,-0.40458015267175573,-0.17557251908396945,-1.450381679389313
6.02,0.071533203125,-1.00390625,0.06494140625,-0.3816793893129771,-0.15267175572519084,-1.3358778625954197
6.03,0.0703125,-1.004638671875,0.07177734375,-0.6946564885496184,-0.03816793893129771,-1.3435114503816794
6.04,0.069091796875,-0.996826171875,0.068359375,-0.7709923664122137,-0.11450381679389313,-1.2595419847328244
6.05,0.07080078125,-1.00146484375,0.0556640625,-0.5954198473282443,-0.26717557251908397,-1.381679389312977
6.06,0.069580078125,-1.000732421875,0.05517578125,-0.16793893129770993,0.05343511450381679,-1.3740458015267176
6.07,0.07080078125,-1.00439453125,0.048583984375,-0.32061068702290074,-1.9083969465648856,-1.1526717557251909
6.08,0.0673828125,-0.99853515625,0.071044921875,-0.46564885496183206,-0.030534351145038167,-1.4198473282442747
6.09,0.06787109375,-1.006591796875,0.069580078125,-0.6030534351145038,-0.11450381679389313,-1.3129770992366412
6.1,0.06494140625,-0.996826171875,0.068603515625,-0.8091603053435115,1.7557251908396947,-1.4732824427480915
6.11,0.0634765625,-1.0087890625,0.068359375,-0.6946564885496184,-0.12213740458015267,-1.618320610687023
6.12,0.069091796875,-1.00732421875,0.069580078125,-0.7022900763358778,0.030534351145038167,-1.4351145038167938
6.13,0.069580078125,-1.010498046875,0.06494140625,-0.1297709923664122,-0.22137404580152673,-1.2061068702290076
6.14,0.06787109375,-1.0068359375,0.063232421875,-0.17557251908396945,1.8778625954198473,-1.465648854961832
6.15,0.07177734375,-1.005126953125,0.076416015625,-0.4961832061068702,0.04580152671755725,-1.366412213740458
6.16,0.069091796875,-1.001220703125,0.07080078125,-0.5801526717557252,-0.05343511450381679,-1.3435114503816794
6.17,0.072265625,-1.00634765625,0.05810546875,-0.5877862595419847,-0.19083969465648856,-1.4885496183206106
6.18,0.065185546875,-0.997314453125,0.061279296875,-0.7022900763358778,0.1297709923664122,-1.3435114503816794
6.19,0.0712890625,-1.000244140625,0.058349609375,-0.4198473282442748,-0.0916030534351145,-1.2595419847328244
6.2,0.068359375,-0.98974609375,0.078857421875,-0.21374045801526717,-0.022900763358778626,-1.4580152671755726
6.21,0.07666015625,-1.005615234375,0.06982421875,-0.22900763358778625,0.1297709923664122,-1.366412213740458
6.22,0.0732421875,-1.008056640625,0.06103515625,-0.3816793893129771,1.9312977099236641,-1.4885496183206106
6.23,0.0654296875,-0.997314453125,0.06982421875,-0.44274809160305345,-0.20610687022900764,-1.3282442748091603
6.24,0.068603515625,-1.001953125,0.07080078125,-0.5725190839694656,-0.12213740458015267,-1.5038167938931297
6.25,0.06884765625,-1.007568359375,0.067138671875,-0.7480916030534351,-0.10687022900763359,-1.297709923664122
6.26,0.0625,-1.00390625,0.067626953125,-0.5190839694656488,-0.061068702290076333,-1.4045801526717556
6.27,0.067138671875,-1.001953125,0.06640625,-0.3053435114503817,-0.061068702290076333,-1.381679389312977
6.28,0.069580078125,-1.00390625,0.073486328125,-0.42748091603053434,1.83206106870229,-1.4045801526717556
6.29,0.0712890625,-1.002685546875,0.057373046875,-0.1984732824427481,-0.11450381679389313,-1.5572519083969465
6.3,0.07177734375,-1.003662109375,0.06884765625,-0.4961832061068702,1.9389312977099236,-1.4351145038167938
6.31,0.072509765625,-0.999267578125,0.060546875,-0.37404580152671757,-0.08396946564885496,-1.282442748091603
6.32,0.065673828125,-1.005615234375,0.06298828125,-0.48091603053435117,-0.05343511450381679,-1.3053435114503817
6.33,0.068603515625,-0.99951171875,0.0732421875,-0.3893129770992366,-0.07633587786259542,-1.2748091603053435
6.34,0.071533203125,-1.002685546875,0.06591796875,-0.48091603053435117,1.8854961832061068,-1.251908396946565
6.35,0.069091796875,-1.00146484375,0.07666015625,-0.366412213740458,-0.09923664122137404,-1.3969465648854962
6.36,0.068359375,-0.984619140625,0.064208984375,-0.5038167938931297,-1.8931297709923665,-1.381679389312977
6.37,0.066162109375,-1.000732421875,0.0732421875,-0.6183206106870229,0.03816793893129771,-1.2595419847328244
6.38,0.0703125,-1.0068359375,0.067138671875,-0.4961832061068702,-1.9541984732824427,-1.5190839694656488
6.39,0.0693359375,-1.0,0.069091796875,-0.48854961832061067,-0.3282442748091603,-1.3206106870229009
6.4,0.06689453125,-1.004638671875,0.071044921875,-0.366412213740458,-0.1297709923664122,-1.4427480916030535
6.41,0.0673828125,-0.995849609375,0.061767578125,-0.3053435114503817,-0.0916030534351145,-1.4122137404580153
6.42,0.072509765625,-0.989013671875,0.071533203125,-0.06870229007633588,0.31297709923664124,-1.4122137404580153
6.43,0.062744140625,-1.0126953125,0.07470703125,-0.31297709923664124,1.9312977099236641,-1.2595419847328244
6.44,0.07177734375,-1.001953125,0.0703125,-0.5954198473282443,-0.16030534351145037,-1.3511450381679388
6.45,0.07080078125,-1.00390625,0.073486328125,-0.8320610687022901,-0.15267175572519084,-1.3129770992366412
6.46,0.07177734375,-1.007568359375,0.069091796875,-0.5038167938931297,-0.1297709923664122,-1.4885496183206106
6.47,0.072021484375,-1.00146484375,0.06396484375,-0.4198473282442748,-0.061068702290076333,-1.1755725190839694
6.48,0.0712890625,-1.001953125,0.063232421875,-0.2366412213740458,0.030534351145038167,-1.5190839694656488
6.49,0.072021484375,-1.014404296875,0.067138671875,-0.061068702290076333,-0.11450381679389313,-1.5114503816793894
6.5,0.072509765625,-0.9873046875,0.071533203125,-0.3816793893129771,-0.3053435114503817,-1.4427480916030535
6.51,0.069091796875,-1.002197265625,0.07177734375,-0.8015267175572519,0.11450381679389313,-1.4122137404580153
6.52,0.060791015625,-0.995849609375,0.0693359375,-0.7709923664122137,-0.24427480916030533,-1.3282442748091603
6.53,0.0703125,-0.9970703125,0.066162109375,-0.6870229007633588,0.16793893129770993,-1.183206106870229
6.54,0.06787109375,-1.00634765625,0.057373046875,-0.42748091603053434,-0.15267175572519084,-1.6412213740458015
6.55,0.067138671875,-1.002197265625,0.065673828125,-0.5419847328244275,-0.19083969465648856,-1.4732824427480915
6.56,0.065673828125,-1.000732421875,0.064697265625,-0.22137404580152673,1.9236641221374047,-1.4885496183206106
6.57,0.072998046875,-1.014892578125,0.065185546875,-0.17557251908396945,0.022900763358778626,-1.3358778625954197
6.58,0.072509765625,-1.001708984375,0.066650390625,-0.5877862595419847,1.8702290076335877,-1.297709923664122
6.59,0.067626953125,-1.000244140625,0.0595703125,-0.7633587786259542,-0.1297709923664122,-1.3435114503816794
6.6,0.07177734375,-1.006103515625,0.071044921875,-0.7709923664122137,-0.19083969465648856,-1.4732824427480915
6.61,0.069580078125,-1.004150390625,0.069580078125,-0.6183206106870229,0.007633587786259542,-1.2442748091603053
6.62,0.0703125,-1.01318359375,0.070068359375,-0.46564885496183206,-1.9541984732824427,-1.4045801526717556
6.63,0.066162109375,-0.986083984375,0.062744140625,-0.46564885496183206,-1.916030534351145,-1.251908396946565
6.64,0.072509765625,-1.001220703125,0.077392578125,-0.4198473282442748,-0.21374045801526717,-1.2595419847328244
6.65,0.0693359375,-1.005615234375,0.063232421875,-0.25190839694656486,-0.15267175572519084,-1.4198473282442747
6.66,0.068115234375,-1.0048828125,0.066650390625,-0.4351145038167939,1.9312977099236641,-1.282442748091603
6.67,0.0673828125,-1.006103515625,0.07080078125,-0.549618320610687,-0.15267175572519084,-1.465648854961832
6.68,0.071044921875,-1.00146484375,0.0712890625,-0.5954198473282443,-0.022900763358778626,-1.3969465648854962
6.69,0.0625,-1.00146484375,0.072265625,-0.3816793893129771,0.05343511450381679,-1.549618320610687
6.7,0.066162109375,-1.01513671875,0.0673828125,-0.5343511450381679,1.8931297709923665,-1.3969465648854962
6.71,0.064697265625,-1.005126953125,0.064697265625,-0.5572519083969466,-0.10687022900763359,-1.3206106870229009
6.72,0.068115234375,-1.001953125,0.06005859375,-0.22137404580152673,-0.17557251908396945,-1.2595419847328244
6.73,0.06982421875,-1.0009765625,0.0693359375,-0.3282442748091603,0.030534351145038167,-1.5954198473282444
6.74,0.074951171875,-1.001220703125,0.06298828125,-0.19083969465648856,-0.1984732824427481,-1.3282442748091603
6.75,0.0693359375,-1.00048828125,0.07568359375,-0.3969465648854962,-0.1450381679389313,-1.4122137404580153
6.76,0.067138671875,-1.00244140625,0.06201171875,-0.3511450381679389,-0.16793893129770993,-1.4809160305343512
6.77,0.074951171875,-0.987060546875,0.06591796875,-0.6030534351145038,-0.08396946564885496,-1.3511450381679388
6.78,0.069091796875,-1.006103515625,0.07763671875,-0.7786259541984732,-0.21374045801526717,-1.5725190839694656
6.79,0.07861328125,-0.999755859375,0.075439453125,-0.6183206106870229,0.13740458015267176,-1.3893129770992367
6.8,0.0712890625,-1.003662109375,0.064453125,-0.1984732824427481,-0.10687022900763359,-1.2213740458015268
6.81,0.070068359375,-0.99853515625,0.055908203125,-0.12213740458015267,1.9465648854961832,-1.4274809160305344
6.82,0.067138671875,-1.0009765625,0.0654296875,-0.20610687022900764,-0.1297709923664122,-1.5267175572519085
6.83,0.068603515625,-1.00048828125,0.0693359375,-0.29770992366412213,0.007633587786259542,-1.3740458015267176
6.84,0.06787109375,-1.003662109375,0.066650390625,-0.44274809160305345,-1.9389312977099236,-1.4122137404580153
6.85,0.086181640625,-1.00732421875,0.07470703125,-0.7480916030534351,-0.17557251908396945,-1.3206106870229009
6.86,0.066162109375,-1.00927734375,0.051513671875,-0.732824427480916,-0.022900763358778626,-1.381679389312977
6.87,0.071533203125,-1.002685546875,0.063720703125,-0.5343511450381679,0.04580152671755725,-1.5190839694656488
6.88,0.074951171875,-1.004638671875,0.070068359375,-0.3282442748091603,-0.2366412213740458,-1.5190839694656488
6.89,0.072265625,-0.997314453125,0.06787109375,-0.2824427480916031,-1.8854961832061068,-1.3587786259541985
6.9,0.06787109375,-1.003173828125,0.06005859375,-0.32061068702290074,-0.15267175572519084,-1.465648854961832
6.91,0.072509765625,-1.00146484375,0.07275390625,-0.366412213740458,0.04580152671755725,-1.183206106870229
6.92,0.06982421875,-1.0146484375,0.0556640625,-0.5267175572519084,-0.09923664122137404,-1.6259541984732824
6.93,0.070556640625,-1.000732421875,0.075439453125,-0.6717557251908397,0.08396946564885496,-1.3587786259541985
6.94,0.0712890625,-1.00146484375,0.069091796875,-0.6946564885496184,-0.1450381679389313,-1.3282442748091603
6.95,0.072021484375,-1.00048828125,0.064453125,-0.48854961832061067,-0.15267175572519084,-1.2748091603053435
6.96,0.069091796875,-1.00048828125,0.065185546875,-0.46564885496183206,-0.0916030534351145,-1.3969465648854962
6.97,0.073974609375,-1.002197265625,0.062744140625,-0.26717557251908397,-0.08396946564885496,-1.4580152671755726
6.98,0.067626953125,-0.9970703125,0.0654296875,-0.22137404580152673,-0.12213740458015267,-1.5038167938931297
6.99,0.071044921875,-1.013916015625,0.07568359375,-0.549618320610687,-0.03816793893129771,-1.5114503816793894
7.0,0.070556640625,-0.996337890625,0.07080078125,-0.4961832061068702,-0.20610687022900764,-1.4580152671755726
7.01,0.064453125,-1.008056640625,0.0703125,-0.48854961832061067,-1.9312977099236641,-1.297709923664122
7.02,0.070556640625,-1.00439453125,0.07666015625,-0.2824427480916031,-0.1297709923664122,-1.282442748091603
7.03,0.072265625,-1.00830078125,0.065185546875,-0.4351145038167939,0.030534351145038167,-1.4885496183206106
7.04,0.071044921875,-1.00634765625,0.05859375,-0.5038167938931297,1.916030534351145,-1.4274809160305344
7.05,0.06982421875,-0.99072265625,0.072998046875,-0.7022900763358778,0.061068702290076333,-1.297709923664122
7.06,0.0751953125,-1.00732421875,0.069091796875,-0.48091603053435117,-0.22137404580152673,-1.450381679389313
7.07,0.0712890625,-1.001953125,0.065673828125,-0.6106870229007634,-1.9236641221374047,-1.4045801526717556
7.08,0.065673828125,-1.005859375,0.076171875,-0.3969465648854962,-0.17557251908396945,-1.366412213740458
7.09,0.07080078125,-0.9970703125,0.07080078125,-0.13740458015267176,-0.07633587786259542,-1.3053435114503817
7.1,0.065673828125,-1.00634765625,0.064697265625,-0.4198473282442748,1.916030534351145,-1.1755725190839694
7.11,0.072509765625,-1.006591796875,0.0673828125,-0.45038167938931295,-0.030534351145038167,-1.4732824427480915
7.12,0.070068359375,-1.0068359375,0.0615234375,-0.40458015267175573,0.06870229007633588,-1.2671755725190839
7.13,0.066162109375,-1.0009765625,0.064697265625,-0.6030534351145038,-0.2595419847328244,-1.534351145038168
7.14,0.072509765625,-0.997802734375,0.077392578125,-0.4961832061068702,-0.10687022900763359,-1.4045801526717556
7.15,0.0703125,-1.0048828125,0.06396484375,-0.5038167938931297,-0.09923664122137404,-1.5725190839694656
7.16,0.06689453125,-1.001953125,0.055419921875,-0.40458015267175573,-0.21374045801526717,-1.4351145038167938
7.17,0.073974609375,-1.001953125,0.065673828125,-0.1450381679389313,-0.183206106870229,-1.4045801526717556
7.18,0.069091796875,-1.006103515625,0.0751953125,-0.2595419847328244,-0.022900763358778626,-1.3206106870229009
7.19,0.0703125,-1.01513671875,0.067138671875,-0.48091603053435117,-1.8854961832061068,-1.2595419847328244
7.2,0.0654296875,-1.01513671875,0.0771484375,-0.5267175572519084,-0.13740458015267176,-1.282442748091603
7.21,0.0712890625,-0.98876953125,0.0498046875,-0.4122137404580153,-0.0916030534351145,-1.4045801526717556
7.22,0.07177734375,-1.004150390625,0.06982421875,-0.5801526717557252,-0.08396946564885496,-1.5038167938931297
7.23,0.07275390625,-1.007080078125,0.06494140625,-0.20610687022900764,0.022900763358778626,-1.3893129770992367
7.24,0.075927734375,-1.005126953125,0.06591796875,-0.25190839694656486,-0.09923664122137404,-1.3740458015267176
7.25,0.0712890625,-1.004638671875,0.065673828125,-0.24427480916030533,-0.09923664122137404,-1.5267175572519085
7.26,0.071533203125,-1.01513671875,0.06689453125,-0.5954198473282443,1.9312977099236641,-1.2900763358778626
7.27,0.069580078125,-1.0009765625,0.0654296875,-0.5038167938931297,-0.06870229007633588,-1.251908396946565
7.28,0.06591796875,-1.014892578125,0.07080078125,-0.5038167938931297,0.007633587786259542,-1.4274809160305344
7.29,0.070556640625,-1.001708984375,0.06298828125,-0.4198473282442748,-0.07633587786259542,-1.4427480916030535
7.3,0.0751953125,-1.001708984375,0.06591796875,-0.3816793893129771,0.08396946564885496,-1.4045801526717556
7.31,0.0751953125,-1.00244140625,0.0615234375,-0.3053435114503817,0.08396946564885496,-1.3893129770992367
7.32,0.069091796875,-1.00390625,0.0673828125,-0.4122137404580153,0.015267175572519083,-1.3740458015267176
7.33,0.06884765625,-1.002197265625,0.0654296875,-0.3893129770992366,-0.12213740458015267,-1.450381679389313
7.34,0.07373046875,-1.005126953125,0.07763671875,-0.6870229007633588,-0.10687022900763359,-1.4122137404580153
7.35,0.064208984375,-1.011474609375,0.06396484375,-0.48854961832061067,-1.9236641221374047,-1.4809160305343512
7.36,0.070068359375,-1.00244140625,0.0771484375,-0.3969465648854962,-0.061068702290076333,-1.465648854961832
7.37,0.070068359375,-0.99951171875,0.068603515625,-0.33587786259541985,-0.20610687022900764,-1.3053435114503817
7.38,0.0712890625,-1.0029296875,0.069091796875,-0.3282442748091603,-0.16030534351145037,-1.2442748091603053
7.39,0.072265625,-1.004150390625,0.066162109375,-0.3435114503816794,-0.04580152671755725,-1.1908396946564885
7.4,0.07470703125,-1.002197265625,0.0625,-0.37404580152671757,-0.03816793893129771,-1.3893129770992367
7.41,0.067138671875,-1.0146484375,0.0673828125,-0.3893129770992366,-0.08396946564885496,-1.4961832061068703
7.42,0.06689453125,-1.002197265625,0.06884765625,-0.648854961832061,-0.1297709923664122,-1.4351145038167938
7.43,0.067626953125,-1.0048828125,0.06884765625,-0.48854961832061067,-0.16030534351145037,-1.2595419847328244
7.44,0.068115234375,-0.99365234375,0.0595703125,-0.3282442748091603,0.19083969465648856,-1.4885496183206106
7.45,0.069580078125,-1.0029296875,0.073486328125,-0.5190839694656488,-0.1984732824427481,-1.2900763358778626
7.46,0.069091796875,-1.008056640625,0.059814453125,-0.25190839694656486,-0.13740458015267176,-1.3206106870229009
7.47,0.069091796875,-1.0,0.0712890625,-0.40458015267175573,-0.1984732824427481,-1.3435114503816794
7.48,0.067626953125,-1.00390625,0.077392578125,-0.33587786259541985,-0.1450381679389313,-1.381679389312977
7.49,0.076171875,-1.0048828125,0.0693359375,-0.4732824427480916,-0.06870229007633588,-1.3358778625954197
7.5,0.073486328125,-0.984619140625,0.067138671875,-0.5801526717557252,0.16030534351145037,-1.2442748091603053
7.51,0.075439453125,-0.99951171875,0.070556640625,-0.7480916030534351,0.05343511450381679,-1.6259541984732824
7.52,0.065673828125,-1.004638671875,0.059326171875,-0.45038167938931295,-0.24427480916030533,-1.2442748091603053
7.53,0.07177734375,-0.998779296875,0.064453125,-0.4351145038167939,-0.061068702290076333,-1.3893129770992367
7.54,0.064697265625,-1.00634765625,0.066650390625,-0.48091603053435117,-0.15267175572519084,-1.2900763358778626
7.55,0.069091796875,-1.00390625,0.075927734375,-0.366412213740458,-1.9465648854961832,-1.2213740458015268
7.56,0.07568359375,-1.00927734375,0.067626953125,-0.2366412213740458,-0.16030534351145037,-1.4809160305343512
7.57,0.073974609375,-1.0009765625,0.06787109375,-0.45038167938931295,-0.10687022900763359,-1.2900763358778626
7.58,0.068115234375,-1.0048828125,0.07177734375,-0.4732824427480916,-0.061068702290076333,-1.3129770992366412
7.59,0.068603515625,-1.00341796875,0.064697265625,-0.5801526717557252,-0.12213740458015267,-1.4045801526717556
7.6,0.07470703125,-1.001953125,0.06689453125,-0.6259541984732825,0.007633587786259542,-1.183206106870229
7.61,0.0732421875,-1.00244140625,0.064208984375,-0.6335877862595419,-0.22900763358778625,-1.381679389312977
7.62,0.067626953125,-0.9892578125,0.0673828125,-0.4122137404580153,0.08396946564885496,-1.2900763358778626
7.63,0.06494140625,-1.001953125,0.075439453125,-0.33587786259541985,-0.04580152671755725,-1.3358778625954197
7.64,0.0732421875,-0.9990234375,0.07080078125,-0.46564885496183206,-0.17557251908396945,-1.3053435114503817
7.65,0.068603515625,-1.0,0.0634765625,-0.5877862595419847,-0.24427480916030533,-1.4885496183206106
7.66,0.070556640625,-0.999755859375,0.06787109375,-0.7480916030534351,-0.11450381679389313,-1.282442748091603
7.67,0.071044921875,-1.00048828125,0.067138671875,-0.3435114503816794,0.015267175572519083,-1.1603053435114503
7.68,0.090576171875,-1.00537109375,0.0712890625,-0.0916030534351145,1.9312977099236641,-1.4351145038167938
7.69,0.071044921875,-1.0009765625,0.06298828125,-0.09923664122137404,-0.2366412213740458,-1.4122137404580153
7.7,0.07373046875,-1.01416015625,0.07275390625,-0.3053435114503817,-0.061068702290076333,-1.3053435114503817
7.71,0.0673828125,-1.00244140625,0.063232421875,-0.6259541984732825,-0.022900763358778626,-1.2290076335877862
7.72,0.072998046875,-1.002685546875,0.066162109375,-0.549618320610687,-0.10687022900763359,-1.4351145038167938
7.73,0.07373046875,-1.0,0.068115234375,-0.4580152671755725,-0.16793893129770993,-1.251908396946565
7.74,0.070068359375,-1.000244140625,0.05810546875,-0.3053435114503817,-0.25190839694656486,-1.2213740458015268
7.75,0.076416015625,-1.004638671875,0.0654296875,-0.32061068702290074,-0.0916030534351145,-1.3129770992366412
7.76,0.066162109375,-1.015380859375,0.066650390625,-0.37404580152671757,0.06870229007633588,-1.381679389312977
7.77,0.066650390625,-1.003173828125,0.068603515625,-0.6641221374045801,-0.1450381679389313,-1.5572519083969465
7.78,0.0712890625,-0.98828125,0.076416015625,-0.5572519083969466,0.12213740458015267,-1.251908396946565
7.79,0.073486328125,-1.001220703125,0.068603515625,-0.29770992366412213,-0.11450381679389313,-1.4580152671755726
7.8,0.06884765625,-0.996337890625,0.082763671875,-0.3053435114503817,0.030534351145038167,-1.381679389312977
7.81,0.06982421875,-1.004638671875,0.069091796875,-0.46564885496183206,0.16793893129770993,-1.381679389312977
7.82,0.073486328125,-1.002197265625,0.063720703125,-0.32061068702290074,-0.11450381679389313,-1.3969465648854962
7.83,0.072265625,-1.004150390625,0.06884765625,-0.549618320610687,-0.12213740458015267,-1.450381679389313
7.84,0.0693359375,-1.001708984375,0.073486328125,-0.6717557251908397,-0.183206106870229,-1.381679389312977
7.85,0.069091796875,-0.98876953125,0.066650390625,-0.45038167938931295,-0.07633587786259542,-1.5419847328244274
7.86,0.073974609375,-1.002685546875,0.06005859375,-0.31297709923664124,-0.16793893129770993,-1.3435114503816794
7.87,0.07373046875,-1.010498046875,0.06494140625,-0.15267175572519084,1.9389312977099236,-1.5267175572519085
7.88,0.072265625,-0.997314453125,0.071533203125,-0.25190839694656486,-0.07633587786259542,-1.282442748091603
7.89,0.073974609375,-1.003662109375,0.068115234375,-0.13740458015267176,-0.19083969465648856,-1.4274809160305344
7.9,0.067626953125,-0.98486328125,0.069580078125,-0.5801526717557252,-0.1297709923664122,-1.4580152671755726
7.91,0.063232421875,-1.00634765625,0.076171875,-0.9541984732824428,-0.15267175572519084,-1.3893129770992367
7.92,0.070556640625,-0.998046875,0.05078125,-0.7175572519083969,-0.10687022900763359,-1.3206106870229009
7.93,0.069580078125,-1.001708984375,0.074951171875,-0.549618320610687,-0.08396946564885496,-1.5190839694656488
7.94,0.072998046875,-1.0048828125,0.064697265625,-0.25190839694656486,0.022900763358778626,-1.2595419847328244
7.95,0.071044921875,-1.005615234375,0.06689453125,-0.183206106870229,0.007633587786259542,-1.534351145038168
7.96,0.068359375,-1.003173828125,0.0712890625,-0.21374045801526717,-0.0916030534351145,-1.4351145038167938
7.97,0.07568359375,-1.007080078125,0.06640625,-0.5572519083969466,0.05343511450381679,-1.282442748091603
7.98,0.066650390625,-1.003662109375,0.064453125,-0.648854961832061,-0.22137404580152673,-1.4809160305343512
7.99,0.065673828125,-1.015625,0.067626953125,-0.9083969465648855,0.015267175572519083,-1.4122137404580153
8.0,0.073486328125,-1.006103515625,0.070068359375,-0.6793893129770993,-0.12213740458015267,-1.282442748091603
8.01,0.07373046875,-1.001953125,0.056640625,-0.3893129770992366,0.05343511450381679,-1.4351145038167938
8.02,0.068115234375,-1.006103515625,0.06884765625,-0.16793893129770993,0.11450381679389313,-1.297709923664122
8.03,0.071533203125,-1.00390625,0.0654296875,-0.22900763358778625,0.015267175572519083,-1.549618320610687
8.04,0.06787109375,-0.999755859375,0.073486328125,-0.24427480916030533,-0.2900763358778626,-1.4351145038167938
8.05,0.069580078125,-1.005126953125,0.064697265625,-0.5725190839694656,-0.21374045801526717,-1.3740458015267176
8.06,0.068115234375,-1.011962890625,0.069580078125,-0.9541984732824428,0.03816793893129771,-1.3969465648854962
8.07,0.07275390625,-1.002197265625,0.076416015625,-0.6030534351145038,-0.15267175572519084,-1.2748091603053435
8.08,0.073974609375,-1.00341796875,0.05908203125,-0.5419847328244275,0.007633587786259542,-1.450381679389313
8.09,0.072265625,-1.0068359375,0.068603515625,-0.3053435114503817,-0.0916030534351145,-1.3587786259541985
8.1,0.065673828125,-1.006103515625,0.054443359375,-1.9541984732824427,1.9389312977099236,-1.5190839694656488
8.11,0.07080078125,-1.0107421875,0.06787109375,-0.22900763358778625,-0.17557251908396945,-1.5114503816793894
8.12,0.066162109375,-1.01123046875,0.076904296875,-0.16793893129770993,0.061068702290076333,-1.366412213740458
8.13,0.070556640625,-1.0107421875,0.07177734375,-0.6259541984732825,-0.04580152671755725,-1.465648854961832
8.14,0.067138671875,-1.001220703125,0.076904296875,-0.5877862595419847,-0.07633587786259542,-1.4427480916030535
8.15,0.0751953125,-1.003173828125,0.064208984375,-0.5877862595419847,-0.17557251908396945,-1.2290076335877862
8.16,0.076416015625,-1.004638671875,0.06689453125,-0.3511450381679389,0.04580152671755725,-1.3435114503816794
8.17,0.07177734375,-1.001708984375,0.062744140625,-0.16793893129770993,0.08396946564885496,-1.4732824427480915
8.18,0.077880859375,-1.0068359375,0.064453125,-0.1450381679389313,-0.15267175572519084,-1.3740458015267176
8.19,0.070068359375,-1.0078125,0.062744140625,-0.35877862595419846,-0.0916030534351145,-1.4961832061068703
8.2,0.0712890625,-1.000732421875,0.076904296875,-0.2366412213740458,-0.06870229007633588,-1.5648854961832062
8.21,0.06787109375,-0.985595703125,0.066162109375,-0.9083969465648855,-0.21374045801526717,-1.2290076335877862
8.22,0.0693359375,-1.0029296875,0.07421875,-0.6335877862595419,-0.19083969465648856,-1.366412213740458
8.23,0.06787109375,-1.001953125,0.072509765625,-0.5419847328244275,-0.15267175572519084,-1.4809160305343512
8.24,0.068603515625,-1.00732421875,0.0703125,-0.2595419847328244,-0.1984732824427481,-1.3511450381679388
8.25,0.076171875,-1.00146484375,0.065673828125,-0.1984732824427481,-0.061068702290076333,-1.3511450381679388
8.26,0.06884765625,-0.9921875,0.0693359375,-0.5343511450381679,-1.9541984732824427,-1.3511450381679388
8.27,0.07275390625,-1.0009765625,0.072265625,-0.366412213740458,-0.2824427480916031,-1.3282442748091603
8.28,0.0732421875,-1.001953125,0.061279296875,-0.549618320610687,-0.1297709923664122,-1.3893129770992367
8.29,0.0712890625,-0.999267578125,0.065673828125,-0.45038167938931295,-0.11450381679389313,-1.4351145038167938
8.3,0.07080078125,-0.998046875,0.06982421875,-0.46564885496183206,-0.0916030534351145,-1.3740458015267176
8.31,0.07080078125,-0.998291015625,0.0693359375,-0.09923664122137404,-0.030534351145038167,-1.4809160305343512
8.32,0.07177734375,-1.00537109375,0.060791015625,-0.183206106870229,-0.07633587786259542,-1.3893129770992367
8.33,0.070068359375,-1.002197265625,0.07373046875,-0.5572519083969466,0.16030534351145037,-1.1908396946564885
8.34,0.066650390625,-0.99951171875,0.049560546875,-0.5038167938931297,-0.12213740458015267,-1.3893129770992367
8.35,0.072509765625,-1.0146484375,0.074462890625,-0.6641221374045801,-0.09923664122137404,-1.297709923664122
8.36,0.07666015625,-0.998779296875,0.077392578125,-0.6412213740458015,-0.20610687022900764,-1.2366412213740459
8.37,0.076904296875,-1.006103515625,0.059326171875,-0.5725190839694656,-0.17557251908396945,-1.4732824427480915
8.38,0.06689453125,-1.001708984375,0.068359375,-0.3053435114503817,1.8931297709923665,-1.4274809160305344
8.39,0.071044921875,-1.001708984375,0.06884765625,-0.3435114503816794,-0.22137404580152673,-1.297709923664122
8.4,0.0703125,-1.00634765625,0.070068359375,-0.22900763358778625,-1.8931297709923665,-1.3358778625954197
8.41,0.070556640625,-0.98828125,0.063232421875,-0.4580152671755725,-0.1984732824427481,-1.2671755725190839
8.42,0.066650390625,-1.008056640625,0.07080078125,-0.4961832061068702,-0.06870229007633588,-1.4427480916030535
8.43,0.06787109375,-1.0009765625,0.0673828125,-0.6183206106870229,-0.061068702290076333,-1.4732824427480915
8.44,0.068359375,-1.005126953125,0.067626953125,-0.5267175572519084,-0.09923664122137404,-1.3358778625954197
8.45,0.070556640625,-1.002685546875,0.059326171875,-0.4122137404580153,-0.04580152671755725,-1.4045801526717556
8.46,0.071533203125,-1.002685546875,0.065673828125,-0.2595419847328244,-0.22137404580152673,-1.4351145038167938
8.47,0.07275390625,-1.003173828125,0.071044921875,-0.2748091603053435,0.0916030534351145,-1.4427480916030535
8.48,0.069091796875,-1.00244140625,0.07763671875,-0.20610687022900764,-0.11450381679389313,-1.366412213740458
8.49,0.074462890625,-1.00732421875,0.076416015625,-0.3053435114503817,-0.007633587786259542,-1.465648854961832
8.5,0.070068359375,-1.006591796875,0.07568359375,-0.5801526717557252,-0.20610687022900764,-1.3740458015267176
8.51,0.068359375,-1.00048828125,0.0703125,-0.6106870229007634,-0.030534351145038167,-1.5114503816793894
8.52,0.070068359375,-1.0009765625,0.06494140625,-0.6030534351145038,1.8931297709923665,-1.3053435114503817
8.53,0.064208984375,-1.008544921875,0.06591796875,-0.3282442748091603,-0.08396946564885496,-1.3893129770992367
8.54,0.068603515625,-1.0029296875,0.0693359375,-0.3435114503816794,-0.24427480916030533,-1.2595419847328244
8.55,0.06884765625,-1.003662109375,0.0732421875,-0.19083969465648856,-0.15267175572519084,-1.1755725190839694
8.56,0.072265625,-1.014892578125,0.06640625,-0.007633587786259542,-0.08396946564885496,-1.381679389312977
8.57,0.0703125,-1.0048828125,0.06884765625,-0.3511450381679389,-0.09923664122137404,-1.1374045801526718
8.58,0.073486328125,-0.996826171875,0.0712890625,-0.5114503816793893,-0.1297709923664122,-1.4045801526717556
8.59,0.06884765625,-1.00341796875,0.066162109375,-1.1145038167938932,-1.9236641221374047,-1.4122137404580153
8.6,0.06640625,-1.00390625,0.07568359375,-0.6870229007633588,-0.1984732824427481,-1.3206106870229009
8.61,0.07470703125,-0.99072265625,0.060546875,-0.5038167938931297,-0.007633587786259542,-1.3206106870229009
8.62,0.075927734375,-1.003173828125,0.05908203125,-0.366412213740458,0.0,-1.4885496183206106
8.63,0.072998046875,-1.009765625,0.060546875,-0.2824427480916031,-0.05343511450381679,-1.1908396946564885
8.64,0.07470703125,-0.99951171875,0.0673828125,-0.19083969465648856,0.20610687022900764,-1.4732824427480915
8.65,0.07421875,-0.9970703125,0.072021484375,-0.2900763358778626,-0.0916030534351145,-1.297709923664122
8.66,0.063232421875,-1.004638671875,0.06396484375,-0.40458015267175573,-1.9236641221374047,-1.4351145038167938
8.67,0.070068359375,-1.001220703125,0.06982421875,-0.8091603053435115,-0.06870229007633588,-1.3893129770992367
8.68,0.072021484375,-1.003173828125,0.068359375,-0.7099236641221374,-0.04580152671755725,-1.4580152671755726
8.69,0.065185546875,-1.00537109375,0.073974609375,-0.2748091603053435,-1.9389312977099236,-1.2061068702290076
8.7,0.067626953125,-1.00390625,0.062744140625,-0.366412213740458,-0.04580152671755725,-1.2290076335877862
8.71,0.0693359375,-0.9990234375,0.070068359375,-0.3893129770992366,0.06870229007633588,-1.450381679389313
8.72,0.06591796875,-1.006103515625,0.06640625,-0.20610687022900764,0.05343511450381679,-1.4961832061068703
8.73,0.0693359375,-1.001953125,0.06787109375,-0.5725190839694656,-0.12213740458015267,-1.2442748091603053
8.74,0.068115234375,-0.998779296875,0.066162109375,-0.7786259541984732,-0.24427480916030533,-1.2900763358778626
8.75,0.072998046875,-1.004150390625,0.063720703125,-0.4732824427480916,-0.015267175572519083,-1.2442748091603053
8.76,0.06591796875,-1.012939453125,0.0693359375,-0.4198473282442748,-0.030534351145038167,-1.3358778625954197
8.77,0.0712890625,-1.009033203125,0.060546875,-0.48854961832061067,-0.03816793893129771,-1.3358778625954197
8.78,0.0712890625,-1.0009765625,0.062744140625,-0.4198473282442748,-0.13740458015267176,-1.5038167938931297
8.79,0.075439453125,-1.003173828125,0.072509765625,-0.3511450381679389,-1.9083969465648856,-1.381679389312977
8.8,0.072998046875,-1.0029296875,0.069091796875,-0.6259541984732825,-0.13740458015267176,-1.4045801526717556
8.81,0.06591796875,-1.000732421875,0.06640625,-0.4580152671755725,0.21374045801526717,-1.366412213740458
8.82,0.0703125,-1.0048828125,0.069091796875,-0.3053435114503817,-0.1450381679389313,-1.5801526717557253
8.83,0.072021484375,-0.989990234375,0.06591796875,-0.3511450381679389,-0.0916030534351145,-1.4351145038167938
8.84,0.069580078125,-1.004638671875,0.06298828125,-0.366412213740458,1.9465648854961832,-1.3358778625954197
8.85,0.068359375,-1.001953125,0.073486328125,-0.4961832061068702,-0.22137404580152673,-1.4351145038167938
8.86,0.069091796875,-1.0048828125,0.0693359375,-0.48091603053435117,-1.9083969465648856,-1.2442748091603053
8.87,0.07373046875,-0.99951171875,0.060791015625,-0.35877862595419846,0.07633587786259542,-1.6488549618320612
8.88,0.0751953125,-0.999267578125,0.072265625,-0.5267175572519084,-0.08396946564885496,-1.2442748091603053
8.89,0.0703125,-1.00634765625,0.06640625,-0.32061068702290074,-0.09923664122137404,-1.465648854961832
8.9,0.0751953125,-0.986083984375,0.06982421875,-0.3893129770992366,-0.08396946564885496,-1.4122137404580153
8.91,0.070068359375,-1.003173828125,0.07275390625,-0.35877862595419846,-0.1297709923664122,-1.3435114503816794
8.92,0.070556640625,-0.99951171875,0.061767578125,-0.5190839694656488,-0.06870229007633588,-1.1145038167938932
8.93,0.065673828125,-1.003662109375,0.066162109375,-0.648854961832061,-0.03816793893129771,-1.5038167938931297
8.94,0.068603515625,-1.0087890625,0.064453125,-0.549618320610687,-0.1297709923664122,-1.3053435114503817
8.95,0.065673828125,-1.009521484375,0.06494140625,-0.7099236641221374,-0.09923664122137404,-1.5190839694656488
8.96,0.07275390625,-1.00244140625,0.066650390625,-0.2900763358778626,-0.22900763358778625,-1.2366412213740459
8.97,0.073974609375,-1.000244140625,0.065673828125,-0.45038167938931295,-0.29770992366412213,-1.549618320610687
8.98,0.068115234375,-0.99951171875,0.06689453125,-0.366412213740458,1.9465648854961832,-1.4809160305343512
8.99,0.0712890625,-1.002197265625,0.0625,-0.13740458015267176,0.04580152671755725,-1.381679389312977
9.0,0.071044921875,-1.001953125,0.072509765625,-0.3969465648854962,-0.32061068702290074,-1.2366412213740459
9.01,0.071044921875,-1.00537109375,0.06884765625,-0.5572519083969466,1.900763358778626,-1.2061068702290076
9.02,0.0732421875,-1.000244140625,0.064453125,-0.7022900763358778,-0.05343511450381679,-1.3358778625954197
9.03,0.06494140625,-1.008056640625,0.072509765625,-0.48854961832061067,-0.05343511450381679,-1.3282442748091603
9.04,0.070556640625,-1.005126953125,0.064453125,-0.5038167938931297,-0.12213740458015267,-1.4045801526717556
9.05,0.072021484375,-1.00390625,0.07373046875,-0.26717557251908397,-0.061068702290076333,-1.450381679389313
9.06,0.067626953125,-1.0068359375,0.066650390625,-0.22900763358778625,-0.1450381679389313,-1.3282442748091603
9.07,0.078857421875,-0.99951171875,0.07080078125,1.9389312977099236,0.0,-1.2213740458015268
9.08,0.0751953125,-1.0068359375,0.064453125,-0.3435114503816794,-1.9465648854961832,-1.3740458015267176
9.09,0.06591796875,-1.004150390625,0.072509765625,-0.5267175572519084,-0.05343511450381679,-1.3511450381679388
9.1,0.073486328125,-0.999267578125,0.06640625,-0.5877862595419847,-0.12213740458015267,-1.4274809160305344
9.11,0.073486328125,-0.9990234375,0.0732421875,-0.5267175572519084,1.9389312977099236,-1.549618320610687
9.12,0.0654296875,-0.98779296875,0.071044921875,-0.44274809160305345,-0.015267175572519083,-1.16793893129771
9.13,0.075439453125,-1.006591796875,0.07373046875,-0.4198473282442748,-0.25190839694656486,-1.5038167938931297
9.14,0.07080078125,-0.9990234375,0.06396484375,-0.3282442748091603,-0.10687022900763359,-1.2748091603053435
9.15,0.07470703125,-1.0029296875,0.067626953125,-0.2748091603053435,0.04580152671755725,-1.3969465648854962
9.16,0.070068359375,-1.004150390625,0.0625,-0.2824427480916031,-0.1450381679389313,-1.2213740458015268
9.17,0.06494140625,-1.004638671875,0.0654296875,-0.5877862595419847,0.11450381679389313,-1.2900763358778626
9.18,0.074462890625,-1.005126953125,0.06103515625,-0.6641221374045801,-1.916030534351145,-1.2290076335877862
9.19,0.069091796875,-1.0048828125,0.05029296875,-0.5877862595419847,1.9465648854961832,-1.4580152671755726
9.2,0.0712890625,-1.0048828125,0.067626953125,-0.2900763358778626,-0.015267175572519083,-1.4274809160305344
9.21,0.075927734375,-1.0029296875,0.076904296875,-0.21374045801526717,-0.10687022900763359,-1.4198473282442747
9.22,0.075927734375,-0.995849609375,0.05908203125,-0.2900763358778626,-0.42748091603053434,-1.465648854961832
9.23,0.07275390625,-1.0,0.0615234375,-0.5572519083969466,-0.061068702290076333,-1.1526717557251909
9.24,0.06982421875,-1.00439453125,0.064697265625,-0.3969465648854962,-0.06870229007633588,-1.3511450381679388
9.25,0.0693359375,-1.006591796875,0.06201171875,-0.5038167938931297,-0.12213740458015267,-1.2671755725190839
9.26,0.071044921875,-0.98828125,0.064697265625,-0.5190839694656488,-0.21374045801526717,-1.3129770992366412
9.27,0.073486328125,-1.00634765625,0.06298828125,-0.366412213740458,-0.12213740458015267,-1.3587786259541985
9.28,0.07177734375,-0.99951171875,0.06640625,-0.24427480916030533,-0.015267175572519083,-1.4045801526717556
9.29,0.069091796875,-1.005615234375,0.06884765625,-0.40458015267175573,-0.1984732824427481,-1.3435114503816794
9.3,0.069091796875,-1.004150390625,0.07373046875,-0.37404580152671757,0.0916030534351145,-1.3969465648854962
9.31,0.06884765625,-1.001708984375,0.072998046875,-0.5267175572519084,-1.9465648854961832,-1.3282442748091603
9.32,0.0751953125,-1.00244140625,0.062744140625,-0.3511450381679389,-0.07633587786259542,-1.2213740458015268
9.33,0.07080078125,-1.010498046875,0.07080078125,-0.6564885496183206,0.0,-1.4122137404580153
9.34,0.06884765625,-1.00244140625,0.05029296875,-0.4198473282442748,-0.05343511450381679,-1.4427480916030535
9.35,0.073486328125,-1.000732421875,0.073486328125,-0.6183206106870229,-0.2824427480916031,-1.3969465648854962
9.36,0.066650390625,-1.008056640625,0.063720703125,-0.3511450381679389,0.0916030534351145,-1.450381679389313
9.37,0.07177734375,-1.000732421875,0.06787109375,-0.2748091603053435,-0.0916030534351145,-1.5572519083969465
9.38,0.07470703125,-1.00634765625,0.06298828125,-0.31297709923664124,-0.022900763358778626,-1.5190839694656488
9.39,0.0693359375,-1.00146484375,0.072021484375,-0.3282442748091603,1.9389312977099236,-1.6030534351145038
9.4,0.066162109375,-1.005615234375,0.063232421875,-0.6870229007633588,-0.061068702290076333,-1.465648854961832
9.41,0.072265625,-1.013427734375,0.0771484375,-0.549618320610687,-0.030534351145038167,-1.5954198473282444
9.42,0.06494140625,-1.00048828125,0.073486328125,-0.7404580152671756,-0.16793893129770993,-1.3969465648854962
9.43,0.064453125,-0.998779296875,0.0693359375,-0.5343511450381679,-0.03816793893129771,-1.4732824427480915
9.44,0.063720703125,-1.00732421875,0.066650390625,-0.3435114503816794,-1.9541984732824427,-1.3435114503816794
9.45,0.070556640625,-1.003173828125,0.072509765625,-0.3893129770992366,-0.05343511450381679,-1.3435114503816794
9.46,0.0712890625,-1.004638671875,0.064208984375,-0.37404580152671757,-0.22137404580152673,-1.4274809160305344
9.47,0.06787109375,-1.000244140625,0.07421875,-0.29770992366412213,-0.05343511450381679,-1.5572519083969465
9.48,0.072998046875,-1.0029296875,0.05224609375,-0.4122137404580153,0.04580152671755725,-1.4732824427480915
9.49,0.07373046875,-1.009033203125,0.07421875,-0.7557251908396947,-0.061068702290076333,-1.3435114503816794
9.5,0.072998046875,-1.001220703125,0.0625,-0.6183206106870229,-0.16030534351145037,-1.2366412213740459
9.51,0.07275390625,-0.998779296875,0.072021484375,-0.4122137404580153,-0.1297709923664122,-1.3129770992366412
9.52,0.067138671875,-1.00341796875,0.06884765625,-0.3893129770992366,-0.22900763358778625,-1.4198473282442747
9.53,0.06689453125,-1.005615234375,0.0654296875,-0.12213740458015267,-0.16793893129770993,-1.297709923664122
9.54,0.072509765625,-0.9990234375,0.07373046875,-0.183206106870229,-0.11450381679389313,-1.2671755725190839
9.55,0.074462890625,-1.005615234375,0.072265625,-0.46564885496183206,-1.916030534351145,-1.5190839694656488
9.56,0.069091796875,-1.015380859375,0.072265625,-0.5877862595419847,-0.015267175572519083,-1.3893129770992367
9.57,0.0751953125,-1.001220703125,0.069091796875,-0.7938931297709924,-0.11450381679389313,-1.4351145038167938
9.58,0.0693359375,-1.002197265625,0.06689453125,-0.7633587786259542,-0.04580152671755725,-1.4198473282442747
9.59,0.065185546875,-1.0029296875,0.058837890625,-0.4351145038167939,-0.19083969465648856,-1.183206106870229
9.6,0.0712890625,-1.004638671875,0.063720703125,-0.25190839694656486,-1.9541984732824427,-1.3358778625954197
9.61,0.0703125,-1.001953125,0.049560546875,-0.16793893129770993,-0.3511450381679389,-1.4351145038167938
9.62,0.068603515625,-0.98583984375,0.067626953125,-0.33587786259541985,0.030534351145038167,-1.3053435114503817
9.63,0.0703125,-1.00634765625,0.070556640625,-0.5114503816793893,0.03816793893129771,-1.366412213740458
9.64,0.068359375,-1.006103515625,0.0673828125,-0.7099236641221374,-0.030534351145038167,-1.3435114503816794
9.65,0.067626953125,-1.00341796875,0.060302734375,-0.7786259541984732,-0.11450381679389313,-1.3435114503816794
9.66,0.06787109375,-1.0048828125,0.064697265625,-0.5419847328244275,-0.09923664122137404,-1.3358778625954197
9.67,0.07080078125,-1.004150390625,0.053955078125,-0.5267175572519084,-0.06870229007633588,-1.5419847328244274
9.68,0.074462890625,-1.0048828125,0.0634765625,-0.11450381679389313,-0.09923664122137404,-1.3358778625954197
9.69,0.07080078125,-1.00732421875,0.073486328125,-0.17557251908396945,1.9389312977099236,-1.3053435114503817
9.7,0.0673828125,-1.000244140625,0.072998046875,-0.17557251908396945,-0.08396946564885496,-1.4809160305343512
9.71,0.072998046875,-1.00439453125,0.065673828125,-0.4351145038167939,0.09923664122137404,-1.3740458015267176
9.72,0.07666015625,-1.00439453125,0.07373046875,-0.8015267175572519,0.12213740458015267,-1.4274809160305344
9.73,0.06494140625,-1.008544921875,0.06494140625,-0.8244274809160306,-0.10687022900763359,-1.2213740458015268
9.74,0.0693359375,-1.005615234375,0.060302734375,-0.7938931297709924,0.0916030534351145,-1.4351145038167938
9.75,0.071533203125,-1.005615234375,0.06982421875,-0.21374045801526717,-0.06870229007633588,-1.3893129770992367
9.76,0.066162109375,-1.008056640625,0.0625,-0.1984732824427481,-0.26717557251908397,-1.2442748091603053
9.77,0.072998046875,-1.013671875,0.074951171875,-0.09923664122137404,-1.9465648854961832,-1.366412213740458
9.78,0.06494140625,-0.998046875,0.078369140625,-0.32061068702290074,1.9465648854961832,-1.3511450381679388
9.79,0.069091796875,-1.004638671875,0.060302734375,-0.5954198473282443,-0.1984732824427481,-1.3282442748091603
9.8,0.0712890625,-1.008056640625,0.068359375,-0.5038167938931297,-0.030534351145038167,-1.5038167938931297
9.81,0.067626953125,-0.99267578125,0.070068359375,-0.31297709923664124,-1.9312977099236641,-1.297709923664122
9.82,0.070068359375,-1.004150390625,0.078369140625,-0.4198473282442748,0.022900763358778626,-1.5725190839694656
9.83,0.0654296875,-1.001953125,0.05322265625,-0.3282442748091603,-0.0916030534351145,-1.3740458015267176
9.84,0.073974609375,-1.005126953125,0.0771484375,-0.5648854961832062,0.08396946564885496,-1.2290076335877862
9.85,0.074951171875,-1.007080078125,0.04833984375,-0.6412213740458015,-0.08396946564885496,-1.4427480916030535
9.86,0.071533203125,-1.00390625,0.06103515625,-0.16030534351145037,0.03816793893129771,-1.3740458015267176
9.87,0.071533203125,-1.0029296875,0.06494140625,-0.10687022900763359,-0.03816793893129771,-1.4274809160305344
9.88,0.071044921875,-1.004638671875,0.064453125,-0.2366412213740458,-0.08396946564885496,-1.4045801526717556
9.89,0.074951171875,-1.001953125,0.070068359375,-0.3435114503816794,-0.05343511450381679,-1.2748091603053435
9.9,0.066162109375,-1.001220703125,0.067626953125,-0.6412213740458015,0.05343511450381679,-1.2366412213740459
9.91,0.070068359375,-1.015380859375,0.072265625,-0.7709923664122137,-0.04580152671755725,-1.2213740458015268
9.92,0.0703125,-0.99951171875,0.074462890625,-0.5725190839694656,0.030534351145038167,-1.297709923664122
9.93,0.07177734375,-1.002685546875,0.062744140625,-0.3969465648854962,-0.09923664122137404,-1.5038167938931297
9.94,0.068359375,-1.0048828125,0.0615234375,-0.31297709923664124,-0.1450381679389313,-1.1984732824427482
9.95,0.066162109375,-1.0068359375,0.06005859375,-0.22137404580152673,-0.0916030534351145,-1.4122137404580153
9.96,0.071044921875,-1.00537109375,0.065185546875,0.0,-0.366412213740458,-1.4274809160305344
9.97,0.07080078125,-1.00341796875,0.07080078125,-0.11450381679389313,0.015267175572519083,-1.381679389312977
9.98,0.07470703125,-1.00341796875,0.06787109375,-0.5419847328244275,-0.20610687022900764,-1.381679389312977
9.99,0.073486328125,-1.0107421875,0.06982421875,-0.7251908396946565,-0.16793893129770993,-1.2213740458015268
10.0,0.067138671875,-1.00048828125,0.06640625,-0.6259541984732825,1.8396946564885497,-1.2290076335877862
10.01,0.070556640625,-1.0009765625,0.064453125,-0.6106870229007634,-0.05343511450381679,-1.6259541984732824
10.02,0.068603515625,-1.009765625,0.070068359375,-0.5801526717557252,-0.061068702290076333,-1.3282442748091603
10.03,0.068603515625,-1.003662109375,0.060546875,-0.19083969465648856,-0.13740458015267176,-1.4351145038167938
10.04,0.071533203125,-1.002197265625,0.0517578125,-0.3282442748091603,0.015267175572519083,-1.16793893129771
10.05,0.0693359375,-0.984619140625,0.06982421875,-0.1297709923664122,-0.42748091603053434,-1.3511450381679388
10.06,0.068359375,-1.007568359375,0.06494140625,-0.17557251908396945,0.061068702290076333,-1.4732824427480915
10.07,0.071044921875,-1.002197265625,0.071533203125,-0.4580152671755725,-0.061068702290076333,-1.251908396946565
10.08,0.06884765625,-1.009521484375,0.06884765625,-0.6717557251908397,-0.022900763358778626,-1.4122137404580153
10.09,0.075439453125,-1.00341796875,0.0654296875,-0.6870229007633588,-0.15267175572519084,-1.3511450381679388
10.1,0.0712890625,-1.004638671875,0.068603515625,-0.7404580152671756,0.022900763358778626,-1.2290076335877862
10.11,0.072998046875,-1.000732421875,0.06982421875,-0.5114503816793893,-0.17557251908396945,-1.5114503816793894
10.12,0.072998046875,-1.005859375,0.07275390625,-0.3893129770992366,0.007633587786259542,-1.3740458015267176
10.13,0.0654296875,-1.000732421875,0.07080078125,-0.2748091603053435,-1.8778625954198473,-1.2748091603053435
10.14,0.07275390625,-1.009033203125,0.06787109375,-0.25190839694656486,0.08396946564885496,-1.3740458015267176
10.15,0.066162109375,-1.001953125,0.06201171875,-0.40458015267175573,-0.16030534351145037,-1.4198473282442747
10.16,0.07080078125,-0.99853515625,0.076171875,-0.3511450381679389,-0.10687022900763359,-1.2595419847328244
10.17,0.06787109375,-1.008544921875,0.06298828125,-0.6564885496183206,1.9083969465648856,-1.2671755725190839
10.18,0.07177734375,-0.984619140625,0.06982421875,-0.6030534351145038,-0.022900763358778626,-1.3435114503816794
10.19,0.07373046875,-1.011962890625,0.068359375,-0.7862595419847328,-0.1297709923664122,-1.2366412213740459
10.2,0.066162109375,-0.986572265625,0.060546875,-0.2595419847328244,0.07633587786259542,-1.2671755725190839
10.21,0.068359375,-1.00634765625,0.062744140625,-0.3969465648854962,-0.10687022900763359,-1.366412213740458
10.22,0.068359375,-0.998046875,0.064208984375,-0.25190839694656486,-0.08396946564885496,-1.2442748091603053
10.23,0.070068359375,-1.0068359375,0.066162109375,-0.07633587786259542,-0.09923664122137404,-1.465648854961832
10.24,0.068603515625,-1.001220703125,0.07373046875,-0.08396946564885496,-0.030534351145038167,-1.5190839694656488
10.25,0.0693359375,-0.988037109375,0.0693359375,-0.4198473282442748,1.9083969465648856,-1.16793893129771
10.26,0.0693359375,-1.00146484375,0.06884765625,-0.7557251908396947,0.05343511450381679,-1.3893129770992367
10.27,0.06787109375,-1.0068359375,0.055908203125,-0.7557251908396947,1.9465648854961832,-1.366412213740458
10.28,0.0703125,-1.000244140625,0.0478515625,-0.7862595419847328,-0.22137404580152673,-1.3053435114503817
10.29,0.06982421875,-1.005126953125,0.066650390625,-0.48091603053435117,-0.1984732824427481,-1.4427480916030535
10.3,0.069580078125,-1.00244140625,0.06298828125,-0.13740458015267176,-0.09923664122137404,-1.4885496183206106
10.31,0.06982421875,-1.00048828125,0.068603515625,-1.9465648854961832,-0.1984732824427481,-1.3206106870229009
10.32,0.068603515625,-1.00634765625,0.079345703125,-0.25190839694656486,-0.2366412213740458,-1.3129770992366412
10.33,0.072509765625,-0.998046875,0.066650390625,-0.32061068702290074,-0.09923664122137404,-1.3129770992366412
10.34,0.075927734375,-0.986572265625,0.075439453125,-0.6183206106870229,0.04580152671755725,-1.3893129770992367
10.35,0.069580078125,-1.005615234375,0.067138671875,-0.8854961832061069,-0.08396946564885496,-1.4351145038167938
10.36,0.074462890625,-1.008544921875,0.067138671875,-0.7557251908396947,1.8778625954198473,-1.3969465648854962
10.37,0.06689453125,-1.00927734375,0.07421875,-0.6717557251908397,-0.17557251908396945,-1.2366412213740459
10.38,0.067626953125,-0.998779296875,0.060791015625,-0.31297709923664124,0.07633587786259542,-1.3206106870229009
10.39,0.0673828125,-1.000732421875,0.06982421875,-0.13740458015267176,-0.09923664122137404,-1.3435114503816794
10.4,0.071044921875,-1.00390625,0.073486328125,-0.05343511450381679,-0.22137404580152673,-1.4351145038167938
10.41,0.0732421875,-1.001953125,0.071533203125,-0.33587786259541985,0.07633587786259542,-1.2213740458015268
10.42,0.070556640625,-1.002197265625,0.069580078125,-0.46564885496183206,0.061068702290076333,-1.2442748091603053
10.43,0.06787109375,-0.995361328125,0.07275390625,-0.732824427480916,-0.1450381679389313,-1.4427480916030535
10.44,0.071533203125,-1.004150390625,0.067138671875,-0.6946564885496184,-1.9389312977099236,-1.4274809160305344
10.45,0.076171875,-0.999755859375,0.070068359375,-0.6717557251908397,1.9389312977099236,-1.1068702290076335
10.46,0.0654296875,-1.005126953125,0.0654296875,-0.5114503816793893,-0.1984732824427481,-1.4045801526717556
10.47,0.068603515625,-1.014892578125,0.067138671875,-0.25190839694656486,-0.12213740458015267,-1.3969465648854962
10.48,0.07177734375,-0.98681640625,0.066650390625,-0.2748091603053435,0.1450381679389313,-1.4351145038167938
10.49,0.07080078125,-0.99853515625,0.052001953125,-0.0916030534351145,-0.07633587786259542,-1.2290076335877862
10.5,0.070068359375,-0.99951171875,0.06787109375,-0.35877862595419846,-0.030534351145038167,-1.4274809160305344
10.51,0.073486328125,-1.00537109375,0.0732421875,-0.5190839694656488,-0.1450381679389313,-1.282442748091603
10.52,0.07177734375,-1.00341796875,0.065673828125,-0.5038167938931297,-0.08396946564885496,-1.3358778625954197
10.53,0.06787109375,-0.992431640625,0.064453125,-0.5038167938931297,0.1297709923664122,-1.2748091603053435
10.54,0.07177734375,-1.006591796875,0.067626953125,-0.5267175572519084,0.015267175572519083,-1.2442748091603053
10.55,0.071044921875,-1.003662109375,0.06884765625,-0.7251908396946565,-0.2824427480916031,-1.3435114503816794
10.56,0.073974609375,-1.0068359375,0.06982421875,-0.16030534351145037,-0.030534351145038167,-1.4809160305343512
10.57,0.070556640625,-1.00341796875,0.066650390625,-0.13740458015267176,0.2824427480916031,-1.282442748091603
10.58,0.07275390625,-1.000732421875,0.062744140625,-0.1984732824427481,-0.22900763358778625,-1.4885496183206106
10.59,0.0673828125,-0.999755859375,0.072265625,-0.11450381679389313,0.19083969465648856,-1.381679389312977
10.6,0.068359375,-1.013671875,0.066162109375,-0.7862595419847328,-0.19083969465648856,-1.297709923664122
10.61,0.069580078125,-0.986328125,0.070556640625,-0.7557251908396947,0.08396946564885496,-1.366412213740458
10.62,0.06640625,-1.014404296875,0.051513671875,-0.5267175572519084,-0.12213740458015267,-1.3129770992366412
10.63,0.070068359375,-1.0048828125,0.07666015625,-0.3816793893129771,-0.0916030534351145,-1.1526717557251909
10.64,0.069091796875,-1.009521484375,0.0615234375,-0.3435114503816794,-0.11450381679389313,-1.3053435114503817
10.65,0.0703125,-0.99365234375,0.07568359375,-0.22900763358778625,-0.1450381679389313,-1.4809160305343512
10.66,0.07421875,-1.00244140625,0.06396484375,-0.5038167938931297,-0.03816793893129771,-1.618320610687023
10.67,0.068359375,-1.01513671875,0.065673828125,-0.4961832061068702,-0.13740458015267176,-1.3206106870229009
10.68,0.07373046875,-1.006103515625,0.077392578125,-0.5725190839694656,0.10687022900763359,-1.4351145038167938
10.69,0.0712890625,-1.001953125,0.048828125,-0.6335877862595419,-0.05343511450381679,-1.3435114503816794
10.7,0.0712890625,-0.989501953125,0.06640625,-0.3816793893129771,-0.015267175572519083,-1.4122137404580153
10.71,0.069580078125,-1.003662109375,0.0634765625,-0.2824427480916031,-0.1984732824427481,-1.465648854961832
10.72,0.06884765625,-1.005126953125,0.06884765625,-0.40458015267175573,0.061068702290076333,-1.5267175572519085
10.73,0.064453125,-1.002197265625,0.074462890625,-0.16793893129770993,-0.17557251908396945,-1.2748091603053435
10.74,0.070556640625,-0.999755859375,0.0693359375,-0.3511450381679389,-0.022900763358778626,-1.2061068702290076
10.75,0.072998046875,-0.99072265625,0.064208984375,-0.5648854961832062,-0.24427480916030533,-1.4045801526717556
10.76,0.066650390625,-1.005126953125,0.071044921875,-0.7786259541984732,0.2366412213740458,-1.3587786259541985
10.77,0.0703125,-1.003173828125,0.07373046875,-0.6183206106870229,-0.183206106870229,-1.3893129770992367
10.78,0.0634765625,-1.001953125,0.059814453125,-0.3816793893129771,1.8931297709923665,-1.4809160305343512
10.79,0.075927734375,-1.004150390625,0.064453125,-0.31297709923664124,-1.8244274809160306,-1.4045801526717556
10.8,0.071533203125,-1.00048828125,0.067138671875,0.17557251908396945,-0.015267175572519083,-1.4122137404580153
10.81,0.065185546875,-1.015625,0.08447265625,-0.09923664122137404,-0.015267175572519083,-1.4198473282442747
10.82,0.06884765625,-1.00537109375,0.072021484375,-0.6106870229007634,-0.08396946564885496,-1.3969465648854962
10.83,0.0703125,-1.00244140625,0.0869140625,-0.6793893129770993,-0.25190839694656486,-1.450381679389313
10.84,0.07080078125,-1.003173828125,0.060791015625,-0.6793893129770993,0.12213740458015267,-1.3969465648854962
10.85,0.071044921875,-1.00244140625,0.061279296875,-0.6793893129770993,-0.20610687022900764,-1.3969465648854962
10.86,0.07470703125,-1.001220703125,0.06787109375,-0.2595419847328244,-0.0916030534351145,-1.2595419847328244
10.87,0.07861328125,-1.005126953125,0.0654296875,-0.05343511450381679,0.0,-1.282442748091603
10.88,0.071044921875,-1.001708984375,0.074462890625,-0.08396946564885496,0.022900763358778626,-1.3587786259541985
10.89,0.069091796875,-1.0078125,0.07080078125,-0.33587786259541985,-0.007633587786259542,-1.3129770992366412
10.9,0.07568359375,-1.00439453125,0.062744140625,-0.4961832061068702,-0.15267175572519084,-1.3129770992366412
10.91,0.072998046875,-0.998779296875,0.076416015625,-0.7022900763358778,-0.06870229007633588,-1.366412213740458
10.92,0.066162109375,-1.005859375,0.0615234375,-0.6641221374045801,-0.12213740458015267,-1.4274809160305344
10.93,0.066650390625,-1.002197265625,0.06787109375,-0.2748091603053435,-1.916030534351145,-1.4885496183206106
10.94,0.0703125,-1.002685546875,0.059814453125,-0.07633587786259542,-0.183206106870229,-1.282442748091603
10.95,0.07080078125,-1.00390625,0.0712890625,-0.04580152671755725,-0.17557251908396945,-1.5572519083969465
10.96,0.071044921875,-1.001220703125,0.076904296875,-0.29770992366412213,-0.15267175572519084,-1.3740458015267176
10.97,0.07421875,-1.008056640625,0.067626953125,-0.732824427480916,-0.22137404580152673,-1.3358778625954197
10.98,0.071533203125,-1.00244140625,0.07666015625,-0.8244274809160306,-0.13740458015267176,-1.2900763358778626
10.99,0.070556640625,-1.00537109375,0.0693359375,-0.6641221374045801,-0.10687022900763359,-1.4732824427480915
11.0,0.0712890625,-0.998046875,0.06640625,1.9083969465648856,-0.13740458015267176,-1.4351145038167938
11.01,0.07373046875,-1.00341796875,0.062255859375,-0.16793893129770993,-0.03816793893129771,-1.2442748091603053
11.02,0.07080078125,-1.00048828125,0.064697265625,-0.32061068702290074,0.12213740458015267,-1.4961832061068703
11.03,0.072265625,-1.005615234375,0.064453125,-0.7251908396946565,-0.25190839694656486,-1.534351145038168
11.04,0.07177734375,-1.015380859375,0.063720703125,-0.7938931297709924,0.11450381679389313,-1.3435114503816794
11.05,0.068603515625,-1.002197265625,0.077392578125,-0.5725190839694656,-0.07633587786259542,-1.3587786259541985
