Time(s),AccX,AccY,AccZ,GyrX,GyrY,GyrZ
0.0,0.145263671875,1.010498046875,0.038818359375,-7.900763358778626,-1.1374045801526718,0.8778625954198473
0.01,0.1689453125,0.989501953125,0.037109375,-8.030534351145038,-1.9083969465648856,1.0916030534351144
0.02,0.1611328125,0.983154296875,0.014404296875,-6.091603053435114,4.473282442748092,0.061068702290076333
0.03,0.1630859375,0.961181640625,-0.02099609375,-5.732824427480916,13.17557251908397,-2.4656488549618323
0.04,0.141845703125,0.9638671875,0.018798828125,0.7251908396946565,18.435114503816795,-5.320610687022901
0.05,0.12744140625,0.98876953125,0.04931640625,5.534351145038168,19.778625954198475,-5.877862595419847
0.06,0.11767578125,1.00048828125,0.057861328125,5.145038167938932,18.0,-8.648854961832061
0.07,0.116943359375,1.025390625,0.073974609375,2.1068702290076335,14.564885496183207,-8.458015267175572
0.08,0.113037109375,1.005859375,0.0615234375,-0.9465648854961832,11.030534351145038,-6.977099236641221
0.09,0.1171875,1.001708984375,0.02001953125,-3.7022900763358777,9.870229007633588,-5.465648854961832
0.1,0.136474609375,0.97998046875,0.04443359375,-5.786259541984733,12.580152671755725,-5.038167938931298
0.11,0.14599609375,0.979248046875,0.042724609375,-1.9923664122137406,12.625954198473282,-4.213740458015267
0.12,0.13818359375,0.9775390625,0.0546875,-0.6030534351145038,10.229007633587786,-3.183206106870229
0.13,0.139404296875,0.992431640625,0.062255859375,-1.8244274809160306,9.679389312977099,-1.717557251908397
0.14,0.109619140625,0.990234375,0.057373046875,-5.221374045801527,5.061068702290076,-0.015267175572519083
0.15,0.1123046875,0.973388671875,0.051513671875,-7.778625954198473,3.0381679389312977,1.3129770992366412
0.16,0.145751953125,0.956787109375,0.001220703125,-9.511450381679388,3.946564885496183,1.7709923664122138
0.17,0.15771484375,0.950927734375,0.005126953125,-8.091603053435115,11.427480916030534,0.1450381679389313
0.18,0.14794921875,0.9287109375,0.034423828125,-3.015267175572519,13.129770992366412,-2.2213740458015265
0.19,0.14208984375,0.944091796875,0.043701171875,0.1297709923664122,12.83206106870229,-4.442748091603053
0.2,0.143798828125,0.974853515625,0.045166015625,5.099236641221374,12.419847328244275,-5.5038167938931295
0.21,0.1416015625,0.9970703125,0.06640625,4.824427480916031,11.801526717557252,-5.297709923664122
0.22,0.138671875,1.0126953125,0.0673828125,1.6946564885496183,11.610687022900763,-3.816793893129771
0.23,0.130859375,1.023193359375,0.0625,-3.0381679389312977,6.1679389312977095,-1.213740458015267
0.24,0.10986328125,1.017333984375,0.06689453125,-7.702290076335878,2.2519083969465647,1.3282442748091603
0.25,0.137451171875,1.01220703125,0.03173828125,-9.435114503816793,-0.31297709923664124,2.0916030534351147
0.26,0.146728515625,0.98046875,0.035400390625,-8.488549618320612,-0.6106870229007634,1.549618320610687
0.27,0.166259765625,0.971923828125,0.035400390625,-5.267175572519084,-0.44274809160305345,1.3129770992366412
0.28,0.16064453125,0.9833984375,0.03759765625,-2.2595419847328246,0.22137404580152673,2.2748091603053435
0.29,0.170166015625,0.979248046875,0.05224609375,-1.251908396946565,0.5648854961832062,2.877862595419847
0.3,0.14697265625,0.983642578125,0.037841796875,-3.267175572519084,0.9389312977099237,2.969465648854962
0.31,0.135009765625,0.9853515625,0.041748046875,-5.419847328244275,0.7557251908396947,3.1297709923664123
0.32,0.125732421875,0.973876953125,0.0439453125,-5.603053435114504,1.1145038167938932,2.4427480916030535
0.33,0.152099609375,0.9736328125,0.03564453125,-4.755725190839694,2.030534351145038,1.6870229007633588
0.34,0.149169921875,0.975830078125,0.042236328125,-2.816793893129771,2.801526717557252,0.9618320610687023
0.35,0.1416015625,0.982177734375,0.046630859375,-1.083969465648855,2.312977099236641,1.1603053435114503
0.36,0.131103515625,0.9892578125,0.03759765625,-1.16793893129771,1.6106870229007633,1.3511450381679388
0.37,0.13134765625,1.0009765625,0.0400390625,-2.366412213740458,1.3053435114503817,1.4809160305343512
0.38,0.12646484375,0.9970703125,0.04052734375,-3.7480916030534353,1.213740458015267,2.33587786259542
0.39,0.1240234375,0.986572265625,0.046142578125,-4.511450381679389,1.0534351145038168,2.5572519083969465
0.4,0.14208984375,0.988525390625,0.0361328125,-4.015267175572519,1.4122137404580153,2.2748091603053435
0.41,0.138427734375,0.984130859375,0.04296875,-2.8625954198473282,1.83206106870229,1.4580152671755726
0.42,0.1328125,0.984130859375,0.037353515625,-1.4961832061068703,2.236641221374046,0.15267175572519084
0.43,0.1318359375,0.989013671875,0.039306640625,-1.1374045801526718,2.122137404580153,-0.7404580152671756
0.44,0.129638671875,0.994873046875,0.03857421875,-1.1221374045801527,1.450381679389313,-1.0763358778625953
0.45,0.139892578125,1.004638671875,0.030029296875,-1.1603053435114503,1.6259541984732824,-0.5877862595419847
0.46,0.1376953125,1.00439453125,0.03662109375,-1.2213740458015268,1.6793893129770991,-0.2748091603053435
0.47,0.13232421875,1.004150390625,0.034912109375,-1.6564885496183206,1.3893129770992367,0.5877862595419847
0.48,0.1298828125,1.005859375,0.0185546875,-1.6641221374045803,1.3740458015267176,1.3969465648854962
0.49,0.146240234375,1.006103515625,0.031494140625,-1.534351145038168,2.5114503816793894,2.564885496183206
0.5,0.136962890625,0.999267578125,0.048095703125,-0.7404580152671756,1.7938931297709924,3.801526717557252
0.51,0.130859375,0.99169921875,0.034912109375,-1.083969465648855,1.4351145038167938,5.022900763358779
0.52,0.135986328125,0.98095703125,0.042236328125,-1.183206106870229,2.1755725190839694,3.984732824427481
0.53,0.130615234375,0.969482421875,0.040771484375,-0.5343511450381679,2.053435114503817,2.2290076335877864
0.54,0.1181640625,0.994873046875,0.0576171875,0.24427480916030533,0.3511450381679389,2.267175572519084
0.55,0.1279296875,0.97509765625,0.033203125,0.816793893129771,1.702290076335878,0.04580152671755725
0.56,0.130126953125,0.979248046875,0.032958984375,1.9312977099236641,2.816793893129771,-1.6793893129770991
0.57,0.134033203125,0.988037109375,0.055419921875,3.145038167938931,2.8396946564885495,-2.1908396946564888
0.58,0.12939453125,0.9912109375,0.056396484375,2.50381679389313,2.946564885496183,-2.053435114503817
0.59,0.138427734375,0.997314453125,0.048583984375,0.4580152671755725,2.8931297709923665,-1.8549618320610688
0.6,0.13427734375,0.996826171875,0.044677734375,-0.9618320610687023,1.7328244274809161,-1.3282442748091603
0.61,0.132080078125,1.010498046875,0.0458984375,-1.5877862595419847,0.6870229007633588,-0.4961832061068702
0.62,0.12451171875,1.0234375,0.031494140625,-1.1221374045801527,-0.7251908396946565,0.11450381679389313
0.63,0.125732421875,1.003173828125,0.04833984375,-1.5877862595419847,-1.3358778625954197,0.45038167938931295
0.64,0.1357421875,0.99365234375,0.037353515625,-3.2748091603053435,-0.5419847328244275,0.3282442748091603
0.65,0.13671875,0.989501953125,0.040283203125,-3.8931297709923665,0.4198473282442748,-0.24427480916030533
0.66,0.1328125,0.976806640625,0.04296875,-3.099236641221374,0.1984732824427481,-0.6870229007633588
0.67,0.1328125,0.97607421875,0.030517578125,-1.7251908396946565,0.32061068702290074,-1.5114503816793894
0.68,0.110107421875,0.974365234375,0.0302734375,-0.6412213740458015,-0.2824427480916031,-2.122137404580153
0.69,0.12646484375,0.98486328125,0.04345703125,0.3893129770992366,-0.8625954198473282,-2.404580152671756
0.7,0.122802734375,0.996826171875,0.04296875,0.816793893129771,-1.1526717557251909,-1.8625954198473282
0.71,0.14111328125,0.994384765625,0.052734375,0.15267175572519084,-1.4274809160305344,-0.7633587786259542
0.72,0.151123046875,0.99462890625,0.033447265625,-1.0229007633587786,-1.0,0.13740458015267176
0.73,0.15087890625,0.995361328125,0.04541015625,-2.33587786259542,-0.8396946564885496,0.8854961832061069
0.74,0.147705078125,0.995849609375,0.03125,-3.0916030534351147,-0.9923664122137404,1.366412213740458
0.75,0.141845703125,1.0009765625,0.044921875,-2.9923664122137406,-0.8549618320610687,1.2671755725190839
0.76,0.131103515625,0.9951171875,0.045654296875,-2.4580152671755724,-1.0534351145038168,0.6793893129770993
0.77,0.131103515625,0.990234375,0.038818359375,-2.946564885496183,-0.6030534351145038,-0.6946564885496184
0.78,0.1376953125,0.999267578125,0.045654296875,-2.7938931297709924,-0.10687022900763359,-2.099236641221374
0.79,0.129638671875,0.994384765625,0.041259765625,-2.404580152671756,0.0,-2.236641221374046
0.8,0.13818359375,0.9951171875,0.0341796875,-3.0610687022900764,-1.099236641221374,-1.2290076335877862
0.81,0.139892578125,0.9970703125,0.02783203125,-3.0839694656488548,-2.030534351145038,-0.48091603053435117
0.82,0.140869140625,0.994873046875,0.03759765625,-3.3740458015267176,-2.213740458015267,0.12213740458015267
0.83,0.1455078125,0.994384765625,0.024169921875,-4.022900763358779,-0.35877862595419846,-0.48091603053435117
0.84,0.140625,0.989990234375,0.031982421875,-3.33587786259542,1.4732824427480915,-1.7786259541984732
0.85,0.138916015625,0.99609375,0.02099609375,-1.4961832061068703,1.1374045801526718,-2.3053435114503817
0.86,0.128662109375,0.9970703125,0.033935546875,-0.5419847328244275,0.2824427480916031,-2.6259541984732824
0.87,0.132080078125,0.998046875,0.032470703125,-0.7862595419847328,0.20610687022900764,-3.030534351145038
0.88,0.1337890625,0.994873046875,0.040283203125,-2.2977099236641223,-0.06870229007633588,-3.2290076335877864
0.89,0.13330078125,0.991943359375,0.039794921875,-3.7938931297709924,-0.3282442748091603,-2.9618320610687023
0.9,0.133544921875,0.983154296875,0.03955078125,-3.9083969465648853,-0.8091603053435115,-2.564885496183206
0.91,0.152099609375,0.9755859375,0.019287109375,-4.206106870229007,-2.2061068702290076,-1.1984732824427482
0.92,0.151123046875,0.96484375,0.021484375,-3.2442748091603053,-3.3206106870229006,0.04580152671755725
0.93,0.158447265625,0.96923828125,0.036376953125,-1.618320610687023,-2.854961832061069,-0.12213740458015267
0.94,0.1513671875,0.971435546875,0.031494140625,-0.7557251908396947,-2.0916030534351147,-0.7557251908396947
0.95,0.141845703125,0.989013671875,0.037353515625,-1.549618320610687,-1.8931297709923665,-0.816793893129771
0.96,0.137451171875,0.994384765625,0.04052734375,-2.9083969465648853,-1.8778625954198473,-0.9694656488549618
0.97,0.134521484375,0.987060546875,0.033935546875,-3.0839694656488548,-1.83206106870229,-0.816793893129771
0.98,0.13623046875,0.981689453125,0.03759765625,-2.717557251908397,-2.2748091603053435,-0.6641221374045801
0.99,0.131103515625,0.985107421875,0.0380859375,-2.0610687022900764,-2.931297709923664,0.06870229007633588
1.0,0.12548828125,0.980224609375,0.0166015625,-2.435114503816794,-3.717557251908397,0.8931297709923665
1.01,0.137451171875,0.981689453125,0.02294921875,-2.4122137404580153,-3.114503816793893,0.6870229007633588
1.02,0.14306640625,0.982421875,0.046630859375,-2.4122137404580153,-2.8625954198473282,1.0610687022900764
1.03,0.135986328125,0.993408203125,0.039794921875,-1.8015267175572518,-3.480916030534351,1.6870229007633588
1.04,0.13671875,0.998046875,0.0322265625,-0.9465648854961832,-3.3740458015267176,1.9770992366412214
1.05,0.131591796875,1.0048828125,0.044677734375,-0.549618320610687,-2.49618320610687,0.24427480916030533
1.06,0.126708984375,1.0048828125,0.051513671875,-0.8854961832061069,-2.2977099236641223,-1.381679389312977
1.07,0.125,1.010009765625,0.04443359375,-2.2442748091603053,-2.5343511450381677,-0.015267175572519083
1.08,0.1328125,1.013427734375,0.049560546875,-2.7786259541984735,-2.9923664122137406,-1.6641221374045803
1.09,0.1513671875,1.010986328125,0.061279296875,-2.4732824427480917,-3.1755725190839694,-1.1526717557251909
1.1,0.150390625,1.00244140625,0.05908203125,-2.519083969465649,-3.366412213740458,0.15267175572519084
1.11,0.142333984375,1.004150390625,0.057861328125,-2.5877862595419847,-3.7251908396946565,1.0381679389312977
1.12,0.151611328125,0.990478515625,0.04443359375,-3.045801526717557,-3.7557251908396947,1.3511450381679388
1.13,0.143310546875,0.980712890625,0.0322265625,-2.8396946564885495,-3.3740458015267176,1.1145038167938932
1.14,0.154296875,0.985595703125,0.043701171875,-2.0229007633587788,-2.6946564885496183,0.8625954198473282
1.15,0.1416015625,0.996826171875,0.041015625,-0.8549618320610687,-2.1603053435114505,0.10687022900763359
1.16,0.127197265625,0.9716796875,0.044677734375,-0.8473282442748091,-1.251908396946565,-1.2671755725190839
1.17,0.1328125,0.99365234375,0.045166015625,-1.7786259541984732,-0.7175572519083969,-2.3969465648854964
1.18,0.13916015625,0.9931640625,0.0400390625,-3.122137404580153,-0.183206106870229,-2.885496183206107
1.19,0.145263671875,0.999267578125,0.052001953125,-3.4198473282442747,-0.030534351145038167,-2.49618320610687
1.2,0.146728515625,1.003173828125,0.05078125,-3.198473282442748,0.022900763358778626,-1.5114503816793894
1.21,0.146728515625,1.003662109375,0.04638671875,-2.7557251908396947,-0.25190839694656486,-0.6793893129770993
1.22,0.136474609375,1.00634765625,0.0498046875,-2.7251908396946565,-0.5954198473282443,-0.3282442748091603
1.23,0.13427734375,1.01416015625,0.05078125,-4.076335877862595,-0.8778625954198473,-0.7786259541984732
1.24,0.122314453125,0.98876953125,0.046142578125,-3.9923664122137406,-1.2061068702290076,-1.6564885496183206
1.25,0.12646484375,0.9638671875,0.03955078125,-6.6183206106870225,-0.5725190839694656,-2.3969465648854964
1.26,0.144775390625,0.954345703125,0.0185546875,-5.6183206106870225,-0.16793893129770993,-2.3893129770992365
1.27,0.1591796875,0.9609375,0.040771484375,-3.267175572519084,0.10687022900763359,-1.4351145038167938
1.28,0.1494140625,0.9619140625,0.044189453125,-1.549618320610687,0.06870229007633588,-0.7099236641221374
1.29,0.155029296875,0.98046875,0.0556640625,-0.3969465648854962,0.1984732824427481,-0.48854961832061067
1.3,0.146240234375,0.996826171875,0.060546875,-0.44274809160305345,0.6870229007633588,-0.8931297709923665
1.31,0.130126953125,0.998046875,0.0732421875,-2.0839694656488548,0.5954198473282443,-0.9923664122137404
1.32,0.137451171875,1.00244140625,0.0751953125,-3.4656488549618323,0.11450381679389313,-0.35877862595419846
1.33,0.1494140625,1.0029296875,0.052734375,-3.366412213740458,-0.07633587786259542,0.061068702290076333
1.34,0.154541015625,0.994873046875,0.066162109375,-2.549618320610687,0.31297709923664124,0.4961832061068702
1.35,0.138427734375,0.990966796875,0.06494140625,-2.900763358778626,0.22900763358778625,-0.32061068702290074
1.36,0.133056640625,0.99267578125,0.06640625,-3.1908396946564888,0.42748091603053434,-1.3129770992366412
1.37,0.132080078125,0.994384765625,0.07080078125,-3.648854961832061,1.9389312977099236,-1.5190839694656488
1.38,0.12841796875,0.9921875,0.07177734375,-4.1679389312977095,-0.8778625954198473,-1.6412213740458015
1.39,0.135986328125,0.989501953125,0.0771484375,-4.587786259541985,-1.0534351145038168,-1.0076335877862594
1.4,0.12939453125,0.98583984375,0.067626953125,-4.458015267175573,-0.9770992366412213,-0.4122137404580153
1.41,0.136962890625,1.0009765625,0.065673828125,-4.5038167938931295,-1.5877862595419847,-0.030534351145038167
1.42,0.13525390625,0.998779296875,0.0595703125,-4.9465648854961835,-0.6870229007633588,0.183206106870229
1.43,0.137451171875,0.98779296875,0.06494140625,-4.641221374045801,-0.22137404580152673,-0.45038167938931295
1.44,0.135009765625,0.98876953125,0.07958984375,-3.763358778625954,0.2900763358778626,-1.0305343511450382
1.45,0.128662109375,0.992431640625,0.079345703125,-3.267175572519084,0.46564885496183206,-1.381679389312977
1.46,0.130126953125,1.011474609375,0.076171875,-3.6259541984732824,0.7938931297709924,-1.8396946564885497
1.47,0.13427734375,0.989990234375,0.082275390625,-5.648854961832061,0.6259541984732825,-1.4809160305343512
1.48,0.13720703125,0.988037109375,0.07568359375,-7.427480916030534,0.1984732824427481,-1.4351145038167938
1.49,0.15185546875,0.9873046875,0.0712890625,-5.908396946564886,0.40458015267175573,-1.2366412213740459
1.5,0.153564453125,0.98828125,0.075927734375,-6.3893129770992365,0.6793893129770993,-0.9923664122137404
1.51,0.152587890625,0.997802734375,0.064453125,-4.549618320610687,1.465648854961832,-0.35877862595419846
1.52,0.15087890625,0.99609375,0.064697265625,-4.259541984732825,0.06870229007633588,0.8702290076335878
1.53,0.14111328125,0.998046875,0.0615234375,-5.259541984732825,2.236641221374046,1.3893129770992367
1.54,0.13525390625,0.974365234375,0.05517578125,-6.221374045801527,2.572519083969466,1.5725190839694656
1.55,0.140869140625,0.957275390625,0.03369140625,-6.656488549618321,3.5267175572519083,0.8625954198473282
1.56,0.145263671875,0.971435546875,0.04296875,-4.816793893129771,4.648854961832061,-0.030534351145038167
1.57,0.13818359375,0.97509765625,0.0498046875,-1.213740458015267,5.305343511450381,-0.8320610687022901
1.58,0.13232421875,0.982177734375,0.037109375,-0.015267175572519083,5.3893129770992365,-1.0687022900763359
1.59,0.12353515625,0.99560546875,0.049560546875,-0.8931297709923665,4.763358778625954,-0.7633587786259542
1.6,0.13916015625,1.000732421875,0.046142578125,-2.7022900763358777,3.854961832061069,-0.6641221374045801
1.61,0.114501953125,1.000244140625,0.03955078125,-4.145038167938932,4.259541984732825,-0.22900763358778625
1.62,0.126708984375,0.986328125,0.036865234375,-4.236641221374046,4.1603053435114505,0.17557251908396945
1.63,0.123291015625,0.993896484375,0.056884765625,-4.229007633587786,3.015267175572519,0.6717557251908397
1.64,0.1220703125,0.994384765625,0.0341796875,-4.083969465648855,2.6030534351145036,0.9236641221374046
1.65,0.125244140625,0.990234375,0.034912109375,-3.6564885496183206,2.1603053435114505,0.549618320610687
1.66,0.125,0.982421875,0.031494140625,-3.816793893129771,2.183206106870229,-0.16793893129770993
1.67,0.13134765625,0.985107421875,0.040771484375,-5.778625954198473,1.9770992366412214,-0.16793893129770993
1.68,0.139892578125,0.9833984375,0.04052734375,-2.9389312977099236,1.7938931297709924,-0.06870229007633588
1.69,0.131103515625,0.970458984375,0.03515625,-2.33587786259542,1.1221374045801527,0.5038167938931297
1.7,0.135009765625,0.981201171875,0.045654296875,-2.3053435114503817,0.48854961832061067,0.6641221374045801
1.71,0.140625,0.97705078125,0.037353515625,-2.7022900763358777,0.8625954198473282,0.3816793893129771
1.72,0.14013671875,0.978271484375,0.033203125,-1.8702290076335877,1.6030534351145038,0.16030534351145037
1.73,0.141357421875,0.97705078125,0.049560546875,-1.6106870229007633,1.1145038167938932,0.183206106870229
1.74,0.14599609375,0.9833984375,0.04638671875,-1.0305343511450382,1.4732824427480915,0.3969465648854962
1.75,0.1357421875,0.991455078125,0.055908203125,-0.42748091603053434,1.8625954198473282,-0.24427480916030533
1.76,0.150390625,1.0068359375,0.051025390625,-0.1450381679389313,1.6641221374045803,-0.13740458015267176
1.77,0.14306640625,1.00927734375,0.056396484375,-1.1145038167938932,1.9083969465648856,0.11450381679389313
1.78,0.1357421875,1.0048828125,0.0771484375,-2.50381679389313,1.183206106870229,0.7099236641221374
1.79,0.134033203125,0.990234375,0.0771484375,-3.2595419847328246,0.5419847328244275,1.9618320610687023
1.8,0.14208984375,0.980712890625,0.053466796875,-3.633587786259542,0.48854961832061067,2.183206106870229
1.81,0.1357421875,0.979736328125,0.05029296875,-2.5343511450381677,0.6564885496183206,1.5954198473282444
1.82,0.123291015625,0.981201171875,0.052490234375,-1.4885496183206106,0.6259541984732825,0.8473282442748091
1.83,0.124267578125,0.980224609375,0.049072265625,-1.6106870229007633,0.6717557251908397,1.9312977099236641
1.84,0.140380859375,0.981201171875,0.040283203125,-1.6641221374045803,0.08396946564885496,-0.16030534351145037
1.85,0.129150390625,0.991943359375,0.0498046875,-1.4198473282442747,-0.8549618320610687,0.40458015267175573
1.86,0.132568359375,0.99267578125,0.057373046875,-0.15267175572519084,-1.2671755725190839,0.6183206106870229
1.87,0.140625,0.992919921875,0.055908203125,0.5572519083969466,-1.0305343511450382,0.46564885496183206
1.88,0.13671875,0.99853515625,0.0654296875,-0.20610687022900764,-1.0458015267175573,0.20610687022900764
1.89,0.141845703125,1.003662109375,0.07177734375,-0.9541984732824428,-0.4198473282442748,0.15267175572519084
1.9,0.162353515625,1.011474609375,0.060546875,-1.0381679389312977,0.04580152671755725,-0.26717557251908397
1.91,0.153564453125,1.01513671875,0.070556640625,-1.9541984732824427,0.32061068702290074,-0.24427480916030533
1.92,0.141357421875,1.017578125,0.067626953125,0.19083969465648856,-0.0916030534351145,0.030534351145038167
1.93,0.1318359375,1.02978515625,0.07080078125,-0.7404580152671756,-0.40458015267175573,0.816793893129771
1.94,0.127197265625,1.01220703125,0.07373046875,-1.786259541984733,-1.3969465648854962,1.0534351145038168
1.95,0.1240234375,0.99755859375,0.052490234375,-2.50381679389313,-1.83206106870229,0.7251908396946565
1.96,0.134521484375,0.986328125,0.051513671875,-2.2748091603053435,-1.4580152671755726,-0.6564885496183206
1.97,0.1328125,0.984619140625,0.0546875,-1.099236641221374,-0.5114503816793893,-2.5114503816793894
1.98,0.1337890625,0.98779296875,0.05126953125,-0.5038167938931297,0.6106870229007634,-3.50381679389313
1.99,0.139892578125,0.99560546875,0.055908203125,-1.0610687022900764,0.7709923664122137,-3.312977099236641
2.0,0.143310546875,1.000244140625,0.0615234375,-1.2061068702290076,-0.10687022900763359,-1.7328244274809161
2.01,0.145263671875,1.01220703125,0.071044921875,-0.9847328244274809,-1.183206106870229,-0.40458015267175573
2.02,0.1279296875,1.008056640625,0.069091796875,-0.9847328244274809,-1.7786259541984732,0.13740458015267176
2.03,0.127685546875,1.003662109375,0.0498046875,-1.9541984732824427,-1.4351145038167938,-0.8015267175572519
2.04,0.128173828125,0.994140625,0.05810546875,-3.50381679389313,-1.5190839694656488,-1.4351145038167938
2.05,0.1416015625,0.986083984375,0.054443359375,-3.381679389312977,-1.0458015267175573,-1.633587786259542
2.06,0.148193359375,0.97314453125,0.065673828125,-2.4732824427480917,-1.381679389312977,-0.3435114503816794
2.07,0.150390625,0.97900390625,0.05712890625,-2.0916030534351147,-1.702290076335878,0.6641221374045801
2.08,0.134033203125,0.966552734375,0.0556640625,-1.5648854961832062,-1.16793893129771,0.6717557251908397
2.09,0.139892578125,0.978271484375,0.066650390625,-0.7480916030534351,-0.8244274809160306,0.07633587786259542
2.1,0.138916015625,0.974365234375,0.056396484375,-0.3511450381679389,-0.3893129770992366,-0.1984732824427481
2.11,0.145751953125,0.98388671875,0.0703125,-0.3816793893129771,-0.05343511450381679,-0.1297709923664122
2.12,0.151123046875,0.986572265625,0.068115234375,-1.297709923664122,-0.2595419847328244,0.31297709923664124
2.13,0.15087890625,0.99365234375,0.068115234375,-2.16793893129771,0.061068702290076333,0.37404580152671757
2.14,0.1435546875,0.989501953125,0.073974609375,-2.969465648854962,0.22137404580152673,0.061068702290076333
2.15,0.14453125,0.99658203125,0.054931640625,-3.16793893129771,1.015267175572519,-0.1297709923664122
2.16,0.14501953125,0.992919921875,0.068359375,-2.5877862595419847,1.1374045801526718,-0.25190839694656486
2.17,0.137451171875,0.999267578125,0.063232421875,-2.015267175572519,1.1984732824427482,-0.22137404580152673
2.18,0.1328125,0.999267578125,0.067626953125,-1.8931297709923665,0.7633587786259542,-0.04580152671755725
2.19,0.131591796875,0.99560546875,0.05908203125,-2.312977099236641,0.05343511450381679,0.2595419847328244
2.2,0.144775390625,0.996826171875,0.064453125,-2.7557251908396947,-0.061068702290076333,1.8549618320610688
2.21,0.142578125,0.993896484375,0.067138671875,-2.4198473282442747,0.07633587786259542,-0.29770992366412213
2.22,0.135498046875,1.0087890625,0.0703125,-2.6564885496183206,1.9389312977099236,-0.25190839694656486
2.23,0.140625,1.001953125,0.07177734375,-3.9770992366412212,-0.26717557251908397,-0.2900763358778626
2.24,0.1376953125,0.986328125,0.07373046875,-4.442748091603053,-0.10687022900763359,-0.6259541984732825
2.25,0.138916015625,0.9970703125,0.048095703125,-4.7251908396946565,0.16793893129770993,-1.1145038167938932
2.26,0.147705078125,0.98681640625,0.050537109375,-3.6946564885496183,-1.9541984732824427,-0.9847328244274809
2.27,0.1435546875,0.98291015625,0.05712890625,-2.3282442748091605,0.0,-0.6106870229007634
2.28,0.14111328125,0.984130859375,0.056884765625,-1.5801526717557253,-0.08396946564885496,-0.16793893129770993
2.29,0.1435546875,0.989013671875,0.059326171875,-1.4274809160305344,0.1450381679389313,-0.2366412213740458
2.3,0.135009765625,1.001953125,0.06640625,-2.114503816793893,0.20610687022900764,-0.7862595419847328
2.31,0.131103515625,1.01025390625,0.06494140625,-3.0229007633587788,0.4580152671755725,-0.8015267175572519
2.32,0.126708984375,1.012451171875,0.0751953125,-4.206106870229007,-0.22137404580152673,-0.15267175572519084
2.33,0.136962890625,1.00634765625,0.048095703125,-5.526717557251908,-1.282442748091603,0.8625954198473282
2.34,0.145263671875,1.003173828125,0.062255859375,-6.694656488549619,-1.4274809160305344,1.2366412213740459
2.35,0.1474609375,0.98876953125,0.04931640625,-6.030534351145038,-1.7328244274809161,0.6564885496183206
2.36,0.13525390625,0.993896484375,0.057861328125,-4.908396946564886,-1.3435114503816794,-0.19083969465648856
2.37,0.1376953125,0.988037109375,0.04052734375,-3.946564885496183,-1.099236641221374,-1.1984732824427482
2.38,0.1279296875,0.990478515625,0.048583984375,-3.183206106870229,-0.2900763358778626,-2.2290076335877864
2.39,0.13916015625,0.988525390625,0.061767578125,-2.9389312977099236,-0.3893129770992366,-2.1526717557251906
2.4,0.139892578125,0.992919921875,0.03369140625,-3.7099236641221376,-1.1908396946564885,-1.0763358778625953
2.41,0.144287109375,0.988525390625,0.042724609375,-4.549618320610687,-1.7251908396946565,-0.2748091603053435
2.42,0.131591796875,1.00244140625,0.048828125,-4.809160305343512,-2.5801526717557253,0.0916030534351145
2.43,0.130859375,1.003662109375,0.04052734375,-5.190839694656488,-3.3282442748091605,-0.25190839694656486
2.44,0.11767578125,1.002685546875,0.0361328125,-5.282442748091603,-4.175572519083969,-0.916030534351145
2.45,0.116943359375,0.996337890625,0.040283203125,-5.068702290076335,-4.824427480916031,-1.3358778625954197
2.46,0.13232421875,0.984375,0.03955078125,-4.778625954198473,-5.068702290076335,-1.0916030534351144
2.47,0.125,0.975830078125,0.0322265625,-4.114503816793893,-4.748091603053435,-0.9083969465648855
2.48,0.1474609375,0.977294921875,0.015625,-3.030534351145038,-4.595419847328245,-0.9541984732824428
2.49,0.154052734375,0.982177734375,0.03369140625,-1.183206106870229,-3.8244274809160306,-1.7938931297709924
2.5,0.148681640625,1.00634765625,0.0341796875,0.2366412213740458,-3.1374045801526718,-2.7709923664122136
2.51,0.135498046875,1.019775390625,0.04638671875,0.648854961832061,-3.0916030534351147,-3.8473282442748094
2.52,0.12841796875,1.040283203125,0.064208984375,-0.33587786259541985,-3.9236641221374047,-3.648854961832061
2.53,0.127685546875,1.032470703125,0.060546875,-3.0839694656488548,-4.557251908396947,-3.213740458015267
2.54,0.1337890625,1.0234375,0.059326171875,-5.419847328244275,-5.145038167938932,-2.633587786259542
2.55,0.132568359375,1.015869140625,0.061767578125,-6.480916030534351,-5.6106870229007635,-1.9923664122137406
2.56,0.13671875,1.013671875,0.0419921875,-5.175572519083969,-5.572519083969466,-2.045801526717557
2.57,0.136962890625,1.014404296875,0.059814453125,-3.3740458015267176,-5.847328244274809,-2.3893129770992365
2.58,0.127197265625,1.024169921875,0.052734375,-1.6030534351145038,-6.122137404580153,-2.3969465648854964
2.59,0.129638671875,1.019775390625,0.042724609375,-1.4274809160305344,-6.213740458015267,-3.564885496183206
2.6,0.126220703125,1.0078125,0.0400390625,-2.2519083969465647,-4.847328244274809,-4.038167938931298
2.61,0.12890625,0.99951171875,0.03515625,-2.49618320610687,-4.374045801526718,-3.7557251908396947
2.62,0.133056640625,0.993408203125,0.036376953125,-2.2595419847328246,-3.572519083969466,-3.4580152671755724
2.63,0.127197265625,0.996826171875,0.048828125,-1.702290076335878,-2.4885496183206106,-3.0076335877862594
2.64,0.115478515625,0.99072265625,0.03662109375,-2.6106870229007635,-2.9083969465648853,-2.7480916030534353
2.65,0.112060546875,0.99072265625,0.060791015625,-4.015267175572519,-3.213740458015267,-2.8473282442748094
2.66,0.1083984375,0.98583984375,0.056884765625,-5.183206106870229,-3.9236641221374047,-2.236641221374046
2.67,0.117431640625,0.976318359375,0.051513671875,-5.717557251908397,-5.343511450381679,-0.06870229007633588
2.68,0.13916015625,0.97314453125,0.0654296875,-4.374045801526718,-8.419847328244275,1.534351145038168
2.69,0.136474609375,0.972412109375,0.058837890625,-2.954198473282443,-8.267175572519085,2.3969465648854964
2.7,0.135498046875,0.960205078125,0.04931640625,-1.3206106870229009,-8.381679389312977,2.519083969465649
2.71,0.109619140625,0.991943359375,0.073486328125,-0.5572519083969466,-8.50381679389313,2.8473282442748094
2.72,0.120849609375,0.974853515625,0.05517578125,-1.5114503816793894,-8.992366412213741,1.549618320610687
2.73,0.107421875,0.9833984375,0.073486328125,-2.2519083969465647,-8.923664122137405,0.6946564885496184
2.74,0.101318359375,0.989013671875,0.058349609375,-3.122137404580153,-10.259541984732824,0.7786259541984732
2.75,0.1328125,0.974853515625,0.045654296875,-4.351145038167939,-9.320610687022901,0.37404580152671757
2.76,0.14208984375,0.984130859375,0.061279296875,-3.3435114503816794,-9.129770992366412,1.7557251908396947
2.77,0.15185546875,0.98779296875,0.059814453125,-2.2900763358778624,-9.51908396946565,3.816793893129771
2.78,0.145263671875,0.995361328125,0.065673828125,-2.122137404580153,-7.923664122137405,5.297709923664122
2.79,0.149169921875,1.030029296875,0.08154296875,-1.7938931297709924,-8.641221374045802,6.511450381679389
2.8,0.138427734375,0.996826171875,0.05029296875,-3.3969465648854964,-9.030534351145038,5.656488549618321
2.81,0.124267578125,0.993896484375,0.062255859375,-4.793893129770993,-9.618320610687023,4.0534351145038165
2.82,0.135986328125,0.99267578125,0.03955078125,-5.526717557251908,-8.297709923664122,1.8244274809160306
2.83,0.154296875,0.98095703125,0.0546875,-4.015267175572519,-7.33587786259542,0.4580152671755725
2.84,0.166748046875,0.985107421875,0.05322265625,-1.6259541984732824,-6.9465648854961835,0.4122137404580153
2.85,0.16845703125,0.99560546875,0.05859375,0.5648854961832062,-6.748091603053435,1.5954198473282444
2.86,0.16845703125,1.00634765625,0.07275390625,1.1374045801526718,-6.923664122137405,3.1374045801526718
2.87,0.165283203125,1.01513671875,0.077880859375,0.8549618320610687,-7.633587786259542,4.862595419847328
2.88,0.171142578125,1.002685546875,0.0498046875,-0.366412213740458,-4.862595419847328,5.2748091603053435
2.89,0.166748046875,0.998291015625,0.071044921875,0.6183206106870229,-4.320610687022901,6.961832061068702
2.9,0.1650390625,0.982666015625,0.044677734375,3.2900763358778624,-3.5801526717557253,8.488549618320612
2.91,0.165283203125,0.9794921875,0.050048828125,6.541984732824427,-2.900763358778626,9.114503816793894
2.92,0.149169921875,0.98828125,0.03076171875,7.755725190839694,0.45038167938931295,9.396946564885496
2.93,0.126953125,0.96435546875,0.08154296875,8.664122137404581,-1.0916030534351144,6.320610687022901
2.94,0.135009765625,0.97607421875,0.052978515625,8.442748091603054,-0.9847328244274809,3.49618320610687
2.95,0.135009765625,0.978515625,0.051513671875,7.312977099236641,-2.1068702290076335,2.732824427480916
2.96,0.151611328125,0.9853515625,0.060546875,6.320610687022901,-2.954198473282443,3.4122137404580153
2.97,0.158935546875,0.98486328125,0.048095703125,6.221374045801527,-3.1908396946564888,4.66412213740458
2.98,0.153564453125,0.986083984375,0.0283203125,6.900763358778626,-3.3282442748091605,5.9465648854961835
2.99,0.142578125,0.98876953125,0.057861328125,8.938931297709924,-3.3969465648854964,7.656488549618321
3.0,0.17041015625,1.001953125,0.065185546875,7.847328244274809,-5.32824427480916,9.625954198473282
3.01,0.14794921875,1.004638671875,0.036865234375,10.198473282442748,-8.122137404580153,13.450381679389313
3.02,0.167236328125,0.9912109375,0.054931640625,12.442748091603054,-11.641221374045802,17.908396946564885
3.03,0.169677734375,0.97607421875,0.0400390625,15.251908396946565,-13.931297709923664,21.114503816793892
3.04,0.1728515625,0.958251953125,0.033447265625,17.229007633587788,-15.114503816793894,23.17557251908397
3.05,0.190185546875,0.951904296875,0.04248046875,17.66412213740458,-12.114503816793894,22.0
3.06,0.18115234375,0.955078125,0.026611328125,17.045801526717558,-11.679389312977099,18.870229007633586
3.07,0.171630859375,0.9609375,0.043212890625,15.0,-6.931297709923665,17.396946564885496
3.08,0.162353515625,0.974609375,0.025634765625,11.50381679389313,-6.67175572519084,12.938931297709924
3.09,0.142822265625,0.978759765625,0.024169921875,9.16030534351145,-6.305343511450381,13.641221374045802
3.1,0.152099609375,0.982666015625,0.030029296875,9.488549618320612,-4.641221374045801,12.580152671755725
3.11,0.2001953125,0.953857421875,0.028076171875,10.51908396946565,-1.8396946564885497,11.366412213740459
3.12,0.1708984375,0.97119140625,0.031005859375,8.435114503816793,-0.25190839694656486,11.595419847328245
3.13,0.18212890625,0.982421875,0.027587890625,4.709923664122138,-0.2366412213740458,11.450381679389313
3.14,0.18701171875,0.99169921875,0.028564453125,1.3969465648854962,-0.04580152671755725,11.709923664122137
3.15,0.193359375,0.986572265625,0.0234375,-0.9465648854961832,0.015267175572519083,12.251908396946565
3.16,0.189453125,0.9853515625,0.018310546875,-2.931297709923664,0.19083969465648856,12.068702290076336
3.17,0.201416015625,0.9560546875,0.024658203125,-3.9236641221374047,1.5801526717557253,11.435114503816793
3.18,0.196044921875,0.98095703125,0.02685546875,-3.427480916030534,3.145038167938931,10.366412213740459
3.19,0.188232421875,0.985107421875,0.00341796875,-3.7786259541984735,2.954198473282443,9.954198473282442
3.2,0.19482421875,0.984130859375,0.021728515625,-3.816793893129771,3.816793893129771,9.389312977099237
3.21,0.195068359375,0.99169921875,0.02099609375,-2.50381679389313,1.2595419847328244,8.534351145038167
3.22,0.2119140625,0.9990234375,0.023193359375,-0.8015267175572519,0.06870229007633588,6.473282442748092
3.23,0.208984375,1.009765625,0.022705078125,-0.5190839694656488,2.0,4.9541984732824424
3.24,0.199462890625,1.016845703125,0.0302734375,-2.312977099236641,2.9618320610687023,4.366412213740458
3.25,0.19384765625,1.030029296875,0.025634765625,-3.8625954198473282,2.9389312977099236,2.9236641221374047
3.26,0.1884765625,1.02685546875,0.034423828125,-4.862595419847328,2.480916030534351,2.954198473282443
3.27,0.197265625,1.000244140625,0.03564453125,-5.511450381679389,1.7557251908396947,4.015267175572519
3.28,0.216064453125,0.982421875,0.01953125,-5.816793893129771,1.3587786259541985,4.625954198473282
3.29,0.21484375,0.97119140625,0.028076171875,-6.66412213740458,0.04580152671755725,4.374045801526718
3.3,0.218994140625,0.971435546875,0.02685546875,-7.717557251908397,0.648854961832061,3.2595419847328246
3.31,0.224365234375,0.97021484375,0.037353515625,-6.6106870229007635,2.450381679389313,1.2748091603053435
3.32,0.229736328125,0.971435546875,0.02587890625,-7.740458015267175,1.7709923664122138,0.2824427480916031
3.33,0.238525390625,0.986572265625,0.028076171875,-8.564885496183207,0.6030534351145038,0.8473282442748091
3.34,0.22412109375,0.99853515625,0.041748046875,-7.3816793893129775,-0.732824427480916,3.2748091603053435
3.35,0.232666015625,1.010986328125,0.041748046875,-5.625954198473282,-1.015267175572519,5.213740458015267
3.36,0.21435546875,1.010986328125,0.047119140625,-6.564885496183206,-1.8778625954198473,6.9541984732824424
3.37,0.217529296875,0.994140625,0.044189453125,-7.67175572519084,-1.717557251908397,6.374045801526718
3.38,0.20849609375,0.982177734375,0.03564453125,-9.335877862595419,-1.2213740458015268,5.633587786259542
3.39,0.218994140625,0.961669921875,0.017822265625,-9.816793893129772,-0.8625954198473282,4.145038167938932
3.4,0.21923828125,0.92822265625,0.024169921875,-11.305343511450381,0.6717557251908397,1.7099236641221374
3.41,0.22802734375,0.95068359375,0.012939453125,-9.045801526717558,2.2977099236641223,-0.549618320610687
3.42,0.23291015625,0.9443359375,0.018798828125,-5.038167938931298,3.66412213740458,-1.7404580152671756
3.43,0.213134765625,0.9619140625,0.0380859375,-2.0610687022900764,2.4580152671755724,0.183206106870229
3.44,0.22119140625,0.959228515625,0.026611328125,0.7175572519083969,1.8931297709923665,0.7480916030534351
3.45,0.2265625,0.9638671875,0.034423828125,2.9160305343511452,3.3282442748091605,-1.4809160305343512
3.46,0.2041015625,0.962890625,0.035888671875,2.854961832061069,5.022900763358779,-4.541984732824427
3.47,0.23095703125,0.9892578125,0.037109375,1.3206106870229009,5.961832061068702,-6.656488549618321
3.48,0.214111328125,0.9970703125,0.03515625,-0.6259541984732825,5.66412213740458,-5.900763358778626
3.49,0.22119140625,0.99658203125,0.03662109375,-2.099236641221374,4.66412213740458,-3.450381679389313
3.5,0.2216796875,0.981201171875,0.046142578125,-3.1374045801526718,3.7786259541984735,-1.465648854961832
3.51,0.2236328125,0.968505859375,0.041748046875,-3.1526717557251906,3.5877862595419847,-0.7862595419847328
3.52,0.224609375,0.961181640625,0.033203125,-2.0839694656488548,4.374045801526718,-1.9083969465648856
3.53,0.21923828125,0.96435546875,0.047119140625,-0.4580152671755725,5.099236641221374,-2.931297709923664
3.54,0.22216796875,0.977294921875,0.05126953125,-0.5419847328244275,6.061068702290076,-3.9083969465648853
3.55,0.232666015625,0.98291015625,0.039794921875,-2.6259541984732824,6.305343511450381,-3.7404580152671754
3.56,0.20654296875,0.975830078125,0.055908203125,-4.00763358778626,6.33587786259542,-3.2442748091603053
3.57,0.219482421875,0.95458984375,0.056640625,-4.290076335877862,6.824427480916031,-3.4732824427480917
3.58,0.2109375,0.959716796875,0.0595703125,-3.312977099236641,6.801526717557252,-3.3282442748091605
3.59,0.210205078125,0.966064453125,0.052978515625,-2.053435114503817,6.312977099236641,-3.3740458015267176
3.6,0.202880859375,0.956298828125,0.060302734375,-2.3587786259541983,5.923664122137405,-3.1297709923664123
3.61,0.205078125,0.9599609375,0.06298828125,-3.1297709923664123,6.297709923664122,-3.786259541984733
3.62,0.224609375,0.953857421875,0.052490234375,-2.8091603053435112,7.534351145038168,-4.916030534351145
3.63,0.232421875,0.94189453125,0.051025390625,-0.8778625954198473,8.977099236641221,-6.748091603053435
3.64,0.2216796875,0.967529296875,0.051513671875,0.9312977099236641,10.854961832061068,-9.206106870229007
3.65,0.201904296875,0.955078125,0.064208984375,1.3893129770992367,11.068702290076336,-11.541984732824428
3.66,0.194580078125,0.992431640625,0.063720703125,0.5648854961832062,11.267175572519085,-13.17557251908397
3.67,0.2021484375,0.98828125,0.062744140625,0.07633587786259542,11.450381679389313,-13.427480916030534
3.68,0.22412109375,1.01123046875,0.080810546875,-1.4809160305343512,11.786259541984732,-11.84732824427481
3.69,0.204345703125,1.0126953125,0.079833984375,-2.0839694656488548,11.183206106870228,-8.106870229007633
3.7,0.218994140625,1.031005859375,0.0810546875,-6.458015267175573,10.01526717557252,-5.8396946564885495
3.71,0.2216796875,1.0048828125,0.077392578125,-7.488549618320611,8.885496183206106,-0.7022900763358778
3.72,0.204833984375,1.005615234375,0.0634765625,-7.297709923664122,8.381679389312977,0.15267175572519084
3.73,0.205810546875,0.99560546875,0.056884765625,-6.984732824427481,8.610687022900763,-1.7786259541984732
3.74,0.205078125,0.97998046875,0.04345703125,-6.702290076335878,7.854961832061068,-5.702290076335878
3.75,0.200927734375,0.97802734375,0.048828125,-5.183206106870229,10.900763358778626,-9.251908396946565
3.76,0.20263671875,0.99951171875,0.0439453125,-3.2748091603053435,10.900763358778626,-10.778625954198473
3.77,0.19775390625,1.01318359375,0.030029296875,-2.931297709923664,10.419847328244275,-10.282442748091603
3.78,0.190673828125,1.01611328125,0.049072265625,-2.7709923664122136,8.877862595419847,-7.8396946564885495
3.79,0.201171875,1.022705078125,0.054443359375,-2.6946564885496183,7.526717557251908,-5.290076335877862
3.8,0.184326171875,1.011962890625,0.040771484375,-4.083969465648855,6.419847328244275,-3.183206106870229
3.81,0.1806640625,1.000244140625,0.032470703125,-6.748091603053435,5.0534351145038165,-1.282442748091603
3.82,0.1943359375,0.9765625,0.033203125,-8.274809160305344,3.6793893129770994,0.10687022900763359
3.83,0.20458984375,0.96044921875,0.02978515625,-6.786259541984733,2.816793893129771,0.16793893129770993
3.84,0.19970703125,0.94970703125,0.027587890625,-2.0610687022900764,3.0,-1.0305343511450382
3.85,0.2158203125,0.9521484375,0.031005859375,2.0381679389312977,3.519083969465649,-3.786259541984733
3.86,0.20556640625,0.95556640625,0.038818359375,4.694656488549619,4.694656488549619,-5.442748091603053
3.87,0.20361328125,0.9794921875,0.03662109375,4.343511450381679,5.6106870229007635,-5.870229007633588
3.88,0.21142578125,0.989990234375,0.062255859375,2.5267175572519083,5.961832061068702,-4.442748091603053
3.89,0.20703125,0.989013671875,0.057373046875,0.22900763358778625,4.702290076335878,-0.8320610687022901
3.9,0.20849609375,0.978515625,0.038330078125,-2.3740458015267176,3.4885496183206106,3.2900763358778624
3.91,0.203857421875,0.976806640625,0.027099609375,-4.290076335877862,2.1908396946564888,5.854961832061068
3.92,0.201171875,0.970947265625,0.032470703125,-4.1603053435114505,3.3053435114503817,4.916030534351145
3.93,0.177978515625,0.9638671875,0.025146484375,-2.5114503816793894,3.8091603053435112,3.145038167938931
3.94,0.181396484375,0.96044921875,0.02099609375,-0.6106870229007634,4.259541984732825,0.8549618320610687
3.95,0.18603515625,0.961181640625,0.01904296875,1.1603053435114503,4.282442748091603,-0.7404580152671756
3.96,0.190185546875,0.967529296875,0.031494140625,2.267175572519084,4.427480916030534,-0.6717557251908397
3.97,0.185302734375,0.96923828125,0.041015625,2.0076335877862594,3.7404580152671754,-0.16030534351145037
3.98,0.18896484375,0.978271484375,0.0419921875,2.0076335877862594,2.9083969465648853,0.6717557251908397
3.99,0.185546875,0.977294921875,0.03759765625,3.0916030534351147,2.49618320610687,0.8320610687022901
4.0,0.19140625,0.97705078125,0.036865234375,5.137404580152672,2.5343511450381677,-0.16030534351145037
4.01,0.174560546875,0.989990234375,0.051513671875,6.854961832061068,2.7251908396946565,-1.1984732824427482
4.02,0.176025390625,1.009765625,0.06005859375,6.656488549618321,2.2900763358778624,-2.0
4.03,0.173095703125,1.017822265625,0.05517578125,3.3206106870229006,0.4198473282442748,-1.5801526717557253
4.04,0.174560546875,1.019287109375,0.04736328125,-1.5190839694656488,-1.3969465648854962,-1.900763358778626
4.05,0.1845703125,1.016845703125,0.069580078125,-3.16793893129771,-1.4122137404580153,2.1068702290076335
4.06,0.2021484375,1.01025390625,0.058837890625,-3.4198473282442747,-1.6259541984732824,3.427480916030534
4.07,0.2060546875,0.990234375,0.05224609375,-3.3206106870229006,-1.5267175572519085,3.648854961832061
4.08,0.193359375,0.988037109375,0.05419921875,-3.1068702290076335,-1.0687022900763359,2.854961832061069
4.09,0.193115234375,0.97607421875,0.044189453125,-2.1755725190839694,-0.11450381679389313,1.381679389312977
4.1,0.187744140625,0.955078125,0.04736328125,-1.1221374045801527,0.6183206106870229,-1.5190839694656488
4.11,0.19970703125,0.9716796875,0.05712890625,0.1984732824427481,0.8015267175572519,-3.404580152671756
4.12,0.182861328125,0.984130859375,0.049072265625,2.16793893129771,0.8549618320610687,-4.4961832061068705
4.13,0.18994140625,0.9921875,0.061767578125,2.4198473282442747,0.35877862595419846,-4.3893129770992365
4.14,0.177490234375,1.008056640625,0.060791015625,1.1526717557251909,-0.24427480916030533,-3.6564885496183206
4.15,0.1806640625,1.009765625,0.065185546875,-1.7328244274809161,-0.6793893129770993,-3.015267175572519
4.16,0.17724609375,1.0078125,0.057861328125,-4.526717557251908,-1.3893129770992367,-2.236641221374046
4.17,0.177001953125,0.991455078125,0.04443359375,-6.1603053435114505,-2.1755725190839694,-1.5877862595419847
4.18,0.202392578125,0.98388671875,0.052978515625,-5.6106870229007635,-2.2748091603053435,-1.4274809160305344
4.19,0.201171875,0.9697265625,0.06103515625,-4.9465648854961835,-2.9618320610687023,-0.9083969465648855
4.2,0.169189453125,0.979248046875,0.053466796875,-5.603053435114504,-3.969465648854962,-0.09923664122137404
4.21,0.1689453125,0.971435546875,0.05078125,-6.282442748091603,-4.900763358778626,0.16030534351145037
4.22,0.174560546875,0.976318359375,0.07275390625,-6.580152671755725,-6.061068702290076,0.4198473282442748
4.23,0.17724609375,0.9736328125,0.080810546875,-6.206106870229007,-6.824427480916031,1.0
4.24,0.17822265625,0.9697265625,0.073486328125,-5.916030534351145,-7.450381679389313,1.3511450381679388
4.25,0.197265625,0.963134765625,0.071533203125,-6.221374045801527,-6.755725190839694,0.366412213740458
4.26,0.189697265625,0.953369140625,0.09326171875,-6.1603053435114505,-5.66412213740458,-1.0687022900763359
4.27,0.19873046875,0.955810546875,0.0634765625,-5.679389312977099,-4.1603053435114505,-3.2213740458015265
4.28,0.187255859375,0.946044921875,0.07763671875,-5.427480916030534,-3.33587786259542,-4.312977099236641
4.29,0.19091796875,0.962158203125,0.06396484375,-4.480916030534351,-3.0916030534351147,-5.114503816793893
4.3,0.20556640625,0.945068359375,0.07421875,-3.122137404580153,-1.6564885496183206,-7.633587786259542
4.31,0.173095703125,0.959716796875,0.069091796875,-3.122137404580153,-0.7480916030534351,-9.267175572519085
4.32,0.156494140625,0.973388671875,0.0654296875,-2.8244274809160306,-1.5648854961832062,-9.396946564885496
4.33,0.1806640625,0.992431640625,0.057373046875,-1.900763358778626,-2.7480916030534353,-9.007633587786259
4.34,0.169677734375,1.009033203125,0.051513671875,-1.1221374045801527,-4.152671755725191,-8.572519083969466
4.35,0.15283203125,1.01513671875,0.05419921875,-1.8396946564885497,-6.190839694656488,-7.770992366412214
4.36,0.1455078125,1.017578125,0.0537109375,-3.1374045801526718,-8.67175572519084,-5.870229007633588
4.37,0.174072265625,1.0107421875,0.048095703125,-3.2213740458015265,-10.977099236641221,-5.8396946564885495
4.38,0.19140625,1.008056640625,0.055908203125,-1.786259541984733,-12.053435114503817,-2.1908396946564888
4.39,0.204833984375,1.017333984375,0.052001953125,-1.450381679389313,-13.473282442748092,-0.42748091603053434
4.4,0.190185546875,1.031982421875,0.05615234375,-1.297709923664122,-13.717557251908397,0.9236641221374046
4.41,0.198486328125,1.017822265625,0.05517578125,-1.0305343511450382,-17.015267175572518,0.732824427480916
4.42,0.189697265625,1.038330078125,0.071533203125,-1.786259541984733,-17.977099236641223,0.9770992366412213
4.43,0.200439453125,1.01611328125,0.07275390625,-3.4198473282442747,-19.282442748091604,1.3969465648854962
4.44,0.2109375,1.00537109375,0.06982421875,-3.984732824427481,-18.84732824427481,1.2213740458015268
4.45,0.21337890625,1.00390625,0.067138671875,-4.473282442748092,-18.793893129770993,2.3282442748091605
4.46,0.212890625,0.99462890625,0.062255859375,-3.9770992366412212,-20.793893129770993,4.068702290076335
4.47,0.2060546875,0.9736328125,0.046630859375,-1.0,-21.27480916030534,4.480916030534351
4.48,0.191162109375,0.962890625,0.046142578125,3.2900763358778624,-20.30534351145038,2.450381679389313
4.49,0.178955078125,0.956298828125,0.040283203125,5.587786259541985,-20.16793893129771,0.32061068702290074
4.5,0.165283203125,0.946533203125,0.018798828125,6.3893129770992365,-18.801526717557252,-0.15267175572519084
4.51,0.164794921875,0.943603515625,0.022705078125,8.381679389312977,-18.267175572519083,-4.038167938931298
4.52,0.15478515625,0.951904296875,0.00732421875,8.061068702290076,-20.748091603053435,-5.076335877862595
4.53,0.17138671875,0.964599609375,0.030029296875,8.580152671755725,-19.954198473282442,-4.0458015267175576
4.54,0.17919921875,0.976806640625,0.02294921875,9.549618320610687,-19.61832061068702,-3.3969465648854964
4.55,0.197265625,0.996826171875,0.032958984375,9.931297709923664,-20.916030534351144,-3.0076335877862594
4.56,0.15283203125,1.017822265625,0.034423828125,11.297709923664122,-22.053435114503817,-1.8625954198473282
4.57,0.134765625,1.005859375,0.035888671875,11.83206106870229,-23.30534351145038,-2.236641221374046
4.58,0.140380859375,1.0029296875,0.061279296875,10.17557251908397,-25.748091603053435,-2.4656488549618323
4.59,0.138427734375,0.9951171875,0.042724609375,9.763358778625955,-29.045801526717558,-1.3587786259541985
4.6,0.155029296875,0.969970703125,0.040771484375,5.213740458015267,-29.66412213740458,-0.015267175572519083
4.61,0.184814453125,0.967529296875,0.036865234375,2.564885496183206,-30.236641221374047,1.8625954198473282
4.62,0.202392578125,0.968994140625,0.024169921875,1.6641221374045803,-29.16793893129771,1.7633587786259541
4.63,0.216552734375,0.986083984375,0.033203125,1.9236641221374047,-26.908396946564885,0.8625954198473282
4.64,0.18994140625,1.005859375,0.037353515625,1.4961832061068703,-25.53435114503817,0.6564885496183206
4.65,0.181396484375,1.00927734375,0.060546875,-0.33587786259541985,-26.14503816793893,0.04580152671755725
4.66,0.17724609375,0.9873046875,0.0419921875,-3.4198473282442747,-27.755725190839694,2.0076335877862594
4.67,0.200927734375,0.97412109375,0.062255859375,-5.206106870229007,-28.259541984732824,3.954198473282443
4.68,0.212890625,0.97802734375,0.03369140625,-4.648854961832061,-27.458015267175572,2.946564885496183
4.69,0.199462890625,0.96875,0.03515625,-4.1603053435114505,-26.114503816793892,1.366412213740458
4.7,0.19970703125,0.962890625,0.04541015625,-3.068702290076336,-25.3206106870229,-0.8015267175572519
4.71,0.197509765625,0.962890625,0.040771484375,-2.312977099236641,-25.091603053435115,-2.4885496183206106
4.72,0.1884765625,0.96484375,0.0400390625,-2.4580152671755724,-24.870229007633586,-3.5801526717557253
4.73,0.178955078125,0.971435546875,0.06201171875,-3.7022900763358777,-24.793893129770993,-3.49618320610687
4.74,0.198486328125,0.97021484375,0.05126953125,-3.9236641221374047,-25.114503816793892,-4.343511450381679
4.75,0.19970703125,0.972412109375,0.059814453125,-7.32824427480916,-23.541984732824428,-3.9389312977099236
4.76,0.20361328125,0.97314453125,0.042724609375,-8.702290076335878,-21.229007633587788,-6.3816793893129775
4.77,0.2109375,0.986083984375,0.03955078125,-10.572519083969466,-19.053435114503817,-6.404580152671755
4.78,0.210693359375,0.98095703125,0.04541015625,-12.053435114503817,-16.740458015267176,-6.175572519083969
4.79,0.20263671875,0.997314453125,0.019287109375,-15.198473282442748,-14.83206106870229,-4.3893129770992365
4.8,0.091796875,0.89794921875,0.276123046875,-18.84732824427481,-14.931297709923664,-6.694656488549619
4.81,0.172607421875,0.98583984375,0.01220703125,-22.435114503816795,-11.007633587786259,-7.526717557251908
4.82,0.17041015625,0.958984375,0.0166015625,-24.64885496183206,-9.122137404580153,-11.053435114503817
4.83,0.153564453125,0.95263671875,0.055908203125,-26.709923664122137,-5.893129770992366,-15.526717557251908
4.84,0.16015625,1.001708984375,0.008544921875,-27.65648854961832,-4.427480916030534,-15.007633587786259
4.85,0.10302734375,0.97802734375,0.221435546875,-32.85496183206107,-6.549618320610687,-17.106870229007633
4.86,0.183349609375,1.033447265625,-0.016357421875,-25.900763358778626,-12.01526717557252,-12.961832061068701
4.87,0.19482421875,0.981201171875,0.0576171875,-16.50381679389313,-22.0,-9.053435114503817
4.88,0.198974609375,0.96435546875,0.0673828125,-8.32824427480916,-27.9618320610687,-4.66412213740458
4.89,0.222900390625,0.973876953125,0.034912109375,-0.8778625954198473,-32.00763358778626,-2.83206106870229
4.9,0.23779296875,0.985595703125,0.031982421875,0.5877862595419847,-32.99236641221374,-1.1526717557251909
4.91,0.229248046875,1.001708984375,0.041259765625,-0.09923664122137404,-35.0,1.2213740458015268
4.92,0.23193359375,1.024658203125,0.051513671875,0.8549618320610687,-36.74809160305343,4.358778625954199
4.93,0.2197265625,1.021240234375,0.05419921875,2.099236641221374,-36.732824427480914,5.030534351145038
4.94,0.2060546875,1.029052734375,0.076904296875,1.83206106870229,-36.55725190839695,4.427480916030534
4.95,0.199462890625,1.031982421875,0.08154296875,-0.13740458015267176,-36.961832061068705,4.526717557251908
4.96,0.2080078125,1.004638671875,0.07958984375,-6.732824427480916,-36.587786259541986,3.7938931297709924
4.97,0.215087890625,0.977783203125,0.062744140625,-10.427480916030534,-36.33587786259542,2.572519083969466
4.98,0.202392578125,0.955322265625,0.072265625,-9.84732824427481,-36.458015267175576,2.0
4.99,0.21240234375,0.9453125,0.0791015625,-5.67175572519084,-35.70992366412214,0.6793893129770993
5.0,0.20703125,0.939697265625,0.055908203125,-1.4122137404580153,-32.83206106870229,-1.7328244274809161
5.01,0.205810546875,0.953125,0.068359375,-0.3893129770992366,-28.27480916030534,-4.343511450381679
5.02,0.206787109375,0.966064453125,0.07666015625,-1.16793893129771,-25.442748091603054,-5.938931297709924
5.03,0.195068359375,0.978759765625,0.076904296875,-3.7786259541984735,-24.015267175572518,-5.473282442748092
5.04,0.196044921875,0.982666015625,0.093505859375,-6.580152671755725,-23.862595419847327,-3.1755725190839694
5.05,0.18408203125,0.97509765625,0.080078125,-6.679389312977099,-24.938931297709924,-1.3511450381679388
5.06,0.161865234375,0.964599609375,0.075439453125,-6.740458015267175,-25.68702290076336,-1.6946564885496183
5.07,0.154541015625,0.95068359375,0.049560546875,-7.549618320610687,-24.091603053435115,-4.603053435114504
5.08,0.14453125,0.9482421875,0.034912109375,-9.083969465648854,-19.244274809160306,-8.564885496183207
5.09,0.162109375,0.968017578125,0.068359375,-10.442748091603054,-18.31297709923664,-10.86259541984733
5.1,0.14453125,0.991455078125,0.065673828125,-10.633587786259541,-18.65648854961832,-8.427480916030534
5.11,0.14501953125,1.00634765625,0.08740234375,-11.80916030534351,-21.19083969465649,-4.8396946564885495
5.12,0.155517578125,1.02734375,0.081298828125,-14.15267175572519,-23.374045801526716,-1.8015267175572518
5.13,0.145263671875,1.020751953125,0.093017578125,-16.51145038167939,-23.885496183206108,-0.13740458015267176
5.14,0.157958984375,1.00634765625,0.083740234375,-18.557251908396946,-22.610687022900763,-1.8244274809160306
5.15,0.141845703125,1.0087890625,0.075927734375,-20.51145038167939,-20.389312977099237,-4.106870229007634
5.16,0.1298828125,1.007568359375,0.082275390625,-19.557251908396946,-18.19083969465649,-6.66412213740458
5.17,0.126220703125,1.005615234375,0.090087890625,-23.717557251908396,-17.68702290076336,-7.969465648854962
5.18,0.127685546875,1.005615234375,0.0947265625,-25.236641221374047,-16.557251908396946,-7.32824427480916
5.19,0.14990234375,0.990966796875,0.098388671875,-25.00763358778626,-17.3206106870229,-6.641221374045801
5.2,0.13671875,0.977294921875,0.092041015625,-25.702290076335878,-17.572519083969464,-6.091603053435114
5.21,0.137451171875,0.959716796875,0.079833984375,-26.603053435114504,-17.31297709923664,-5.473282442748092
5.22,0.145263671875,0.985107421875,0.085205078125,-29.022900763358777,-15.664122137404581,-3.5343511450381677
5.23,0.147705078125,0.9736328125,0.1083984375,-31.435114503816795,-15.664122137404581,-3.1603053435114505
5.24,0.13232421875,0.9853515625,0.114990234375,-34.13740458015267,-17.282442748091604,-2.564885496183206
5.25,0.1298828125,0.983154296875,0.114990234375,-35.54961832061068,-17.49618320610687,-3.2213740458015265
5.26,0.140625,0.971923828125,0.11865234375,-35.656488549618324,-15.16030534351145,-5.732824427480916
5.27,0.151123046875,0.966064453125,0.126708984375,-35.45038167938932,-11.763358778625955,-7.816793893129771
5.28,0.162841796875,0.9619140625,0.134033203125,-35.038167938931295,-9.045801526717558,-9.198473282442748
5.29,0.15283203125,0.9892578125,0.13671875,-33.656488549618324,-7.175572519083969,-9.251908396946565
5.3,0.13818359375,0.9931640625,0.1533203125,-32.83206106870229,-6.885496183206107,-9.381679389312977
5.31,0.138916015625,0.998046875,0.164794921875,-29.625954198473284,-6.8396946564885495,-9.763358778625955
5.32,0.13818359375,0.998291015625,0.17724609375,-25.519083969465647,-8.923664122137405,-9.251908396946565
5.33,0.124755859375,0.997802734375,0.159912109375,-21.64885496183206,-10.083969465648854,-7.778625954198473
5.34,0.135986328125,0.980224609375,0.171142578125,-15.793893129770993,-10.587786259541986,-8.458015267175572
5.35,0.156005859375,0.98876953125,0.168212890625,-11.076335877862595,-8.007633587786259,-8.954198473282442
5.36,0.164794921875,0.9931640625,0.181640625,-6.015267175572519,-3.6946564885496183,-7.595419847328245
5.37,0.152099609375,0.986572265625,0.173828125,-2.427480916030534,-1.5648854961832062,-5.267175572519084
5.38,0.138916015625,0.96826171875,0.178466796875,1.015267175572519,-0.8854961832061069,-3.49618320610687
5.39,0.1064453125,0.9814453125,0.184326171875,1.3511450381679388,-1.366412213740458,-1.5190839694656488
5.4,0.093017578125,0.980224609375,0.1787109375,0.46564885496183206,-0.7633587786259542,-0.4580152671755725
5.41,0.119140625,0.986083984375,0.1923828125,-0.183206106870229,3.2519083969465647,-0.9083969465648855
5.42,0.09521484375,0.980224609375,0.19189453125,-3.114503816793893,5.641221374045801,-1.2213740458015268
5.43,0.088134765625,0.974365234375,0.172119140625,-2.519083969465649,6.908396946564886,-2.7022900763358777
5.44,0.1083984375,0.962646484375,0.16943359375,-2.145038167938931,6.038167938931298,-6.7251908396946565
5.45,0.104248046875,0.93798828125,0.12841796875,-2.6412213740458017,7.755725190839694,-11.572519083969466
5.46,0.1201171875,0.962890625,0.163330078125,-1.633587786259542,6.099236641221374,-14.366412213740459
5.47,0.125,0.97802734375,0.151123046875,0.07633587786259542,4.793893129770993,-13.603053435114504
5.48,0.10498046875,1.002197265625,0.167724609375,0.9236641221374046,4.9465648854961835,-12.229007633587786
5.49,0.124755859375,1.01953125,0.169921875,2.954198473282443,10.01526717557252,-12.702290076335878
5.5,0.125,1.044189453125,0.17333984375,-0.35877862595419846,8.16030534351145,-12.854961832061068
5.51,0.135498046875,1.0458984375,0.1884765625,-4.076335877862595,4.236641221374046,-10.297709923664122
5.52,0.146728515625,1.03955078125,0.19482421875,-4.396946564885496,1.8625954198473282,-6.809160305343512
5.53,0.1435546875,1.030517578125,0.1923828125,-4.854961832061068,-0.04580152671755725,-3.7251908396946565
5.54,0.138427734375,1.02490234375,0.190673828125,-3.6717557251908395,-3.435114503816794,-1.5419847328244274
5.55,0.106201171875,1.010498046875,0.15185546875,-3.2213740458015265,-4.396946564885496,-1.16793893129771
5.56,0.08349609375,0.985107421875,0.162353515625,-2.4580152671755724,-1.450381679389313,-4.061068702290076
5.57,0.09814453125,0.99755859375,0.186279296875,1.16793893129771,4.473282442748092,-12.068702290076336
5.58,0.116455078125,1.02783203125,0.197998046875,4.488549618320611,6.603053435114504,-14.068702290076336
5.59,0.11083984375,1.000244140625,0.195068359375,2.83206106870229,3.2748091603053435,-12.854961832061068
5.6,0.099365234375,1.005859375,0.19677734375,1.633587786259542,0.7557251908396947,-10.389312977099237
5.61,0.105224609375,0.98486328125,0.188720703125,1.8091603053435115,1.0229007633587786,-9.351145038167939
5.62,0.105224609375,0.98046875,0.189208984375,2.8702290076335877,1.2595419847328244,-9.290076335877863
5.63,0.109619140625,0.980224609375,0.164306640625,3.8396946564885495,3.015267175572519,-8.763358778625955
5.64,0.099853515625,1.00244140625,0.17724609375,4.778625954198473,3.7404580152671754,-6.931297709923665
5.65,0.111328125,1.003173828125,0.185546875,6.916030534351145,4.854961832061068,-5.625954198473282
5.66,0.0986328125,1.011962890625,0.18212890625,6.801526717557252,3.1297709923664123,-4.175572519083969
5.67,0.093994140625,1.020751953125,0.17822265625,6.770992366412214,-2.7938931297709924,0.6183206106870229
5.68,0.1005859375,1.022216796875,0.15869140625,9.938931297709924,-5.717557251908397,4.66412213740458
5.69,0.096923828125,1.01318359375,0.137451171875,14.732824427480915,-6.564885496183206,5.916030534351145
5.7,0.075439453125,1.009765625,0.145263671875,19.64885496183206,-4.740458015267175,7.809160305343512
5.71,0.061767578125,1.013427734375,0.156982421875,24.16030534351145,-3.885496183206107,3.282442748091603
5.72,0.037109375,1.02197265625,0.1640625,24.557251908396946,-6.625954198473282,1.6564885496183206
5.73,0.038818359375,1.02001953125,0.150390625,22.977099236641223,-8.022900763358779,2.3587786259541983
5.74,0.080810546875,0.987548828125,0.1162109375,22.061068702290076,-5.603053435114504,0.8931297709923665
5.75,0.1142578125,0.968994140625,0.03466796875,19.045801526717558,5.488549618320611,-1.5725190839694656
5.76,0.11328125,0.9541015625,0.10498046875,21.458015267175572,10.83969465648855,-4.122137404580153
5.77,0.086181640625,0.976318359375,0.103515625,26.740458015267176,12.213740458015268,-3.7557251908396947
5.78,0.0712890625,0.967529296875,0.111328125,30.541984732824428,10.931297709923664,-3.1908396946564888
5.79,0.04052734375,0.98193359375,0.10986328125,29.427480916030536,9.129770992366412,-1.183206106870229
5.8,0.08447265625,0.972900390625,0.0908203125,21.061068702290076,5.1603053435114505,-0.48091603053435117
5.81,0.065673828125,0.993408203125,0.091796875,13.564885496183207,2.2213740458015265,1.213740458015267
5.82,0.0830078125,0.97509765625,0.087890625,4.572519083969466,-0.3053435114503817,-0.40458015267175573
5.83,0.078857421875,0.96044921875,0.0546875,1.4198473282442747,1.8702290076335877,-5.183206106870229
5.84,0.091064453125,0.9873046875,0.054931640625,3.877862595419847,4.564885496183206,-8.351145038167939
5.85,0.0751953125,1.0263671875,0.088623046875,10.068702290076336,4.8396946564885495,-7.587786259541985
5.86,0.080810546875,1.0390625,0.114501953125,12.923664122137405,3.1374045801526718,-5.748091603053435
5.87,0.061767578125,1.032958984375,0.096435546875,10.236641221374045,1.0,-2.7022900763358777
5.88,0.054931640625,1.02197265625,0.087646484375,3.1297709923664123,-0.8702290076335878,-0.3969465648854962
5.89,0.055908203125,1.005615234375,0.07666015625,-2.8396946564885495,-0.9618320610687023,0.916030534351145
5.9,0.0654296875,0.975341796875,0.062255859375,-6.305343511450381,-0.4122137404580153,0.15267175572519084
5.91,0.05810546875,0.95751953125,0.06591796875,-5.0,-1.4809160305343512,-0.8854961832061069
5.92,0.04736328125,0.933349609375,0.038330078125,-1.8702290076335877,0.15267175572519084,-1.9465648854961832
5.93,0.053466796875,0.911865234375,0.03759765625,7.66412213740458,0.48091603053435117,-4.625954198473282
5.94,0.065185546875,0.94482421875,0.056640625,15.16030534351145,2.6030534351145036,-7.908396946564886
5.95,0.070556640625,0.97705078125,0.09130859375,18.595419847328245,4.984732824427481,-9.19083969465649
5.96,0.078125,0.99658203125,0.087890625,20.328244274809162,8.557251908396946,-8.17557251908397
5.97,0.09228515625,1.005126953125,0.097900390625,22.083969465648856,8.732824427480915,-5.206106870229007
5.98,0.096923828125,1.006103515625,0.084716796875,25.83969465648855,7.251908396946565,-1.786259541984733
5.99,0.087646484375,0.979736328125,0.057373046875,34.94656488549618,8.022900763358779,5.0
6.0,0.054931640625,0.965087890625,0.030029296875,40.587786259541986,3.763358778625954,16.198473282442748
6.01,0.033935546875,0.979736328125,0.040771484375,42.038167938931295,-8.946564885496183,23.419847328244273
6.02,0.073486328125,1.021728515625,0.04150390625,47.61832061068702,-7.923664122137405,21.198473282442748
6.03,0.088134765625,1.059326171875,0.058837890625,54.954198473282446,-5.656488549618321,11.450381679389313
6.04,0.101806640625,1.048828125,0.0654296875,64.09160305343511,-7.450381679389313,7.633587786259542
6.05,0.0859375,1.059814453125,-0.030029296875,64.38167938931298,-7.854961832061068,15.412213740458014
6.06,0.01416015625,1.037109375,0.042236328125,58.2442748091603,-16.412213740458014,20.083969465648856
6.07,0.08056640625,1.05859375,-0.02734375,47.6412213740458,-14.564885496183207,22.358778625954198
6.08,0.07373046875,1.037109375,-0.04443359375,39.02290076335878,-3.030534351145038,24.053435114503817
6.09,0.05078125,0.9912109375,0.029296875,26.977099236641223,3.7557251908396947,26.427480916030536
6.1,0.111328125,1.030029296875,-0.045654296875,17.99236641221374,6.816793893129771,29.862595419847327
6.11,0.111083984375,0.949462890625,0.015869140625,12.473282442748092,3.9770992366412212,27.625954198473284
6.12,0.054443359375,0.8203125,0.02197265625,2.786259541984733,10.801526717557252,20.977099236641223
6.13,0.097900390625,0.819580078125,-0.06884765625,-0.916030534351145,14.946564885496183,13.916030534351146
6.14,0.098876953125,0.805419921875,-0.021728515625,0.9312977099236641,14.877862595419847,6.450381679389313
6.15,0.154296875,0.856689453125,-0.037353515625,6.564885496183206,19.206106870229007,1.4809160305343512
6.16,0.183349609375,0.922119140625,0.01318359375,14.755725190839694,17.778625954198475,-2.9160305343511452
6.17,0.181884765625,1.0185546875,-0.008056640625,12.946564885496183,21.38167938931298,-1.534351145038168
6.18,0.1904296875,1.061767578125,0.029052734375,5.3816793893129775,22.49618320610687,2.183206106870229
6.19,0.147705078125,1.091796875,-0.00927734375,-12.748091603053435,21.404580152671755,14.267175572519085
6.2,0.14990234375,1.0458984375,-0.01806640625,-24.755725190839694,19.755725190839694,23.12213740458015
6.21,0.125244140625,1.000732421875,-0.06103515625,-29.64885496183206,17.732824427480917,30.778625954198475
6.22,0.13720703125,0.92041015625,0.0107421875,-25.786259541984734,14.893129770992367,31.450381679389313
6.23,0.146728515625,0.897705078125,-0.09326171875,-19.427480916030536,14.83969465648855,24.625954198473284
6.24,0.12646484375,0.88818359375,-0.09033203125,-9.969465648854962,16.404580152671755,14.381679389312977
6.25,0.11279296875,0.89404296875,-0.091552734375,-5.694656488549619,19.68702290076336,2.5801526717557253
6.26,0.13134765625,0.96484375,-0.058349609375,-4.129770992366412,20.389312977099237,-5.442748091603053
6.27,0.117919921875,1.02197265625,0.011962890625,-1.6488549618320612,13.961832061068701,-8.389312977099237
6.28,0.114013671875,1.050048828125,0.03759765625,-1.1526717557251909,3.5801526717557253,-7.648854961832061
6.29,0.112548828125,1.065673828125,0.07861328125,-3.1297709923664123,-8.587786259541986,-1.2061068702290076
6.3,0.138427734375,1.05517578125,0.067138671875,-5.305343511450381,-22.282442748091604,3.8091603053435112
6.31,0.136962890625,1.0322265625,0.0400390625,-10.717557251908397,-27.50381679389313,9.51908396946565
6.32,0.1474609375,0.978271484375,-0.04443359375,-15.442748091603054,-30.69465648854962,12.335877862595419
6.33,0.135986328125,0.938232421875,-0.06640625,-16.19083969465649,-26.0,12.061068702290076
6.34,0.150634765625,0.923095703125,-0.133056640625,-16.96946564885496,-15.351145038167939,8.198473282442748
6.35,0.158203125,0.91064453125,-0.054931640625,-12.587786259541986,-6.351145038167939,3.4656488549618323
6.36,0.1953125,0.90966796875,-0.027587890625,-3.312977099236641,-3.1068702290076335,-2.633587786259542
6.37,0.202392578125,0.890625,-0.024169921875,4.366412213740458,-0.4580152671755725,-6.458015267175573
6.38,0.196533203125,0.943603515625,0.03076171875,9.84732824427481,-0.9007633587786259,-5.99236641221374
6.39,0.225830078125,1.002197265625,0.033935546875,16.458015267175572,2.122137404580153,-4.343511450381679
6.4,0.244873046875,1.023681640625,0.033203125,14.045801526717558,6.458015267175573,-3.122137404580153
6.41,0.25341796875,1.057861328125,0.051513671875,6.1679389312977095,10.65648854961832,-1.183206106870229
6.42,0.236572265625,1.043212890625,0.04736328125,-2.9389312977099236,12.213740458015268,0.6030534351145038
6.43,0.2099609375,1.0380859375,0.0263671875,-11.022900763358779,13.900763358778626,3.2519083969465647
6.44,0.2138671875,1.006591796875,0.031494140625,-13.045801526717558,13.290076335877863,4.404580152671755
6.45,0.1875,0.995361328125,0.028076171875,-9.786259541984732,11.870229007633588,3.4732824427480917
6.46,0.18505859375,0.9892578125,0.009521484375,-6.519083969465649,11.01526717557252,-0.10687022900763359
6.47,0.177978515625,0.978515625,0.01904296875,-3.763358778625954,12.13740458015267,-3.7404580152671754
6.48,0.205322265625,0.965576171875,0.00341796875,-4.206106870229007,11.748091603053435,-7.809160305343512
6.49,0.200439453125,0.988525390625,0.004150390625,-7.297709923664122,14.458015267175572,-3.6793893129770994
6.5,0.218017578125,0.976318359375,0.0146484375,-7.748091603053435,15.908396946564885,-2.1755725190839694
6.51,0.3212890625,0.919921875,0.062255859375,-0.4732824427480916,29.549618320610687,-11.01526717557252
6.52,0.220458984375,0.959716796875,0.015625,-1.16793893129771,31.732824427480917,-11.694656488549619
6.53,0.177490234375,0.961669921875,0.031005859375,-6.809160305343512,25.916030534351144,-4.320610687022901
6.54,0.164794921875,0.979248046875,0.03564453125,-9.65648854961832,17.763358778625953,-1.0458015267175573
6.55,0.160888671875,0.9580078125,0.033935546875,-8.50381679389313,16.03053435114504,-5.732824427480916
6.56,0.16162109375,0.872802734375,-0.01123046875,-9.679389312977099,21.00763358778626,-20.31297709923664
6.57,0.12939453125,0.842041015625,0.006591796875,-8.587786259541986,39.29007633587786,-32.6793893129771
6.58,0.11181640625,0.927490234375,-0.010986328125,-11.923664122137405,49.62595419847328,-31.6793893129771
6.59,0.21728515625,1.01513671875,0.059814453125,-22.99236641221374,48.88549618320611,-26.297709923664122
6.6,0.2001953125,1.090576171875,0.0107421875,-30.19083969465649,50.10687022900763,-15.15267175572519
6.61,0.16943359375,1.07861328125,0.02783203125,-38.12977099236641,54.69465648854962,-5.587786259541985
6.62,0.202392578125,1.05224609375,0.01806640625,-44.61832061068702,60.06106870229008,-9.67175572519084
6.63,0.14599609375,1.0517578125,0.044677734375,-48.81679389312977,65.58015267175573,-11.969465648854962
6.64,0.081298828125,1.172119140625,0.101806640625,-50.916030534351144,57.23664122137404,4.687022900763359
6.65,0.323974609375,0.832275390625,-0.052490234375,-55.534351145038165,44.48854961832061,-4.0534351145038165
6.66,0.1513671875,0.91015625,-0.001708984375,-59.17557251908397,45.30534351145038,-5.938931297709924
6.67,0.147705078125,0.893310546875,0.018310546875,-52.42748091603053,41.045801526717554,-7.633587786259542
6.68,0.147705078125,0.908935546875,0.059326171875,-37.13740458015267,41.05343511450382,-10.694656488549619
6.69,0.102783203125,0.942138671875,0.052734375,-22.916030534351144,36.3206106870229,-11.80916030534351
6.7,0.109130859375,0.965576171875,0.053955078125,-5.190839694656488,34.01526717557252,-12.351145038167939
6.71,0.10986328125,0.989990234375,0.03515625,6.587786259541985,35.33587786259542,-12.007633587786259
6.72,0.18408203125,0.944580078125,0.05126953125,8.564885496183207,32.534351145038165,-18.045801526717558
6.73,0.181640625,0.9482421875,0.077392578125,6.557251908396947,30.99236641221374,-14.465648854961833
6.74,0.198974609375,0.98974609375,0.088623046875,10.541984732824428,31.984732824427482,-5.9465648854961835
6.75,0.1787109375,1.02197265625,0.106689453125,14.244274809160306,28.99236641221374,2.732824427480916
6.76,0.11181640625,1.047119140625,0.0947265625,15.755725190839694,23.213740458015266,8.916030534351146
6.77,0.107421875,1.054931640625,0.073486328125,16.396946564885496,21.938931297709924,9.916030534351146
6.78,0.07763671875,1.03662109375,0.0390625,18.290076335877863,24.015267175572518,11.229007633587786
6.79,0.05322265625,1.00146484375,0.044189453125,22.893129770992367,24.053435114503817,7.587786259541985
6.8,0.08203125,1.0185546875,0.034912109375,25.587786259541986,26.33587786259542,1.633587786259542
6.81,0.075927734375,1.046142578125,0.02587890625,31.458015267175572,28.83969465648855,-1.5954198473282444
6.82,0.11083984375,1.038818359375,0.02490234375,32.778625954198475,29.87786259541985,-5.488549618320611
6.83,0.107666015625,1.05712890625,0.019287109375,33.030534351145036,26.763358778625953,-4.99236641221374
6.84,0.0986328125,1.0537109375,-0.050048828125,22.66412213740458,23.015267175572518,-3.9083969465648853
6.85,0.12646484375,1.021728515625,-0.027587890625,16.129770992366414,24.14503816793893,-5.702290076335878
6.86,0.126953125,0.969482421875,-0.0185546875,20.00763358778626,29.557251908396946,-5.870229007633588
6.87,0.143310546875,0.963623046875,0.005126953125,27.85496183206107,33.16030534351145,-11.50381679389313
6.88,0.13671875,0.968505859375,0.02685546875,35.51908396946565,33.82442748091603,-16.954198473282442
6.89,0.127197265625,1.001708984375,0.009521484375,36.6793893129771,35.58015267175573,-21.81679389312977
6.9,0.10791015625,1.0205078125,0.00634765625,30.50381679389313,35.900763358778626,-24.290076335877863
6.91,0.104248046875,1.0498046875,0.00927734375,20.595419847328245,35.06870229007634,-22.938931297709924
6.92,0.118408203125,1.051513671875,-0.002685546875,11.977099236641221,36.86259541984733,-21.114503816793892
6.93,0.11669921875,1.050537109375,0.003173828125,6.740458015267175,38.86259541984733,-18.6793893129771
6.94,0.0947265625,1.04638671875,-0.00537109375,5.549618320610687,39.57251908396947,-16.458015267175572
6.95,0.110107421875,1.02978515625,0.01318359375,5.916030534351145,34.37404580152672,-13.511450381679388
6.96,0.108154296875,1.005126953125,0.0244140625,10.65648854961832,25.82442748091603,-7.916030534351145
6.97,0.10302734375,1.001953125,-0.0322265625,13.267175572519085,26.015267175572518,-1.5114503816793894
6.98,0.098388671875,0.985595703125,-0.0634765625,11.854961832061068,32.16030534351145,2.0381679389312977
6.99,0.065185546875,0.992919921875,-0.00537109375,11.633587786259541,31.80916030534351,1.6870229007633588
7.0,0.0595703125,0.990966796875,-0.01513671875,9.83206106870229,31.748091603053435,-1.8625954198473282
7.01,0.032958984375,0.995361328125,-0.014892578125,8.145038167938932,29.81679389312977,-5.625954198473282
7.02,0.04345703125,1.011474609375,-0.020751953125,7.061068702290076,27.106870229007633,-6.374045801526718
7.03,0.05419921875,1.005615234375,-0.002685546875,7.198473282442748,23.81679389312977,-4.816793893129771
7.04,0.07470703125,1.0029296875,-0.010498046875,8.183206106870228,21.15267175572519,-3.549618320610687
7.05,0.067626953125,1.0302734375,0.019287109375,8.335877862595419,14.770992366412214,2.519083969465649
7.06,0.077392578125,1.050048828125,0.0185546875,4.366412213740458,9.366412213740459,8.099236641221374
7.07,0.080322265625,1.048583984375,0.00830078125,-2.5343511450381677,2.1603053435114505,16.404580152671755
7.08,0.08203125,1.036865234375,0.014892578125,-7.358778625954199,-2.816793893129771,18.50381679389313
7.09,0.0849609375,0.995361328125,0.006103515625,-9.022900763358779,-5.488549618320611,15.83206106870229
7.1,0.08837890625,0.958251953125,-0.009765625,-10.0,-6.022900763358779,11.244274809160306
7.11,0.0810546875,0.929931640625,-0.050537109375,-8.259541984732824,-2.7022900763358777,8.641221374045802
7.12,0.098388671875,0.921630859375,-0.050048828125,-3.1755725190839694,3.2442748091603053,4.770992366412214
7.13,0.0810546875,0.954345703125,-0.00732421875,4.572519083969466,4.648854961832061,2.1526717557251906
7.14,0.078369140625,0.953369140625,-0.005859375,10.083969465648854,5.076335877862595,0.2748091603053435
7.15,0.098876953125,0.96142578125,-0.009033203125,10.442748091603054,6.33587786259542,-1.0534351145038168
7.16,0.0947265625,0.96435546875,-0.012451171875,8.870229007633588,9.381679389312977,-0.9007633587786259
7.17,0.103271484375,0.93994140625,-0.033203125,5.030534351145038,13.854961832061068,-2.3435114503816794
7.18,0.116455078125,0.96630859375,-0.033447265625,4.282442748091603,24.587786259541986,-5.00763358778626
7.19,0.116455078125,0.98291015625,0.013916015625,7.557251908396947,27.938931297709924,-5.801526717557252
7.2,0.11083984375,0.953125,0.002197265625,9.351145038167939,29.251908396946565,-5.083969465648855
7.21,0.109619140625,0.960693359375,0.010986328125,8.557251908396946,25.99236641221374,-5.450381679389313
7.22,0.07958984375,0.96142578125,0.0107421875,7.786259541984733,23.732824427480917,-6.984732824427481
7.23,0.090087890625,0.962646484375,-0.024169921875,1.3587786259541985,22.244274809160306,-8.351145038167939
7.24,0.09716796875,0.9462890625,-0.0322265625,-1.3587786259541985,24.900763358778626,-11.725190839694656
7.25,0.086669921875,0.95849609375,-0.01318359375,0.48091603053435117,23.49618320610687,-9.244274809160306
7.26,0.099609375,0.964599609375,-0.012939453125,3.6259541984732824,24.671755725190838,-7.8320610687022905
7.27,0.10205078125,0.97412109375,-0.015625,4.847328244274809,25.9618320610687,-7.114503816793893
7.28,0.103271484375,0.975341796875,-0.003173828125,4.931297709923665,25.763358778625953,-8.19083969465649
7.29,0.107421875,0.99560546875,-0.032958984375,2.2213740458015265,27.81679389312977,-9.732824427480915
7.3,0.1005859375,0.9970703125,-0.09423828125,-1.8931297709923665,43.038167938931295,-12.396946564885496
7.31,0.08056640625,1.000244140625,0.002685546875,1.816793893129771,46.35114503816794,-15.099236641221374
7.32,0.0625,1.005615234375,-0.008056640625,4.068702290076335,44.786259541984734,-15.129770992366412
7.33,0.054931640625,0.9873046875,-0.01171875,4.740458015267175,37.908396946564885,-15.320610687022901
7.34,0.065673828125,0.97802734375,-0.0205078125,5.061068702290076,37.091603053435115,-16.450381679389313
7.35,0.088623046875,0.96435546875,-0.019775390625,5.99236641221374,33.534351145038165,-18.30534351145038
7.36,0.075439453125,0.9814453125,-0.0185546875,7.412213740458015,29.641221374045802,-17.15267175572519
7.37,0.0771484375,1.00537109375,-0.01708984375,8.038167938931299,24.16793893129771,-13.229007633587786
7.38,0.095703125,1.03125,-0.001220703125,9.007633587786259,19.297709923664122,-9.488549618320612
7.39,0.103271484375,1.043212890625,-0.01904296875,7.465648854961832,16.740458015267176,-7.709923664122138
7.4,0.1123046875,1.03466796875,-0.135986328125,0.5419847328244275,29.015267175572518,-7.427480916030534
7.41,0.131103515625,1.031005859375,-0.133056640625,-2.7938931297709924,43.00763358778626,-10.259541984732824
7.42,0.076904296875,1.030517578125,-0.0615234375,-0.06870229007633588,47.98473282442748,-11.938931297709924
7.43,0.058837890625,1.0263671875,-0.041748046875,3.366412213740458,45.847328244274806,-12.022900763358779
7.44,0.02685546875,1.019775390625,-0.0341796875,0.6335877862595419,41.33587786259542,-10.32824427480916
7.45,0.037109375,1.0146484375,-0.037353515625,-5.717557251908397,33.66412213740458,-9.282442748091603
7.46,0.0341796875,1.009033203125,-0.017333984375,-8.770992366412214,26.557251908396946,-8.183206106870228
7.47,0.046142578125,1.009033203125,-0.01171875,-9.961832061068701,18.6793893129771,-5.67175572519084
7.48,0.041015625,1.012451171875,-0.020751953125,-10.603053435114504,13.664122137404581,-2.717557251908397
7.49,0.033203125,0.984619140625,-0.010009765625,-11.442748091603054,5.1603053435114505,-1.5190839694656488
7.5,0.051025390625,1.001708984375,0.006591796875,-14.099236641221374,-2.2595419847328246,-1.5419847328244274
7.51,0.0615234375,1.013427734375,-0.0029296875,-19.099236641221374,-7.114503816793893,0.8625954198473282
7.52,0.048095703125,1.015869140625,-0.010986328125,-21.549618320610687,-11.129770992366412,4.938931297709924
7.53,0.039306640625,1.0283203125,-0.012451171875,-24.34351145038168,-16.015267175572518,7.580152671755725
7.54,0.022705078125,1.027587890625,-0.01220703125,-23.82442748091603,-19.916030534351144,8.977099236641221
7.55,0.026123046875,1.0107421875,-0.00390625,-24.53435114503817,-24.732824427480917,9.893129770992367
7.56,0.009033203125,1.002685546875,0.012451171875,-25.610687022900763,-31.83969465648855,10.709923664122137
7.57,0.0380859375,0.99560546875,0.015625,-26.885496183206108,-38.717557251908396,10.526717557251908
7.58,0.057373046875,0.988037109375,0.029052734375,-26.587786259541986,-43.36641221374046,11.221374045801527
7.59,0.091064453125,0.984130859375,-0.02490234375,-24.68702290076336,-42.10687022900763,11.48091603053435
7.6,0.1025390625,0.972900390625,-0.012939453125,-21.358778625954198,-40.725190839694655,10.541984732824428
7.61,0.077880859375,1.007080078125,-0.015625,-14.0,-37.68702290076336,11.625954198473282
7.62,0.07080078125,1.0087890625,0.013427734375,-10.511450381679388,-36.70992366412214,11.625954198473282
7.63,0.080322265625,1.008544921875,0.021728515625,-9.961832061068701,-35.54961832061068,9.610687022900763
7.64,0.08837890625,1.015380859375,0.027099609375,-17.267175572519083,-37.48854961832061,10.50381679389313
7.65,0.079345703125,1.007568359375,0.034423828125,-19.763358778625953,-40.36641221374046,13.129770992366412
7.66,0.0771484375,1.018310546875,0.03759765625,-24.81679389312977,-45.13740458015267,16.801526717557252
7.67,0.0859375,1.01025390625,0.044921875,-25.137404580152673,-49.19847328244275,18.763358778625953
7.68,0.07177734375,0.986572265625,0.04541015625,-23.900763358778626,-56.87022900763359,21.129770992366414
7.69,0.06396484375,1.0146484375,-0.050048828125,-22.259541984732824,-58.51145038167939,27.137404580152673
7.7,0.068603515625,0.9912109375,-0.035888671875,-18.091603053435115,-54.61068702290076,31.763358778625953
7.71,0.053466796875,0.96826171875,0.028564453125,-11.396946564885496,-54.786259541984734,32.64885496183206
7.72,0.10791015625,0.9560546875,-0.025146484375,-7.435114503816794,-51.88549618320611,29.82442748091603
7.73,0.1630859375,0.959716796875,-0.007080078125,-3.5801526717557253,-45.66412213740458,24.83969465648855
7.74,0.177978515625,0.931396484375,-0.00341796875,-1.7557251908396947,-38.20610687022901,18.893129770992367
7.75,0.164794921875,0.90966796875,-0.009521484375,-3.9923664122137406,-30.46564885496183,11.34351145038168
7.76,0.145751953125,0.890869140625,0.00830078125,-8.84732824427481,-22.221374045801525,4.885496183206107
7.77,0.166259765625,0.901611328125,0.024658203125,-10.65648854961832,-19.099236641221374,0.9618320610687023
7.78,0.158203125,0.905029296875,0.05126953125,-6.916030534351145,-19.18320610687023,-0.3053435114503817
7.79,0.17919921875,0.909912109375,0.05859375,-3.8244274809160306,-18.84732824427481,-1.4732824427480915
7.8,0.19287109375,0.95361328125,0.001708984375,1.9618320610687023,-17.50381679389313,-1.3587786259541985
7.81,0.1826171875,0.9765625,0.007568359375,7.877862595419847,-13.15267175572519,-0.44274809160305345
7.82,0.16943359375,0.99169921875,0.010009765625,10.15267175572519,-12.610687022900763,-1.16793893129771
7.83,0.158447265625,1.018310546875,0.040283203125,11.32824427480916,-14.885496183206106,-1.8015267175572518
7.84,0.146484375,1.02685546875,0.0283203125,9.259541984732824,-13.938931297709924,-3.2213740458015265
7.85,0.149658203125,1.03515625,0.039306640625,5.465648854961832,-12.610687022900763,-4.778625954198473
7.86,0.126220703125,1.0234375,0.003662109375,1.9083969465648856,-8.885496183206106,-5.977099236641221
7.87,0.130859375,1.010498046875,0.023193359375,-4.900763358778626,-7.00763358778626,-6.809160305343512
7.88,0.114501953125,1.00927734375,0.0166015625,-7.511450381679389,-8.129770992366412,-7.732824427480916
7.89,0.111083984375,0.98876953125,0.019775390625,-7.908396946564886,-9.954198473282442,-3.7022900763358777
7.9,0.130126953125,0.98974609375,0.016845703125,-5.633587786259542,-10.236641221374045,-3.33587786259542
7.91,0.130859375,0.989990234375,0.035888671875,-1.5572519083969465,-10.267175572519085,-4.900763358778626
7.92,0.128662109375,0.99169921875,0.04931640625,2.3435114503816794,-9.358778625954198,-5.984732824427481
7.93,0.122802734375,1.0087890625,0.049072265625,4.557251908396947,-8.908396946564885,-10.961832061068701
7.94,0.107421875,1.0224609375,0.072509765625,4.435114503816794,-8.786259541984732,-12.816793893129772
7.95,0.095458984375,1.046630859375,0.079833984375,1.3740458015267176,-10.82442748091603,-13.32824427480916
7.96,0.09326171875,1.025390625,0.07275390625,-2.801526717557252,-13.305343511450381,-12.770992366412214
7.97,0.09228515625,1.0302734375,0.066162109375,-6.969465648854962,-15.969465648854962,-10.793893129770993
7.98,0.09423828125,1.0068359375,0.081787109375,-8.267175572519085,-18.778625954198475,-8.549618320610687
7.99,0.117431640625,1.000244140625,0.07421875,-8.610687022900763,-19.19083969465649,-6.145038167938932
8.0,0.1298828125,0.989990234375,0.070556640625,-8.778625954198473,-19.16793893129771,-4.320610687022901
8.01,0.16796875,0.982421875,0.078857421875,-8.34351145038168,-16.61832061068702,-3.450381679389313
8.02,0.1728515625,0.99755859375,0.092041015625,-9.351145038167939,-10.938931297709924,-1.0076335877862594
8.03,0.15771484375,1.00390625,0.085205078125,-11.610687022900763,-8.198473282442748,0.6259541984732825
8.04,0.152587890625,1.011474609375,0.090087890625,-13.351145038167939,-4.1679389312977095,0.45038167938931295
8.05,0.138427734375,1.0107421875,0.099853515625,-14.694656488549619,0.26717557251908397,-3.5267175572519083
8.06,0.119140625,1.025146484375,0.09423828125,-18.427480916030536,5.5038167938931295,-6.0458015267175576
8.07,0.096923828125,1.015625,0.072998046875,-24.549618320610687,7.9465648854961835,-5.977099236641221
8.08,0.091064453125,1.006591796875,0.04931640625,-27.916030534351144,13.259541984732824,-10.282442748091603
8.09,0.093505859375,0.986083984375,0.06640625,-27.0,18.31297709923664,-14.145038167938932
8.1,0.100341796875,1.003662109375,0.060546875,-24.9618320610687,22.389312977099237,-17.442748091603054
8.11,0.0791015625,1.009033203125,0.076904296875,-24.068702290076335,22.091603053435115,-18.076335877862597
8.12,0.064208984375,1.031005859375,0.0771484375,-24.328244274809162,17.610687022900763,-16.389312977099237
8.13,0.068603515625,1.0048828125,0.06884765625,-25.0381679389313,14.870229007633588,-15.244274809160306
8.14,0.0888671875,0.96533203125,0.0322265625,-24.61832061068702,16.15267175572519,-16.396946564885496
8.15,0.107177734375,0.95263671875,0.002197265625,-23.778625954198475,17.99236641221374,-23.015267175572518
8.16,0.15234375,0.939453125,-0.000732421875,-22.671755725190838,33.06870229007634,-32.76335877862596
8.17,0.072509765625,1.0,0.050048828125,-20.114503816793892,40.32824427480916,-28.099236641221374
8.18,0.055908203125,1.018798828125,0.046875,-21.732824427480917,37.80916030534351,-17.16793893129771
8.19,0.080322265625,0.99609375,0.0576171875,-22.885496183206108,36.02290076335878,0.816793893129771
8.2,0.121337890625,0.96728515625,0.07421875,-22.801526717557252,37.3587786259542,11.442748091603054
8.21,0.145263671875,0.8974609375,0.053955078125,-25.106870229007633,37.2442748091603,14.335877862595419
8.22,0.156982421875,0.8623046875,0.015869140625,-29.99236641221374,45.63358778625954,12.16793893129771
8.23,0.181640625,0.89208984375,0.057373046875,-30.51145038167939,50.89312977099237,7.32824427480916
8.24,0.11962890625,0.95751953125,0.128662109375,-21.870229007633586,48.41984732824427,4.076335877862595
8.25,0.086181640625,0.998046875,0.111328125,-10.86259541984733,49.98473282442748,-0.09923664122137404
8.26,0.04052734375,1.004638671875,0.128662109375,2.7938931297709924,56.99236641221374,-10.694656488549619
8.27,0.007568359375,1.05810546875,0.12841796875,13.305343511450381,61.038167938931295,-18.061068702290076
8.28,0.04833984375,1.00390625,0.132568359375,16.885496183206108,65.1526717557252,-25.984732824427482
8.29,0.174072265625,0.88427734375,0.086669921875,10.633587786259541,73.1526717557252,-33.25954198473283
8.3,0.189453125,0.904052734375,0.068603515625,2.549618320610687,78.58015267175573,-33.81679389312977
8.31,0.147705078125,0.9765625,0.126953125,-1.3129770992366412,77.34351145038168,-20.65648854961832
8.32,0.17431640625,1.002197265625,0.134033203125,1.1068702290076335,75.74045801526718,-5.938931297709924
8.33,0.135986328125,1.031494140625,0.156982421875,3.1374045801526718,71.87786259541984,8.664122137404581
8.34,0.1142578125,1.01123046875,0.16748046875,-3.1603053435114505,65.27480916030534,12.923664122137405
8.35,0.140380859375,0.99609375,0.134033203125,-17.083969465648856,59.282442748091604,9.603053435114504
8.36,0.088623046875,0.9873046875,0.0947265625,-28.65648854961832,60.091603053435115,7.916030534351145
8.37,0.080322265625,0.987060546875,0.066162109375,-34.67175572519084,62.64885496183206,12.557251908396946
8.38,0.04248046875,1.004150390625,0.08349609375,-32.45038167938932,66.03053435114504,26.541984732824428
8.39,0.11572265625,0.97314453125,0.11962890625,-26.96946564885496,55.6412213740458,33.961832061068705
8.4,0.03857421875,0.964599609375,0.10498046875,-15.320610687022901,54.57251908396947,42.51908396946565
8.41,0.07080078125,0.960693359375,0.097900390625,-5.488549618320611,60.02290076335878,39.37404580152672
8.42,0.0498046875,0.982666015625,0.08642578125,4.778625954198473,66.70992366412214,34.29770992366412
8.43,0.06591796875,0.98974609375,0.095703125,6.137404580152672,70.5114503816794,31.053435114503817
8.44,0.0498046875,1.014404296875,0.10107421875,3.3969465648854964,73.25190839694656,27.389312977099237
8.45,0.00439453125,1.05712890625,0.12548828125,-0.25190839694656486,67.91603053435115,36.725190839694655
8.46,0.032470703125,1.062744140625,0.13427734375,-4.625954198473282,56.0763358778626,43.29770992366412
8.47,0.065673828125,1.0361328125,0.14501953125,-10.50381679389313,45.89312977099237,48.57251908396947
8.48,0.083740234375,1.009765625,0.142822265625,-16.938931297709924,37.30534351145038,48.3587786259542
8.49,0.089599609375,0.981689453125,0.110595703125,-27.862595419847327,31.587786259541986,43.51908396946565
8.5,0.02587890625,1.010498046875,0.096435546875,-37.49618320610687,35.68702290076336,37.732824427480914
8.51,-0.040771484375,1.058837890625,0.1298828125,-40.458015267175576,25.549618320610687,30.412213740458014
8.52,-0.085693359375,1.092529296875,0.18115234375,-26.083969465648856,13.251908396946565,25.72519083969466
8.53,-0.0576171875,1.04638671875,0.12158203125,-9.030534351145038,9.458015267175572,15.938931297709924
8.54,0.05908203125,0.973388671875,0.055419921875,7.702290076335878,26.290076335877863,-2.9160305343511452
8.55,0.178466796875,0.954833984375,0.086181640625,11.267175572519085,36.17557251908397,-22.870229007633586
8.56,0.185546875,0.966064453125,0.14990234375,16.50381679389313,43.2442748091603,-25.12213740458015
8.57,0.16650390625,0.986083984375,0.142822265625,14.618320610687023,43.87022900763359,-17.297709923664122
8.58,0.1376953125,1.010498046875,0.207763671875,10.32824427480916,34.36641221374046,-1.5038167938931297
8.59,0.0947265625,1.00390625,0.217529296875,2.7709923664122136,21.045801526717558,12.229007633587786
8.6,0.107666015625,0.970703125,0.165283203125,-7.488549618320611,18.412213740458014,14.007633587786259
8.61,0.0947265625,0.957763671875,0.1083984375,-16.46564885496183,29.770992366412212,9.335877862595419
8.62,0.10205078125,0.958984375,0.11328125,-22.793893129770993,46.74045801526717,3.8473282442748094
8.63,0.17333984375,0.9609375,0.11474609375,-23.603053435114504,60.900763358778626,-9.702290076335878
8.64,0.20068359375,1.006591796875,0.165283203125,-18.916030534351144,72.58015267175573,-16.328244274809162
8.65,0.16455078125,1.04248046875,0.219482421875,-12.946564885496183,69.22900763358778,-12.145038167938932
8.66,0.126953125,1.03759765625,0.23681640625,-8.51908396946565,65.41984732824427,1.0763358778625953
8.67,0.114013671875,1.1044921875,0.352294921875,-17.9618320610687,41.58015267175573,22.87786259541985
8.68,0.11865234375,1.0576171875,0.271240234375,-49.93129770992366,21.786259541984734,37.11450381679389
8.69,0.1513671875,0.947021484375,0.146728515625,-73.29007633587786,26.83969465648855,32.603053435114504
8.7,0.20947265625,0.94287109375,0.18115234375,-74.05343511450381,37.80916030534351,20.6793893129771
8.71,0.238525390625,0.964599609375,0.15625,-61.603053435114504,47.2442748091603,14.610687022900763
8.72,0.2275390625,0.9853515625,0.197998046875,-48.229007633587784,57.66412213740458,11.877862595419847
8.73,0.18798828125,0.981689453125,0.209228515625,-36.465648854961835,59.35114503816794,9.083969465648854
8.74,0.16162109375,0.959228515625,0.201171875,-29.229007633587788,62.458015267175576,4.183206106870229
8.75,0.150390625,0.93896484375,0.23388671875,-21.47328244274809,66.95419847328245,-3.4427480916030535
8.76,0.133544921875,0.94384765625,0.218017578125,-17.16030534351145,66.10687022900764,-6.297709923664122
8.77,0.111328125,0.93896484375,0.2138671875,-16.396946564885496,59.595419847328245,-4.656488549618321
8.78,0.1591796875,0.953125,0.209228515625,-8.312977099236642,56.23664122137404,-2.618320610687023
8.79,0.18212890625,0.982177734375,0.23388671875,10.007633587786259,58.48091603053435,-0.7480916030534351
8.8,0.152099609375,0.99560546875,0.23486328125,29.480916030534353,59.038167938931295,0.2900763358778626
8.81,0.1015625,1.01953125,0.23388671875,40.00763358778626,57.69465648854962,1.8473282442748091
8.82,0.073486328125,1.0390625,0.240478515625,38.87786259541985,52.74045801526717,3.213740458015267
8.83,0.067626953125,1.0322265625,0.220703125,29.14503816793893,46.969465648854964,2.099236641221374
8.84,0.05712890625,1.007568359375,0.206298828125,14.068702290076336,45.099236641221374,-0.6717557251908397
8.85,0.078369140625,0.968994140625,0.20361328125,0.48854961832061067,43.404580152671755,-6.32824427480916
8.86,0.12451171875,0.992431640625,0.190673828125,-4.900763358778626,47.25190839694657,-10.061068702290076
8.87,0.1142578125,1.0478515625,0.23828125,-0.816793893129771,48.961832061068705,-7.824427480916031
8.88,0.099853515625,1.03173828125,0.229248046875,0.8244274809160306,48.32824427480916,-8.580152671755725
8.89,0.10546875,1.007080078125,0.197021484375,-6.862595419847328,49.19083969465649,-9.80916030534351
8.9,0.079345703125,1.0107421875,0.219970703125,-16.557251908396946,45.725190839694655,-11.206106870229007
8.91,0.076171875,1.014404296875,0.23291015625,-23.923664122137403,39.274809160305345,-5.572519083969466
8.92,0.075927734375,0.97802734375,0.234619140625,-24.83969465648855,33.9236641221374,1.7251908396946565
8.93,0.12548828125,0.9599609375,0.213134765625,-19.80916030534351,36.37404580152672,4.557251908396947
8.94,0.1318359375,0.939697265625,0.19873046875,-10.67175572519084,45.6412213740458,5.793893129770993
8.95,0.158447265625,0.9609375,0.23046875,-2.786259541984733,56.396946564885496,3.1526717557251906
8.96,0.14013671875,0.977294921875,0.2744140625,2.786259541984733,60.69465648854962,3.931297709923664
8.97,0.111328125,0.964599609375,0.241943359375,-6.00763358778626,66.8854961832061,1.4351145038167938
8.98,0.10498046875,0.9541015625,0.2587890625,-25.81679389312977,65.20610687022901,-0.2366412213740458
8.99,0.071533203125,0.9658203125,0.277587890625,-40.969465648854964,62.48854961832061,3.312977099236641
9.0,0.0849609375,0.938720703125,0.26416015625,-43.0763358778626,56.916030534351144,7.816793893129771
9.01,0.09716796875,0.897705078125,0.239013671875,-35.69465648854962,52.06870229007634,16.114503816793892
9.02,0.09814453125,0.85595703125,0.22216796875,-27.137404580152673,48.41984732824427,19.114503816793892
9.03,0.085205078125,0.8271484375,0.203857421875,-14.274809160305344,47.48854961832061,19.48854961832061
9.04,0.072998046875,0.819091796875,0.17724609375,-4.396946564885496,48.725190839694655,14.603053435114504
9.05,0.040771484375,0.8193359375,0.166015625,4.083969465648855,52.274809160305345,10.954198473282442
9.06,0.051025390625,0.818603515625,0.12939453125,13.969465648854962,58.94656488549618,2.9770992366412212
9.07,0.0498046875,0.810791015625,0.121826171875,26.900763358778626,68.38931297709924,-4.763358778625954
9.08,0.048583984375,0.813232421875,0.121337890625,38.50381679389313,71.52671755725191,-9.030534351145038
9.09,0.046875,0.81640625,0.133544921875,49.18320610687023,69.89312977099236,-10.587786259541986
9.1,0.0751953125,0.8408203125,0.12158203125,62.14503816793893,66.55725190839695,-9.076335877862595
9.11,0.089599609375,0.880126953125,0.161865234375,68.46564885496183,61.038167938931295,-6.396946564885496
9.12,0.1123046875,0.909912109375,0.13427734375,69.37404580152672,62.770992366412216,-6.786259541984733
9.13,0.096923828125,0.922119140625,0.157470703125,66.23664122137404,64.83969465648855,-6.137404580152672
9.14,0.10546875,0.965576171875,0.162109375,59.038167938931295,64.37404580152672,-3.732824427480916
9.15,0.073486328125,0.9833984375,0.185302734375,56.51145038167939,62.3587786259542,1.1145038167938932
9.16,0.08447265625,0.9716796875,0.14599609375,51.29007633587786,58.3206106870229,5.152671755725191
9.17,0.080322265625,0.96484375,0.15185546875,49.11450381679389,55.099236641221374,8.15267175572519
9.18,0.070068359375,0.9541015625,0.12353515625,47.99236641221374,49.282442748091604,12.687022900763358
9.19,0.067626953125,0.940185546875,0.08544921875,48.908396946564885,43.79389312977099,16.984732824427482
9.2,0.063232421875,0.97607421875,0.072265625,52.152671755725194,42.961832061068705,18.83969465648855
9.21,0.10888671875,0.9716796875,0.057373046875,55.030534351145036,47.33587786259542,19.47328244274809
9.22,0.082763671875,1.02587890625,0.071044921875,52.458015267175576,47.98473282442748,15.778625954198473
9.23,0.09521484375,1.0498046875,0.053466796875,53.0,51.61832061068702,10.221374045801527
9.24,0.083740234375,1.10595703125,0.080322265625,55.083969465648856,56.091603053435115,5.129770992366412
9.25,0.080322265625,1.1162109375,0.0791015625,51.267175572519086,56.69465648854962,2.519083969465649
9.26,0.035888671875,1.12548828125,0.07958984375,41.57251908396947,58.56488549618321,2.0763358778625953
9.27,0.016357421875,1.103271484375,0.041015625,29.740458015267176,54.68702290076336,0.2900763358778626
9.28,0.020751953125,1.0712890625,0.000732421875,18.69465648854962,53.23664122137404,-4.2748091603053435
9.29,0.051513671875,1.05419921875,-0.033203125,9.49618320610687,56.25954198473283,-11.572519083969466
9.3,-0.01513671875,1.061279296875,-0.002197265625,5.419847328244275,52.35114503816794,-13.580152671755725
9.31,-0.00927734375,1.048095703125,-0.02392578125,7.580152671755725,47.152671755725194,-5.877862595419847
9.32,0.010986328125,1.029296875,-0.027587890625,9.908396946564885,43.595419847328245,1.3358778625954197
9.33,0.0185546875,0.997802734375,-0.054931640625,10.870229007633588,42.16793893129771,6.206106870229007
9.34,0.05712890625,0.980224609375,-0.0751953125,9.908396946564885,43.44274809160305,8.061068702290076
9.35,0.044677734375,0.98291015625,-0.0859375,8.580152671755725,46.31297709923664,7.366412213740458
9.36,0.00732421875,0.97607421875,-0.090576171875,8.366412213740459,48.61832061068702,3.2442748091603053
9.37,-0.02734375,0.994140625,-0.078857421875,9.320610687022901,48.74045801526717,-1.633587786259542
9.38,-0.056884765625,1.0234375,-0.0693359375,13.007633587786259,46.42748091603053,-5.809160305343512
9.39,-0.0693359375,1.01513671875,-0.06396484375,17.52671755725191,41.99236641221374,-10.50381679389313
9.4,-0.05517578125,1.0029296875,-0.090576171875,20.068702290076335,39.969465648854964,-15.465648854961833
9.41,-0.01123046875,0.97607421875,-0.09375,21.38167938931298,38.01526717557252,-19.81679389312977
9.42,0.054931640625,0.976806640625,-0.091064453125,22.519083969465647,40.10687022900763,-22.49618320610687
9.43,0.073486328125,0.987548828125,-0.07568359375,23.61832061068702,44.49618320610687,-23.87786259541985
9.44,0.07275390625,1.020263671875,-0.05224609375,22.076335877862597,47.16030534351145,-22.419847328244273
9.45,0.054931640625,1.047119140625,-0.017822265625,18.114503816793892,45.6793893129771,-19.053435114503817
9.46,0.051513671875,1.063720703125,-0.0087890625,12.213740458015268,42.51908396946565,-15.267175572519085
9.47,0.056396484375,1.042236328125,-0.027099609375,5.129770992366412,41.87786259541985,-13.80916030534351
9.48,0.063232421875,1.02294921875,-0.02197265625,-0.7709923664122137,44.52671755725191,-15.221374045801527
9.49,0.044921875,1.02001953125,-0.041259765625,-3.2519083969465647,46.213740458015266,-16.229007633587788
9.5,0.04931640625,1.015625,-0.04248046875,-4.32824427480916,47.045801526717554,-16.595419847328245
9.51,0.037109375,1.01025390625,-0.04833984375,-6.267175572519084,48.79389312977099,-17.709923664122137
9.52,0.0712890625,1.0185546875,-0.0390625,-9.992366412213741,50.83206106870229,-19.893129770992367
9.53,0.0537109375,1.025634765625,-0.03857421875,-15.335877862595419,54.38931297709924,-19.923664122137403
9.54,0.0693359375,1.031982421875,-0.03564453125,-21.908396946564885,53.0,-17.3206106870229
9.55,0.0751953125,1.041748046875,-0.00048828125,-24.14503816793893,50.13740458015267,-12.290076335877863
9.56,0.098388671875,1.050537109375,-0.014892578125,-22.6793893129771,51.94656488549618,-10.572519083969466
9.57,0.088623046875,1.0380859375,-0.0302734375,-26.106870229007633,57.603053435114504,-12.511450381679388
9.58,0.0703125,1.034423828125,-0.03173828125,-38.47328244274809,59.05343511450382,-15.564885496183207
9.59,0.058837890625,1.065185546875,0.003662109375,-49.74809160305343,56.29770992366412,-15.610687022900763
9.6,0.031982421875,1.04931640625,0.013671875,-55.80916030534351,45.33587786259542,-8.916030534351146
9.61,0.066162109375,1.007568359375,-0.02978515625,-58.152671755725194,40.656488549618324,-5.557251908396947
9.62,0.077880859375,0.98828125,-0.021484375,-54.44274809160305,40.465648854961835,-3.4580152671755724
9.63,0.0732421875,0.980224609375,-0.028564453125,-50.76335877862596,40.85496183206107,-2.1908396946564888
9.64,0.047607421875,0.973876953125,-0.0419921875,-43.64885496183206,42.61068702290076,-2.0610687022900764
9.65,0.048583984375,0.956298828125,-0.026611328125,-37.725190839694655,44.62595419847328,-3.0610687022900764
9.66,0.044921875,0.97265625,0.00146484375,-33.091603053435115,46.045801526717554,-3.1526717557251906
9.67,0.0439453125,0.984619140625,0.03564453125,-25.374045801526716,44.030534351145036,-1.366412213740458
9.68,0.033447265625,0.97705078125,0.03955078125,-19.53435114503817,42.48091603053435,0.8625954198473282
9.69,0.044189453125,0.969970703125,0.0693359375,-13.916030534351146,41.25954198473283,1.534351145038168
9.7,0.0224609375,0.97802734375,0.073486328125,-11.259541984732824,40.969465648854964,1.366412213740458
9.71,0.023681640625,0.993896484375,0.06787109375,-10.320610687022901,41.62595419847328,0.7099236641221374
9.72,0.020751953125,0.9931640625,0.096435546875,-9.946564885496183,39.42748091603053,0.8931297709923665
9.73,0.02294921875,0.986572265625,0.076416015625,-10.106870229007633,36.83206106870229,1.3435114503816794
9.74,0.0380859375,0.972412109375,0.083984375,-7.862595419847328,35.2442748091603,0.40458015267175573
9.75,0.04736328125,0.974853515625,0.10009765625,-4.587786259541985,37.33587786259542,0.9083969465648855
9.76,0.045654296875,0.956298828125,0.11474609375,-2.3282442748091605,35.25954198473283,2.66412213740458
9.77,0.05322265625,0.96142578125,0.1162109375,-3.4656488549618323,35.48091603053435,3.3435114503816794
9.78,0.05615234375,0.977294921875,0.148681640625,-5.358778625954199,34.11450381679389,5.458015267175573
9.79,0.03759765625,0.997314453125,0.174560546875,-7.3816793893129775,31.16030534351145,9.106870229007633
9.8,0.037109375,0.990478515625,0.17919921875,-12.877862595419847,24.213740458015266,11.885496183206106
9.81,0.031494140625,0.985107421875,0.17626953125,-17.702290076335878,18.282442748091604,14.374045801526718
9.82,0.038818359375,0.955322265625,0.143310546875,-24.091603053435115,16.419847328244273,14.870229007633588
9.83,0.078857421875,0.906982421875,0.09375,-24.96946564885496,23.412213740458014,9.091603053435115
9.84,0.067626953125,0.90576171875,0.098388671875,-20.229007633587788,29.541984732824428,5.709923664122138
9.85,0.0556640625,0.892822265625,0.099853515625,-12.50381679389313,30.610687022900763,6.145038167938932
9.86,0.054443359375,0.89892578125,0.112548828125,-6.320610687022901,28.66412213740458,7.473282442748092
9.87,0.064208984375,0.895263671875,0.123291015625,-3.3206106870229006,25.251908396946565,9.992366412213741
9.88,0.066162109375,0.897705078125,0.11474609375,-0.9007633587786259,21.610687022900763,12.290076335877863
9.89,0.06494140625,0.909912109375,0.10888671875,1.6564885496183206,17.66412213740458,14.473282442748092
9.9,0.071044921875,0.91455078125,0.130126953125,5.129770992366412,13.49618320610687,16.900763358778626
9.91,0.0810546875,0.924072265625,0.1318359375,10.786259541984732,9.946564885496183,19.732824427480917
9.92,0.100830078125,0.9541015625,0.15576171875,15.48091603053435,6.740458015267175,22.328244274809162
9.93,0.1005859375,0.964599609375,0.150390625,16.595419847328245,4.396946564885496,24.702290076335878
9.94,0.103271484375,0.978271484375,0.1865234375,15.83969465648855,3.1603053435114505,26.19083969465649
9.95,0.1083984375,0.9794921875,0.1591796875,13.335877862595419,5.267175572519084,25.061068702290076
9.96,0.1044921875,0.987548828125,0.173828125,12.572519083969466,7.343511450381679,22.977099236641223
9.97,0.087158203125,0.996337890625,0.18603515625,11.923664122137405,6.8396946564885495,22.374045801526716
9.98,0.06591796875,0.999267578125,0.186279296875,10.419847328244275,4.969465648854962,22.85496183206107
9.99,0.07958984375,0.992431640625,0.201171875,10.427480916030534,2.7480916030534353,23.984732824427482
10.0,0.087890625,0.9951171875,0.197998046875,11.335877862595419,3.2213740458015265,23.65648854961832
10.01,0.088623046875,1.008544921875,0.195556640625,12.48091603053435,5.419847328244275,23.12213740458015
10.02,0.096435546875,1.01708984375,0.193359375,11.15267175572519,8.274809160305344,21.137404580152673
10.03,0.091552734375,1.028076171875,0.193115234375,6.67175572519084,10.625954198473282,19.00763358778626
10.04,0.073974609375,1.040283203125,0.215576171875,2.5114503816793894,11.312977099236642,17.412213740458014
10.05,0.073974609375,1.026123046875,0.192626953125,-4.564885496183206,13.65648854961832,14.488549618320612
10.06,0.083740234375,1.0009765625,0.159423828125,-9.511450381679388,18.053435114503817,11.16030534351145
10.07,0.0869140625,0.994140625,0.1484375,-12.251908396946565,21.81679389312977,9.045801526717558
10.08,0.072509765625,0.9951171875,0.146484375,-13.061068702290076,23.69465648854962,7.557251908396947
10.09,0.063720703125,0.97021484375,0.13525390625,-15.50381679389313,24.85496183206107,4.870229007633588
10.1,0.046875,0.9580078125,0.12255859375,-17.709923664122137,24.358778625954198,2.6946564885496183
10.11,0.041015625,0.959716796875,0.0947265625,-15.954198473282442,24.641221374045802,1.1984732824427482
10.12,0.033203125,0.955322265625,0.098388671875,-10.83206106870229,24.450381679389313,0.366412213740458
10.13,0.04541015625,0.965576171875,0.109375,-5.282442748091603,23.793893129770993,0.29770992366412213
10.14,0.06201171875,0.968994140625,0.135009765625,-0.2595419847328244,22.80916030534351,0.7709923664122137
10.15,0.05908203125,0.984375,0.136962890625,1.1450381679389312,23.19083969465649,-0.20610687022900764
10.16,0.064697265625,0.9990234375,0.139404296875,-0.8320610687022901,24.106870229007633,-2.053435114503817
10.17,0.057373046875,0.985107421875,0.124267578125,-2.6564885496183206,24.87786259541985,-2.564885496183206
10.18,0.068359375,1.007080078125,0.12744140625,-2.6030534351145036,25.16793893129771,-2.450381679389313
10.19,0.06689453125,1.0166015625,0.13232421875,-1.5114503816793894,24.358778625954198,-1.8625954198473282
10.2,0.078857421875,1.026611328125,0.125732421875,-1.702290076335878,24.885496183206108,-2.618320610687023
10.21,0.073974609375,1.033447265625,0.1220703125,-2.3740458015267176,25.72519083969466,-4.0458015267175576
10.22,0.07666015625,1.0390625,0.1083984375,-4.1603053435114505,26.137404580152673,-4.488549618320611
10.23,0.08447265625,1.03076171875,0.1201171875,-5.7251908396946565,25.519083969465647,-4.374045801526718
10.24,0.0703125,1.025634765625,0.099853515625,-6.480916030534351,24.106870229007633,-3.2290076335877864
10.25,0.080322265625,1.019775390625,0.10205078125,-6.526717557251908,22.786259541984734,-2.564885496183206
10.26,0.062744140625,1.02685546875,0.10400390625,-7.893129770992366,18.908396946564885,-0.1450381679389313
10.27,0.07421875,1.013916015625,0.086669921875,-8.50381679389313,16.244274809160306,1.2061068702290076
10.28,0.0693359375,1.01025390625,0.068115234375,-8.068702290076336,14.236641221374045,1.8778625954198473
10.29,0.09033203125,0.9990234375,0.0634765625,-5.977099236641221,14.114503816793894,1.6259541984732824
10.3,0.087646484375,0.984619140625,0.059326171875,-3.8625954198473282,14.244274809160306,0.7633587786259542
10.31,0.085205078125,1.012451171875,0.038818359375,-2.900763358778626,13.358778625954198,-0.48854961832061067
10.32,0.0615234375,1.00634765625,0.03955078125,-0.9236641221374046,10.664122137404581,-0.46564885496183206
10.33,0.045166015625,1.013427734375,0.047607421875,0.9770992366412213,6.3893129770992365,-0.4198473282442748
10.34,0.044921875,1.0146484375,0.036376953125,1.633587786259542,3.1297709923664123,-1.2061068702290076
10.35,0.0673828125,1.00244140625,0.033447265625,2.7557251908396947,1.717557251908397,-3.435114503816794
10.36,0.06298828125,1.01904296875,0.05224609375,4.648854961832061,0.0,-4.190839694656488
10.37,0.075439453125,1.0126953125,0.057861328125,4.770992366412214,-2.4732824427480917,-3.5801526717557253
10.38,0.08642578125,1.00537109375,0.04931640625,4.709923664122138,-4.083969465648855,-3.183206106870229
10.39,0.09375,1.0107421875,0.0771484375,4.427480916030534,-5.198473282442748,-3.3969465648854964
10.4,0.08447265625,1.0,0.0634765625,4.106870229007634,-6.3816793893129775,-3.2519083969465647
10.41,0.0927734375,1.015869140625,0.072509765625,3.954198473282443,-8.526717557251908,-2.595419847328244
10.42,0.09716796875,1.015625,0.080810546875,3.366412213740458,-10.572519083969466,-1.5038167938931297
10.43,0.085205078125,1.020263671875,0.090087890625,1.9618320610687023,-12.450381679389313,-1.0305343511450382
10.44,0.072998046875,1.0078125,0.076904296875,0.5648854961832062,-14.885496183206106,-0.9923664122137404
10.45,0.06494140625,1.01513671875,0.07080078125,-1.549618320610687,-17.0,-1.5954198473282444
10.46,0.052734375,1.008056640625,0.07421875,-1.9618320610687023,-18.65648854961832,-3.145038167938931
10.47,0.05615234375,0.993896484375,0.074462890625,-1.5648854961832062,-19.801526717557252,-6.267175572519084
10.48,0.04296875,0.979736328125,0.05419921875,-2.3435114503816794,-19.938931297709924,-10.358778625954198
10.49,0.0439453125,0.9599609375,0.043701171875,-1.7099236641221374,-20.717557251908396,-13.16030534351145
10.5,0.0654296875,0.95166015625,0.040283203125,-1.900763358778626,-23.137404580152673,-13.610687022900763
10.51,0.077392578125,0.950439453125,0.037841796875,2.969465648854962,-23.48854961832061,-14.259541984732824
10.52,0.080322265625,0.961181640625,0.039306640625,5.732824427480916,-26.0381679389313,-14.83206106870229
10.53,0.068603515625,0.98046875,0.042724609375,9.396946564885496,-26.923664122137403,-15.053435114503817
10.54,0.07568359375,1.013916015625,0.0595703125,12.84732824427481,-28.206106870229007,-15.893129770992367
10.55,0.088623046875,1.018310546875,0.0751953125,13.396946564885496,-29.671755725190838,-16.267175572519083
10.56,0.12451171875,1.015869140625,0.0859375,12.893129770992367,-27.16793893129771,-17.358778625954198
10.57,0.114990234375,1.029541015625,0.078369140625,10.435114503816793,-27.244274809160306,-18.14503816793893
10.58,0.104736328125,1.0390625,0.09619140625,5.427480916030534,-23.083969465648856,-18.114503816793892
10.59,0.123046875,1.0234375,0.106201171875,1.015267175572519,-22.18320610687023,-16.603053435114504
10.6,0.119873046875,1.010986328125,0.10546875,-1.5114503816793894,-21.267175572519083,-14.816793893129772
10.61,0.12255859375,0.99169921875,0.0908203125,-2.801526717557252,-19.786259541984734,-15.587786259541986
10.62,0.11181640625,0.995849609375,0.0869140625,-3.572519083969466,-16.9618320610687,-12.946564885496183
10.63,0.11669921875,0.972900390625,0.0830078125,-2.564885496183206,-14.534351145038167,-11.961832061068701
10.64,0.1162109375,0.97216796875,0.0791015625,-1.0916030534351144,-13.091603053435115,-9.541984732824428
10.65,0.112548828125,0.988525390625,0.11083984375,1.1450381679389312,-12.526717557251908,-5.984732824427481
10.66,0.102294921875,0.981689453125,0.1025390625,2.427480916030534,-13.65648854961832,-3.3435114503816794
10.67,0.109130859375,0.979248046875,0.093505859375,1.7099236641221374,-8.740458015267176,-3.618320610687023
10.68,0.074951171875,0.9921875,0.11083984375,1.381679389312977,-6.8320610687022905,-2.9083969465648853
10.69,0.0712890625,0.99560546875,0.113525390625,1.1984732824427482,-6.0458015267175576,-2.183206106870229
10.7,0.069580078125,1.0126953125,0.119140625,-0.10687022900763359,-4.778625954198473,-1.6946564885496183
10.71,0.0673828125,0.986328125,0.116455078125,-0.6641221374045801,-3.7099236641221376,-0.4122137404580153
10.72,0.097412109375,0.996337890625,0.133544921875,-0.35877862595419846,-1.3893129770992367,0.7786259541984732
10.73,0.09912109375,1.003173828125,0.151123046875,0.48091603053435117,0.5038167938931297,2.1297709923664123
10.74,0.1005859375,1.00634765625,0.150390625,-0.2595419847328244,2.5801526717557253,3.1374045801526718
10.75,0.092041015625,1.01708984375,0.159423828125,-2.2061068702290076,4.450381679389313,4.519083969465649
10.76,0.07763671875,1.017578125,0.15478515625,-5.2748091603053435,3.969465648854962,4.236641221374046
10.77,0.054931640625,1.007568359375,0.146728515625,-9.450381679389313,7.595419847328245,4.282442748091603
10.78,0.056884765625,0.9970703125,0.139404296875,-11.908396946564885,9.969465648854962,3.801526717557252
10.79,0.072265625,0.968505859375,0.13671875,-10.938931297709924,14.106870229007633,3.213740458015267
10.8,0.085693359375,0.9609375,0.14306640625,-7.6106870229007635,17.33587786259542,4.633587786259542
10.81,0.07373046875,0.957763671875,0.140869140625,-7.755725190839694,19.53435114503817,8.213740458015268
10.82,0.054931640625,0.955810546875,0.1552734375,-4.595419847328245,15.534351145038167,12.076335877862595
10.83,0.06103515625,0.964111328125,0.1474609375,-2.6030534351145036,15.511450381679388,13.145038167938932
10.84,0.041259765625,0.96142578125,0.130126953125,0.05343511450381679,17.35114503816794,11.98473282442748
10.85,0.0419921875,0.968017578125,0.124267578125,2.030534351145038,20.213740458015266,10.19083969465649
10.86,0.039306640625,0.976806640625,0.11474609375,5.099236641221374,22.633587786259543,9.099236641221374
10.87,0.0380859375,0.991455078125,0.161865234375,9.091603053435115,23.259541984732824,8.740458015267176
10.88,0.0419921875,1.005859375,0.16455078125,8.908396946564885,23.091603053435115,8.48091603053435
10.89,0.017333984375,1.003662109375,0.159423828125,4.00763358778626,20.862595419847327,8.572519083969466
10.9,-0.004638671875,1.00048828125,0.1552734375,-1.5877862595419847,17.80916030534351,8.15267175572519
10.91,-0.012939453125,0.9833984375,0.12060546875,-5.099236641221374,15.954198473282442,7.015267175572519
10.92,-0.015625,0.97998046875,0.095703125,-5.305343511450381,14.236641221374045,6.442748091603053
10.93,0.0302734375,0.949462890625,0.090087890625,-2.404580152671756,13.290076335877863,5.511450381679389
10.94,0.022216796875,0.944091796875,0.075439453125,2.427480916030534,13.86259541984733,3.877862595419847
10.95,0.00634765625,0.949951171875,0.064453125,6.6183206106870225,12.366412213740459,3.5877862595419847
10.96,0.00732421875,0.9619140625,0.080810546875,10.129770992366412,9.969465648854962,2.6030534351145036
10.97,-0.0068359375,0.982666015625,0.098388671875,12.80916030534351,6.442748091603053,2.2748091603053435
10.98,-0.00048828125,0.99755859375,0.095947265625,12.80916030534351,5.847328244274809,0.6717557251908397
10.99,-0.009765625,1.00927734375,0.112548828125,11.274809160305344,1.099236641221374,-0.40458015267175573
11.0,-0.000732421875,1.008544921875,0.10791015625,9.351145038167939,-1.633587786259542,-1.1450381679389312
11.01,0.010009765625,1.0048828125,0.101318359375,6.557251908396947,-2.877862595419847,-2.0229007633587788
11.02,0.03173828125,1.009033203125,0.082275390625,4.9541984732824424,-2.8702290076335877,-2.984732824427481
11.03,0.06640625,1.01318359375,0.0712890625,5.267175572519084,-0.8702290076335878,-3.7099236641221376
11.04,0.061767578125,1.03271484375,0.08203125,8.083969465648854,-3.1603053435114505,-2.885496183206107
11.05,0.05322265625,1.058349609375,0.091064453125,9.396946564885496,-3.267175572519084,-4.633587786259542
11.06,0.01953125,1.0576171875,0.082763671875,8.679389312977099,-3.7022900763358777,-6.480916030534351
11.07,0.01611328125,1.06884765625,0.099609375,6.816793893129771,-6.213740458015267,-7.900763358778626
11.08,0.01806640625,1.064453125,0.0908203125,4.687022900763359,-8.488549618320612,-8.916030534351146
11.09,0.029052734375,1.054931640625,0.08447265625,2.7786259541984735,-10.374045801526718,-9.511450381679388
11.1,0.027587890625,1.03173828125,0.078125,1.748091603053435,-11.312977099236642,-9.351145038167939
11.11,0.048583984375,1.01171875,0.08056640625,1.2061068702290076,-12.389312977099237,-8.13740458015267
11.12,0.06396484375,1.00146484375,0.09130859375,-0.06870229007633588,-11.778625954198473,-6.366412213740458
11.13,0.086669921875,0.98828125,0.076416015625,0.5725190839694656,-10.206106870229007,-5.022900763358779
11.14,0.082763671875,0.989501953125,0.06884765625,2.0076335877862594,-7.603053435114504,-3.595419847328244
11.15,0.0849609375,0.97900390625,0.063232421875,2.8091603053435112,-5.6183206106870225,-1.297709923664122
11.16,0.087646484375,0.981201171875,0.079345703125,3.4885496183206106,-5.893129770992366,2.099236641221374
11.17,0.060791015625,0.954345703125,0.07275390625,4.091603053435114,-7.1679389312977095,5.137404580152672
11.18,0.036376953125,0.971923828125,0.066162109375,3.732824427480916,-8.618320610687023,6.702290076335878
11.19,0.019287109375,0.963134765625,0.05908203125,3.404580152671756,-10.549618320610687,7.221374045801527
11.2,0.015380859375,0.962646484375,0.060546875,4.557251908396947,-13.099236641221374,8.335877862595419
11.21,0.029052734375,0.963623046875,0.05078125,6.190839694656488,-15.366412213740459,9.557251908396946
11.22,0.049560546875,0.968017578125,0.043701171875,9.267175572519085,-16.49618320610687,10.244274809160306
11.23,0.09130859375,0.97412109375,0.053466796875,13.366412213740459,-15.358778625954198,9.648854961832061
11.24,0.08056640625,0.997802734375,0.071044921875,17.076335877862597,-13.13740458015267,8.290076335877863
11.25,0.074951171875,1.011474609375,0.081787109375,17.27480916030534,-11.15267175572519,6.282442748091603
11.26,0.072509765625,1.037109375,0.0771484375,14.259541984732824,-8.870229007633588,3.9389312977099236
11.27,0.059814453125,1.05078125,0.076904296875,9.51908396946565,-7.732824427480916,1.2900763358778626
11.28,0.042724609375,1.060791015625,0.080322265625,6.1679389312977095,-10.106870229007633,1.4961832061068703
11.29,0.044921875,1.044677734375,0.060302734375,-0.5419847328244275,-13.038167938931299,1.7938931297709924
11.3,0.052734375,1.01416015625,0.021240234375,-6.458015267175573,-15.885496183206106,1.4580152671755726
11.31,0.050537109375,0.976318359375,-0.007568359375,-9.114503816793894,-16.48854961832061,-0.12213740458015267
11.32,0.073486328125,0.967041015625,-0.018798828125,-6.259541984732825,-15.885496183206106,-1.816793893129771
11.33,0.0830078125,0.942138671875,-0.015869140625,-0.31297709923664124,-14.419847328244275,-5.259541984732825
11.34,0.0703125,0.941650390625,-0.032470703125,4.015267175572519,-12.648854961832061,-8.572519083969466
11.35,0.06005859375,0.9580078125,-0.04443359375,4.679389312977099,-13.51908396946565,-10.17557251908397
11.36,0.044677734375,0.967041015625,-0.039794921875,2.595419847328244,-17.47328244274809,-8.725190839694656
11.37,0.05029296875,0.9619140625,-0.0517578125,-1.7557251908396947,-21.82442748091603,-7.183206106870229
11.38,0.076904296875,0.949951171875,-0.057373046875,-5.679389312977099,-23.83206106870229,-6.137404580152672
11.39,0.09814453125,0.9453125,-0.05859375,-5.5038167938931295,-24.244274809160306,-4.9541984732824424
11.4,0.11279296875,0.94921875,-0.06591796875,-3.717557251908397,-24.748091603053435,-3.6717557251908395
11.41,0.114990234375,0.94091796875,-0.053466796875,-2.6106870229007635,-25.442748091603054,-2.885496183206107
11.42,0.119384765625,0.95556640625,-0.054443359375,-1.9389312977099236,-25.00763358778626,-2.931297709923664
11.43,0.10498046875,0.9775390625,-0.0478515625,-2.9770992366412212,-24.64885496183206,-3.4580152671755724
11.44,0.094970703125,0.974609375,-0.05859375,-4.32824427480916,-24.229007633587788,-4.916030534351145
11.45,0.0859375,0.985595703125,-0.03466796875,-4.3893129770992365,-24.801526717557252,-5.564885496183206
11.46,0.08642578125,0.993896484375,-0.0400390625,-4.458015267175573,-26.50381679389313,-5.625954198473282
11.47,0.073486328125,0.9931640625,-0.04345703125,-4.67175572519084,-27.091603053435115,-6.396946564885496
11.48,0.078125,1.01171875,-0.03662109375,-4.290076335877862,-26.709923664122137,-7.778625954198473
11.49,0.099609375,0.995361328125,-0.02294921875,-4.549618320610687,-25.16030534351145,-9.358778625954198
