Time(s),AccX,AccY,AccZ,GyrX,GyrY,GyrZ
0.0,0.0849609375,0.99853515625,0.02294921875,-1.549618320610687,-0.183206106870229,-0.2366412213740458
0.01,0.087890625,0.990478515625,0.023681640625,-1.816793893129771,-0.26717557251908397,-0.33587786259541985
0.02,0.08984375,0.996826171875,0.023193359375,-1.717557251908397,-0.2900763358778626,-0.5190839694656488
0.03,0.09521484375,0.98828125,0.018310546875,-1.7786259541984732,-0.13740458015267176,-0.5267175572519084
0.04,0.08984375,0.992919921875,0.029296875,-1.5725190839694656,-0.35877862595419846,-0.32061068702290074
0.05,0.08642578125,0.994384765625,0.03955078125,-1.549618320610687,-0.24427480916030533,-0.4351145038167939
0.06,0.091796875,0.984619140625,0.017333984375,-1.7557251908396947,-0.15267175572519084,-0.2824427480916031
0.07,0.087890625,0.99267578125,0.024658203125,-1.6564885496183206,-0.13740458015267176,-0.3969465648854962
0.08,0.082763671875,0.989013671875,0.0029296875,-1.83206106870229,-0.2748091603053435,-0.4122137404580153
0.09,0.0859375,0.9912109375,0.02392578125,-1.6412213740458015,-0.26717557251908397,-0.2824427480916031
0.1,0.091064453125,0.994140625,0.02685546875,-1.5877862595419847,-0.1297709923664122,-0.3893129770992366
0.11,0.087646484375,0.997314453125,0.01806640625,-1.6259541984732824,-0.16793893129770993,-0.3893129770992366
0.12,0.092529296875,0.985107421875,0.019775390625,-1.6564885496183206,-0.1297709923664122,-0.21374045801526717
0.13,0.078369140625,0.992919921875,0.023681640625,-1.7404580152671756,-0.1450381679389313,-0.32061068702290074
0.14,0.08984375,0.99462890625,0.031982421875,-1.7404580152671756,-0.29770992366412213,-0.4198473282442748
0.15,0.08984375,0.989013671875,0.02197265625,-1.6412213740458015,-0.25190839694656486,-0.4351145038167939
0.16,0.092529296875,0.993408203125,0.021728515625,-1.7938931297709924,-0.2748091603053435,-0.5648854961832062
0.17,0.089111328125,0.990966796875,0.020751953125,-1.5725190839694656,-0.3053435114503817,-0.32061068702290074
0.18,0.087646484375,0.991455078125,0.020263671875,-1.4885496183206106,-0.2900763358778626,-0.42748091603053434
0.19,0.09033203125,0.992919921875,0.025634765625,-1.6412213740458015,-0.183206106870229,-0.31297709923664124
0.2,0.08154296875,0.98828125,0.017578125,-1.5190839694656488,-0.19083969465648856,-0.2900763358778626
0.21,0.087158203125,0.99365234375,0.01953125,-1.6641221374045803,-0.183206106870229,-0.5038167938931297
0.22,0.089111328125,0.993408203125,0.020751953125,-1.618320610687023,-0.16793893129770993,-0.3969465648854962
0.23,0.08203125,0.992919921875,0.044921875,-1.786259541984733,-0.22137404580152673,-0.1984732824427481
0.24,0.08935546875,1.012939453125,0.03515625,-1.6641221374045803,-0.3435114503816794,-0.37404580152671757
0.25,0.085205078125,0.995361328125,0.02783203125,-1.702290076335878,-0.31297709923664124,-0.32061068702290074
0.26,0.0830078125,0.985595703125,0.02587890625,-1.6488549618320612,-0.13740458015267176,-0.2595419847328244
0.27,0.092529296875,0.9931640625,0.022216796875,-1.618320610687023,-0.31297709923664124,-0.35877862595419846
0.28,0.085205078125,0.99609375,0.029541015625,-1.6870229007633588,-0.29770992366412213,-0.22137404580152673
0.29,0.088134765625,0.9912109375,0.028564453125,-1.5725190839694656,-0.09923664122137404,-0.25190839694656486
0.3,0.0869140625,0.993896484375,0.026611328125,-1.6412213740458015,-0.21374045801526717,-0.3816793893129771
0.31,0.088623046875,0.994384765625,0.016357421875,-1.7404580152671756,-0.16030534351145037,-0.4580152671755725
0.32,0.084228515625,0.99560546875,0.02294921875,-1.9541984732824427,-0.1984732824427481,-0.6564885496183206
0.33,0.083740234375,0.994873046875,0.007568359375,-1.702290076335878,-0.32061068702290074,-0.33587786259541985
0.34,0.0859375,0.99169921875,0.028076171875,-1.5725190839694656,-0.3282442748091603,-0.35877862595419846
0.35,0.085205078125,0.987060546875,0.025634765625,-1.618320610687023,-0.31297709923664124,-0.183206106870229
0.36,0.08544921875,0.991943359375,0.022705078125,-1.717557251908397,-0.183206106870229,-0.5572519083969466
0.37,0.086669921875,0.990966796875,0.023681640625,-1.4961832061068703,-0.1297709923664122,-0.5190839694656488
0.38,0.08935546875,0.992431640625,0.023193359375,-1.6717557251908397,-0.09923664122137404,-0.33587786259541985
0.39,0.080810546875,0.98486328125,0.022705078125,-1.5572519083969465,-0.29770992366412213,-0.366412213740458
0.4,0.08740234375,0.995361328125,0.01806640625,-1.786259541984733,-0.3969465648854962,-0.2824427480916031
0.41,0.09033203125,0.984619140625,0.030517578125,-1.7251908396946565,-0.19083969465648856,-0.40458015267175573
0.42,0.085205078125,0.9912109375,0.02587890625,-1.702290076335878,-0.26717557251908397,-0.4351145038167939
0.43,0.090087890625,0.98779296875,0.031494140625,-1.5954198473282444,-0.1297709923664122,-0.2824427480916031
0.44,0.0859375,0.991455078125,0.026123046875,-1.702290076335878,-0.2824427480916031,-0.32061068702290074
0.45,0.087646484375,0.99169921875,0.02783203125,-1.717557251908397,-0.12213740458015267,-0.5114503816793893
0.46,0.085205078125,0.9873046875,0.02392578125,-1.5954198473282444,-1.8396946564885497,-0.2595419847328244
0.47,0.083251953125,0.99365234375,0.022705078125,-1.618320610687023,-0.19083969465648856,-0.29770992366412213
0.48,0.084228515625,0.990234375,0.045166015625,-1.5725190839694656,-0.2595419847328244,-0.366412213740458
0.49,0.081787109375,0.991455078125,0.025146484375,-1.549618320610687,-0.16793893129770993,-0.183206106870229
0.5,0.0791015625,0.991455078125,0.044677734375,-1.618320610687023,-0.19083969465648856,-0.3053435114503817
0.51,0.09033203125,0.98779296875,0.0283203125,-1.6106870229007633,-0.2366412213740458,-0.25190839694656486
0.52,0.08349609375,0.9892578125,0.021240234375,-1.6412213740458015,-0.17557251908396945,-0.3893129770992366
0.53,0.083984375,0.988525390625,0.020263671875,-1.7709923664122138,-0.16030534351145037,-0.44274809160305345
0.54,0.085693359375,0.989990234375,0.02490234375,-1.6259541984732824,-0.22137404580152673,-0.3435114503816794
0.55,0.08642578125,0.987548828125,0.02783203125,-1.6717557251908397,-0.32061068702290074,-0.33587786259541985
0.56,0.08837890625,0.989990234375,0.030517578125,-1.6946564885496183,-0.07633587786259542,-0.42748091603053434
0.57,0.085693359375,0.991455078125,0.023681640625,-1.7404580152671756,-0.09923664122137404,-0.3053435114503817
0.58,0.08251953125,0.9951171875,0.026611328125,-1.5954198473282444,-0.25190839694656486,-0.40458015267175573
0.59,0.0830078125,0.990966796875,0.0234375,-1.8015267175572518,-0.40458015267175573,-0.48854961832061067
0.6,0.087158203125,0.99609375,0.023193359375,-1.5801526717557253,-0.22137404580152673,-0.35877862595419846
0.61,0.085693359375,0.993896484375,0.025146484375,-1.618320610687023,-0.1450381679389313,-0.4580152671755725
0.62,0.085205078125,0.98974609375,0.030517578125,-1.6793893129770991,-0.09923664122137404,-0.2748091603053435
0.63,0.0830078125,0.992919921875,0.015869140625,-1.633587786259542,-0.3435114503816794,-0.3969465648854962
0.64,0.0859375,0.99267578125,0.023681640625,-1.6793893129770991,-0.17557251908396945,-0.2748091603053435
0.65,0.08642578125,0.9990234375,0.017333984375,-1.702290076335878,-0.183206106870229,-0.366412213740458
0.66,0.0927734375,0.993896484375,0.025146484375,-1.748091603053435,-0.0916030534351145,-0.26717557251908397
0.67,0.085693359375,0.990234375,0.031982421875,-1.9312977099236641,-0.29770992366412213,-0.4580152671755725
0.68,0.091064453125,0.99462890625,0.023193359375,-1.717557251908397,-0.21374045801526717,-0.31297709923664124
0.69,0.081298828125,0.992431640625,0.025390625,-1.6564885496183206,-0.2366412213740458,-0.24427480916030533
0.7,0.087890625,0.9921875,0.0263671875,-1.618320610687023,-0.1450381679389313,-0.3893129770992366
0.71,0.087158203125,0.990478515625,0.0234375,-1.5877862595419847,-0.26717557251908397,-0.48854961832061067
0.72,0.084716796875,0.994873046875,0.017578125,-1.6488549618320612,-0.3053435114503817,-0.22137404580152673
0.73,0.088623046875,0.9912109375,0.02783203125,-1.6717557251908397,-0.2366412213740458,-0.42748091603053434
0.74,0.090576171875,0.99853515625,0.00048828125,-1.702290076335878,-0.06870229007633588,-0.44274809160305345
0.75,0.0927734375,0.9912109375,0.015625,-1.7709923664122138,-0.22137404580152673,-0.25190839694656486
0.76,0.0859375,0.990966796875,0.021240234375,-1.5419847328244274,-0.19083969465648856,-0.3053435114503817
0.77,0.09326171875,0.989990234375,0.01953125,-1.916030534351145,-0.2595419847328244,-0.3893129770992366
0.78,0.091064453125,0.995361328125,0.02392578125,-1.8473282442748091,-0.3511450381679389,-0.6183206106870229
0.79,0.08056640625,0.99560546875,0.0263671875,-1.5038167938931297,-0.06870229007633588,-0.33587786259541985
0.8,0.082763671875,0.990234375,0.046142578125,-1.7709923664122138,-0.2900763358778626,-0.4732824427480916
0.81,0.08935546875,0.997802734375,0.024169921875,-1.5190839694656488,-0.061068702290076333,-0.45038167938931295
0.82,0.08642578125,0.996337890625,0.0263671875,-1.6106870229007633,-0.31297709923664124,-0.3816793893129771
0.83,0.079345703125,0.9892578125,0.02734375,-1.6946564885496183,-0.2900763358778626,-0.33587786259541985
0.84,0.074462890625,0.992919921875,0.02490234375,-1.6793893129770991,-0.183206106870229,-0.29770992366412213
0.85,0.08740234375,0.987548828125,0.023193359375,-1.549618320610687,-0.07633587786259542,-0.3893129770992366
0.86,0.10400390625,0.986572265625,0.0166015625,-1.7786259541984732,-0.11450381679389313,-0.42748091603053434
0.87,0.089599609375,0.97314453125,0.03271484375,-1.702290076335878,-0.21374045801526717,-0.21374045801526717
0.88,0.081298828125,0.9892578125,0.017578125,-1.7633587786259541,-0.2366412213740458,-0.2595419847328244
0.89,0.0908203125,0.99853515625,0.02880859375,-1.6641221374045803,-0.16030534351145037,-0.4198473282442748
0.9,0.099853515625,1.002685546875,0.03662109375,-1.6717557251908397,-0.030534351145038167,-0.3435114503816794
0.91,0.0927734375,0.98779296875,0.018798828125,-1.8015267175572518,-0.24427480916030533,-0.29770992366412213
0.92,0.09326171875,0.98779296875,0.01806640625,-1.618320610687023,-0.25190839694656486,-0.5419847328244275
0.93,0.084716796875,0.99169921875,0.019287109375,-1.6412213740458015,-0.07633587786259542,-0.4732824427480916
0.94,0.0888671875,0.993896484375,0.0263671875,-1.6946564885496183,-0.26717557251908397,-0.44274809160305345
0.95,0.0849609375,0.99267578125,0.015625,-1.618320610687023,-0.13740458015267176,-0.3816793893129771
0.96,0.091064453125,0.98876953125,0.04541015625,-1.8091603053435115,-0.24427480916030533,-0.48854961832061067
0.97,0.0830078125,0.994873046875,0.0166015625,-1.549618320610687,-0.1297709923664122,-0.2366412213740458
0.98,0.0869140625,0.99658203125,0.017333984375,-1.717557251908397,-0.17557251908396945,-0.3435114503816794
0.99,0.092041015625,0.997802734375,0.02099609375,-1.7251908396946565,-0.183206106870229,-0.35877862595419846
1.0,0.08837890625,0.984619140625,0.016845703125,-1.6717557251908397,-0.2595419847328244,-0.25190839694656486
1.01,0.0888671875,0.986328125,0.019775390625,-1.6793893129770991,-0.17557251908396945,-0.35877862595419846
1.02,0.086181640625,0.98681640625,0.0224609375,-1.549618320610687,-0.3282442748091603,-0.3969465648854962
1.03,0.10693359375,0.98828125,0.021728515625,-1.5954198473282444,-0.21374045801526717,-0.21374045801526717
1.04,0.077880859375,0.9755859375,0.017578125,-1.702290076335878,-0.13740458015267176,-0.5114503816793893
1.05,0.088134765625,0.98046875,0.025146484375,-1.6793893129770991,-0.13740458015267176,-0.3969465648854962
1.06,0.08203125,1.003662109375,0.018798828125,-1.7938931297709924,-0.22137404580152673,-0.37404580152671757
1.07,0.087646484375,1.002685546875,0.025390625,-1.450381679389313,-0.183206106870229,-0.2595419847328244
1.08,0.09326171875,0.993408203125,0.02783203125,-1.748091603053435,-0.08396946564885496,-0.37404580152671757
1.09,0.098876953125,0.968994140625,0.029296875,-1.6641221374045803,-0.2748091603053435,-0.2366412213740458
1.1,0.065185546875,0.990966796875,0.0244140625,-1.6488549618320612,0.022900763358778626,-0.3435114503816794
1.11,0.0888671875,0.99169921875,0.026123046875,-1.6870229007633588,-0.08396946564885496,-0.3893129770992366
1.12,0.06884765625,0.98583984375,0.01904296875,-1.6717557251908397,-0.2748091603053435,-0.31297709923664124
1.13,0.089599609375,0.969970703125,0.037353515625,-1.7786259541984732,-0.12213740458015267,-0.35877862595419846
1.14,0.077880859375,1.008544921875,0.019287109375,-1.633587786259542,-0.16030534351145037,-0.16793893129770993
1.15,0.08154296875,0.993896484375,0.03076171875,-1.8091603053435115,1.916030534351145,-0.48091603053435117
1.16,0.07373046875,0.993408203125,0.01513671875,-1.8702290076335877,-0.20610687022900764,-0.4122137404580153
1.17,0.08349609375,1.01025390625,0.031494140625,-1.6564885496183206,-0.11450381679389313,-0.48091603053435117
1.18,0.0791015625,0.998779296875,0.020751953125,-1.6793893129770991,-0.22900763358778625,-0.2366412213740458
1.19,0.08203125,0.9931640625,0.02490234375,-1.7786259541984732,-0.40458015267175573,-0.3435114503816794
1.2,0.077392578125,1.009521484375,0.020263671875,-1.7786259541984732,-0.29770992366412213,-0.21374045801526717
1.21,0.09033203125,0.982421875,0.015869140625,-1.6641221374045803,-0.05343511450381679,-0.44274809160305345
1.22,0.081298828125,0.998046875,0.0283203125,-1.8854961832061068,-0.2595419847328244,-0.32061068702290074
1.23,0.086669921875,0.9951171875,0.0166015625,-1.83206106870229,-0.07633587786259542,-0.24427480916030533
1.24,0.08154296875,0.974609375,0.017578125,-1.633587786259542,-0.061068702290076333,-0.37404580152671757
1.25,0.060791015625,1.128173828125,0.0546875,-1.816793893129771,0.3511450381679389,-0.3893129770992366
1.26,0.092529296875,1.03857421875,0.027099609375,-1.7709923664122138,1.8396946564885497,-0.08396946564885496
1.27,0.15185546875,1.015380859375,0.040771484375,-1.7786259541984732,-0.0916030534351145,-0.21374045801526717
1.28,0.081298828125,0.971435546875,0.015869140625,-1.6641221374045803,1.9312977099236641,-0.21374045801526717
1.29,0.056640625,1.015380859375,0.0390625,-1.7938931297709924,1.9312977099236641,-0.5038167938931297
1.3,0.0810546875,1.01904296875,0.0224609375,-1.5877862595419847,-0.09923664122137404,-0.5419847328244275
1.31,0.117431640625,1.000244140625,0.031494140625,-1.6793893129770991,-0.061068702290076333,-0.1984732824427481
1.32,0.101318359375,0.99609375,0.036376953125,-1.8091603053435115,-0.20610687022900764,-0.20610687022900764
1.33,0.0830078125,0.987548828125,0.028564453125,-1.7709923664122138,-0.08396946564885496,-0.44274809160305345
1.34,0.0869140625,0.989501953125,0.026123046875,-1.6030534351145038,-0.2595419847328244,-0.3969465648854962
1.35,0.067626953125,0.994873046875,0.01806640625,-1.5877862595419847,-0.3053435114503817,-0.42748091603053434
1.36,0.09130859375,0.99072265625,0.0029296875,-1.5572519083969465,-0.42748091603053434,-0.3816793893129771
1.37,0.09033203125,0.99609375,0.028564453125,-1.717557251908397,-0.11450381679389313,-0.37404580152671757
1.38,0.08837890625,0.9912109375,0.020751953125,-1.6488549618320612,-0.11450381679389313,-0.35877862595419846
1.39,0.088623046875,0.98681640625,0.02490234375,-1.633587786259542,-0.15267175572519084,-0.366412213740458
1.4,0.087646484375,0.9921875,0.020263671875,-1.4885496183206106,-0.24427480916030533,-0.3435114503816794
1.41,0.103759765625,0.986083984375,0.020751953125,-1.9389312977099236,-0.3816793893129771,-0.13740458015267176
1.42,0.080078125,0.97607421875,0.027099609375,-1.4809160305343512,-0.15267175572519084,-0.4732824427480916
1.43,0.078369140625,0.992431640625,0.026611328125,-1.6641221374045803,-0.06870229007633588,-0.19083969465648856
1.44,0.0927734375,0.98681640625,0.031494140625,-1.6870229007633588,-0.26717557251908397,-0.3893129770992366
1.45,0.090576171875,1.011474609375,0.013427734375,-1.7557251908396947,-0.10687022900763359,-0.4122137404580153
1.46,0.0830078125,0.960693359375,0.02294921875,-1.8778625954198473,1.9312977099236641,-0.21374045801526717
1.47,0.093994140625,0.98876953125,0.022705078125,-1.1145038167938932,-0.24427480916030533,-0.32061068702290074
1.48,0.090087890625,1.00439453125,0.010498046875,-1.816793893129771,-0.1297709923664122,-0.22137404580152673
1.49,0.08203125,0.990478515625,0.0166015625,-1.5114503816793894,-0.3511450381679389,-0.44274809160305345
1.5,0.101806640625,0.987060546875,0.01220703125,-1.6259541984732824,-0.26717557251908397,-0.12213740458015267
1.51,0.10009765625,0.99560546875,0.0,-1.6793893129770991,-0.3511450381679389,-0.3435114503816794
1.52,0.097900390625,1.003662109375,0.041748046875,-1.8015267175572518,-0.24427480916030533,-0.061068702290076333
1.53,0.10498046875,0.997314453125,0.038818359375,-1.6412213740458015,-0.20610687022900764,-0.3053435114503817
1.54,0.090087890625,0.9912109375,0.03759765625,-1.786259541984733,-0.3282442748091603,-0.19083969465648856
1.55,0.07763671875,1.003662109375,0.033203125,-1.4961832061068703,-0.2595419847328244,-0.17557251908396945
1.56,0.0703125,0.99267578125,0.03076171875,-1.8091603053435115,-0.25190839694656486,-0.42748091603053434
1.57,0.076416015625,0.992919921875,0.037109375,-1.6106870229007633,-0.061068702290076333,-0.1984732824427481
1.58,0.07373046875,0.984619140625,0.02685546875,-1.465648854961832,-0.007633587786259542,-0.3816793893129771
1.59,0.072998046875,0.9951171875,0.02001953125,-1.748091603053435,-0.09923664122137404,-0.5038167938931297
1.6,0.065185546875,0.99169921875,0.030517578125,-1.748091603053435,0.030534351145038167,-0.48854961832061067
1.61,0.083740234375,0.9912109375,0.01806640625,-1.5572519083969465,-0.183206106870229,-0.42748091603053434
1.62,0.09814453125,0.988037109375,0.009521484375,-1.717557251908397,-0.11450381679389313,-0.5954198473282443
1.63,0.10400390625,0.98828125,0.01220703125,-1.6412213740458015,-0.29770992366412213,-0.3511450381679389
1.64,0.102294921875,0.98828125,0.0234375,-1.786259541984733,-0.2366412213740458,-0.32061068702290074
1.65,0.09912109375,0.989013671875,0.023193359375,-1.5954198473282444,-0.19083969465648856,-0.29770992366412213
1.66,0.103515625,0.9912109375,0.032470703125,-1.816793893129771,-0.549618320610687,-0.19083969465648856
1.67,0.089111328125,0.98876953125,0.03076171875,-1.7328244274809161,-0.3969465648854962,-0.2595419847328244
1.68,0.0810546875,0.991943359375,0.034912109375,-1.549618320610687,-0.4580152671755725,-0.3053435114503817
1.69,0.073974609375,0.999267578125,0.0322265625,-1.7099236641221374,-0.3893129770992366,-0.03816793893129771
1.7,0.071533203125,0.9814453125,0.035888671875,-1.5954198473282444,-0.2748091603053435,-0.2824427480916031
1.71,0.07177734375,0.992431640625,0.016845703125,-1.549618320610687,-0.22137404580152673,-0.4961832061068702
1.72,0.06689453125,0.999755859375,0.0146484375,-1.717557251908397,-0.19083969465648856,-0.35877862595419846
1.73,0.082763671875,0.9912109375,0.022705078125,-1.549618320610687,1.8778625954198473,-0.5648854961832062
1.74,0.0849609375,0.9912109375,0.02392578125,-1.8396946564885497,-0.03816793893129771,-0.45038167938931295
1.75,0.0859375,0.990234375,0.0107421875,-1.6717557251908397,0.007633587786259542,-0.48091603053435117
1.76,0.104248046875,0.995361328125,0.02294921875,-0.022900763358778626,-0.09923664122137404,-0.4351145038167939
1.77,0.093505859375,0.989501953125,0.0263671875,-1.7099236641221374,-0.22900763358778625,-0.40458015267175573
1.78,0.09814453125,0.9931640625,0.0244140625,-1.5877862595419847,-0.20610687022900764,-0.3282442748091603
1.79,0.092041015625,0.984130859375,0.031005859375,-1.6564885496183206,-0.21374045801526717,-0.3435114503816794
1.8,0.09521484375,0.98876953125,0.027099609375,-1.4885496183206106,-0.48854961832061067,-0.3893129770992366
1.81,0.08935546875,0.990966796875,0.03466796875,-1.6717557251908397,-0.3511450381679389,-0.4351145038167939
1.82,0.081787109375,0.993408203125,0.031005859375,-1.6412213740458015,-0.37404580152671757,-0.4351145038167939
1.83,0.084228515625,0.9931640625,0.026123046875,-1.5190839694656488,-0.45038167938931295,-0.35877862595419846
1.84,0.081298828125,0.99169921875,0.02978515625,-1.6793893129770991,-0.08396946564885496,-0.3816793893129771
1.85,0.086181640625,0.993896484375,0.00732421875,-1.5572519083969465,-0.09923664122137404,-0.31297709923664124
1.86,0.088134765625,0.991943359375,0.02685546875,-1.5114503816793894,-0.16793893129770993,-0.29770992366412213
1.87,0.08251953125,0.990478515625,0.015869140625,-1.6259541984732824,-0.03816793893129771,-0.4580152671755725
1.88,0.0830078125,0.9921875,0.02099609375,-1.7633587786259541,-0.09923664122137404,-0.35877862595419846
1.89,0.083740234375,0.987548828125,0.0185546875,-1.83206106870229,-0.1450381679389313,-0.42748091603053434
1.9,0.0947265625,0.993408203125,0.021484375,-1.9083969465648856,-0.030534351145038167,-0.37404580152671757
1.91,0.09912109375,0.993896484375,0.026123046875,-1.6717557251908397,-0.3053435114503817,-0.44274809160305345
1.92,0.09033203125,0.992431640625,0.02783203125,-1.6946564885496183,-0.2366412213740458,-0.32061068702290074
1.93,0.0908203125,0.99072265625,0.031005859375,-1.7938931297709924,-0.45038167938931295,-0.3053435114503817
1.94,0.0869140625,0.99267578125,0.02490234375,-1.6259541984732824,-0.3893129770992366,-0.33587786259541985
1.95,0.08349609375,0.989990234375,0.0263671875,-1.549618320610687,-0.2748091603053435,-0.2900763358778626
1.96,0.08349609375,0.98779296875,0.030517578125,-1.6106870229007633,-0.10687022900763359,-0.366412213740458
1.97,0.083740234375,0.99560546875,0.0234375,-1.6564885496183206,-0.35877862595419846,-0.3816793893129771
1.98,0.07666015625,0.991943359375,0.020751953125,-1.6030534351145038,-0.16030534351145037,-0.17557251908396945
1.99,0.08056640625,0.99462890625,0.0146484375,-1.4961832061068703,-0.16030534351145037,-0.3969465648854962
2.0,0.080810546875,0.99169921875,0.015625,-1.5801526717557253,-0.22137404580152673,-0.44274809160305345
2.01,0.083251953125,0.998291015625,0.023193359375,-1.717557251908397,-0.13740458015267176,-0.2748091603053435
2.02,0.085205078125,0.9970703125,0.031005859375,-1.7328244274809161,-0.2824427480916031,-0.4961832061068702
2.03,0.093017578125,0.983154296875,0.02880859375,-1.6793893129770991,-0.12213740458015267,-0.4351145038167939
2.04,0.09619140625,0.994873046875,0.02099609375,-1.7709923664122138,-0.17557251908396945,-0.48091603053435117
2.05,0.09423828125,0.990478515625,0.02685546875,-1.8549618320610688,-0.2748091603053435,-0.5190839694656488
2.06,0.09716796875,0.9921875,0.02099609375,-1.6717557251908397,-0.3053435114503817,-0.46564885496183206
2.07,0.083984375,0.986572265625,0.031005859375,-1.5725190839694656,-0.3511450381679389,-0.366412213740458
2.08,0.090087890625,0.986083984375,0.025390625,-1.7709923664122138,-0.32061068702290074,-0.5267175572519084
2.09,0.083251953125,0.993408203125,0.024169921875,-1.7786259541984732,-0.2595419847328244,-0.4351145038167939
2.1,0.085205078125,0.996337890625,0.0205078125,-1.6412213740458015,-0.1984732824427481,-0.4580152671755725
2.11,0.071044921875,0.99560546875,0.01220703125,-1.5572519083969465,-0.183206106870229,-0.6030534351145038
2.12,0.076416015625,0.994873046875,0.02294921875,-1.900763358778626,-0.22137404580152673,-0.6335877862595419
2.13,0.0810546875,0.99951171875,0.0224609375,-1.7251908396946565,-0.12213740458015267,-0.6030534351145038
2.14,0.090087890625,0.995361328125,0.026123046875,-1.6793893129770991,-0.366412213740458,-0.5801526717557252
2.15,0.072021484375,0.992431640625,0.022216796875,-1.7557251908396947,-0.32061068702290074,-0.40458015267175573
2.16,0.08642578125,0.99072265625,0.017333984375,-1.618320610687023,-0.29770992366412213,-0.5954198473282443
2.17,0.083984375,0.991455078125,0.030029296875,-1.7709923664122138,-0.2366412213740458,-0.48091603053435117
2.18,0.087158203125,0.98779296875,0.0234375,-1.5267175572519085,-0.12213740458015267,-0.45038167938931295
2.19,0.08935546875,0.98779296875,0.02880859375,-1.6412213740458015,-0.13740458015267176,-0.31297709923664124
2.2,0.098876953125,0.993408203125,0.021728515625,-1.5801526717557253,-0.2824427480916031,-0.3816793893129771
2.21,0.09326171875,0.985595703125,0.02294921875,-1.9389312977099236,-0.37404580152671757,-0.40458015267175573
2.22,0.107666015625,0.994384765625,0.027099609375,-1.8473282442748091,-0.19083969465648856,-0.29770992366412213
2.23,0.083251953125,0.99560546875,0.024169921875,-1.748091603053435,-0.061068702290076333,-0.3511450381679389
2.24,0.083984375,0.99072265625,0.028076171875,-1.7099236641221374,-0.11450381679389313,-0.26717557251908397
2.25,0.0751953125,0.99267578125,0.020263671875,-1.8854961832061068,-0.366412213740458,-0.3816793893129771
2.26,0.082275390625,0.99365234375,0.022216796875,-1.5725190839694656,-0.33587786259541985,-0.3893129770992366
2.27,0.0849609375,0.993896484375,0.02197265625,-1.7099236641221374,-0.2748091603053435,-0.22137404580152673
2.28,0.07958984375,0.987060546875,0.024658203125,-1.6641221374045803,-0.29770992366412213,-0.42748091603053434
2.29,0.086181640625,0.99072265625,0.022216796875,-1.6412213740458015,-0.2900763358778626,-0.4122137404580153
2.3,0.085693359375,0.988525390625,0.029296875,-1.7557251908396947,-0.16030534351145037,-0.3816793893129771
2.31,0.084716796875,0.994140625,0.027099609375,-1.7938931297709924,-0.1984732824427481,-0.2748091603053435
2.32,0.079833984375,0.989990234375,0.017822265625,-1.5801526717557253,-0.3282442748091603,-0.2900763358778626
2.33,0.08984375,0.992431640625,0.028564453125,-1.4809160305343512,-0.2366412213740458,-0.32061068702290074
2.34,0.09033203125,0.99267578125,0.02734375,-1.7938931297709924,-0.21374045801526717,-0.42748091603053434
2.35,0.094482421875,0.990478515625,0.0224609375,-1.702290076335878,-0.3969465648854962,-0.29770992366412213
2.36,0.0830078125,0.990966796875,0.02685546875,-1.549618320610687,-0.2748091603053435,-0.3511450381679389
2.37,0.085693359375,0.991943359375,0.016845703125,-1.7786259541984732,-0.3969465648854962,-0.3969465648854962
2.38,0.083740234375,0.9931640625,0.01953125,-1.7633587786259541,-0.2900763358778626,-0.4198473282442748
2.39,0.08056640625,0.99755859375,0.014892578125,-1.7404580152671756,-0.3053435114503817,-0.4351145038167939
2.4,0.09326171875,0.989990234375,0.020263671875,-1.748091603053435,-0.3511450381679389,-0.26717557251908397
2.41,0.080810546875,0.9970703125,0.028076171875,-1.6641221374045803,-0.19083969465648856,-0.24427480916030533
2.42,0.081298828125,0.992919921875,0.0244140625,-1.6870229007633588,0.007633587786259542,-0.3893129770992366
2.43,0.09033203125,0.98828125,0.020263671875,-1.7786259541984732,-0.04580152671755725,-0.37404580152671757
2.44,0.092529296875,0.9931640625,0.035400390625,-1.6717557251908397,-0.11450381679389313,-0.5572519083969466
2.45,0.091796875,0.9951171875,0.0283203125,-1.5572519083969465,-0.2595419847328244,-0.24427480916030533
2.46,0.090087890625,0.99169921875,0.02978515625,-1.7557251908396947,-0.3435114503816794,-0.3511450381679389
2.47,0.088134765625,0.9921875,0.0263671875,-1.6641221374045803,-0.2748091603053435,-0.44274809160305345
2.48,0.09130859375,0.9921875,0.027099609375,-1.5267175572519085,-0.15267175572519084,-0.3893129770992366
2.49,0.08544921875,0.995361328125,0.023681640625,-1.7557251908396947,-0.4351145038167939,-0.3053435114503817
2.5,0.08837890625,0.98828125,0.0166015625,-1.748091603053435,-0.37404580152671757,-0.26717557251908397
2.51,0.089111328125,0.988037109375,0.02392578125,-1.6946564885496183,-0.4351145038167939,-0.3053435114503817
2.52,0.08154296875,0.992919921875,0.01806640625,-1.7404580152671756,-0.15267175572519084,-0.2366412213740458
2.53,0.084716796875,0.9921875,0.021240234375,-1.6641221374045803,-0.2748091603053435,-0.3511450381679389
2.54,0.081298828125,0.996337890625,0.01513671875,-1.7938931297709924,-0.22900763358778625,-0.4122137404580153
2.55,0.083740234375,0.99462890625,0.0322265625,-1.7328244274809161,-0.13740458015267176,-0.5419847328244275
2.56,0.0888671875,0.99560546875,0.024658203125,-1.6793893129770991,-0.19083969465648856,-0.3435114503816794
2.57,0.084228515625,0.989501953125,0.0166015625,-1.6030534351145038,-0.11450381679389313,-0.17557251908396945
2.58,0.08544921875,0.994384765625,0.029052734375,-1.702290076335878,-0.1984732824427481,-0.3969465648854962
2.59,0.087890625,0.9921875,0.027099609375,-1.6870229007633588,-0.1984732824427481,-0.35877862595419846
2.6,0.09375,0.99365234375,0.02197265625,-1.7709923664122138,-0.33587786259541985,-0.40458015267175573
2.61,0.091552734375,0.995849609375,0.027587890625,-1.6717557251908397,-0.33587786259541985,-0.32061068702290074
2.62,0.092529296875,0.998046875,0.02734375,-1.6870229007633588,-0.26717557251908397,-0.3893129770992366
2.63,0.0849609375,0.990478515625,0.01025390625,-1.4885496183206106,-0.15267175572519084,-0.42748091603053434
2.64,0.0869140625,0.993408203125,0.041748046875,-1.4732824427480915,-0.11450381679389313,-0.35877862595419846
2.65,0.080322265625,0.99560546875,0.0263671875,-1.4427480916030535,-0.22137404580152673,-0.4351145038167939
2.66,0.085205078125,0.993408203125,0.000732421875,-1.6564885496183206,-0.1450381679389313,-0.45038167938931295
2.67,0.081298828125,0.990966796875,0.021728515625,-1.7557251908396947,-0.19083969465648856,-0.24427480916030533
2.68,0.084228515625,0.993896484375,0.01953125,-1.534351145038168,-0.13740458015267176,-0.366412213740458
2.69,0.087890625,0.9921875,0.021240234375,-1.534351145038168,-0.17557251908396945,-0.22137404580152673
2.7,0.092041015625,0.992431640625,0.03466796875,-1.7099236641221374,-0.0916030534351145,-0.3969465648854962
2.71,0.093017578125,0.99609375,0.02783203125,-1.6946564885496183,-0.0916030534351145,-0.44274809160305345
2.72,0.107666015625,0.988037109375,0.027587890625,-1.8549618320610688,-0.061068702290076333,-0.25190839694656486
2.73,0.0849609375,0.993896484375,0.024169921875,-1.618320610687023,-0.3435114503816794,-0.42748091603053434
2.74,0.09228515625,0.990478515625,0.0166015625,-1.786259541984733,-0.2366412213740458,-0.2900763358778626
2.75,0.08984375,0.98974609375,0.02001953125,-1.5954198473282444,-0.5114503816793893,-0.17557251908396945
2.76,0.087158203125,0.9912109375,0.033447265625,-1.717557251908397,-0.1297709923664122,-0.4122137404580153
2.77,0.085205078125,0.98876953125,0.02197265625,-1.6870229007633588,-0.3893129770992366,-0.366412213740458
2.78,0.085205078125,0.990966796875,0.012451171875,-1.6412213740458015,-0.12213740458015267,-0.4198473282442748
2.79,0.091064453125,0.993408203125,0.01904296875,-1.7251908396946565,-0.13740458015267176,-0.16793893129770993
2.8,0.082763671875,0.9892578125,0.0166015625,-1.6793893129770991,-0.21374045801526717,-0.40458015267175573
2.81,0.0859375,0.995849609375,0.0166015625,-1.4809160305343512,-0.3511450381679389,-0.35877862595419846
2.82,0.08642578125,0.9921875,0.02294921875,-1.7404580152671756,-0.10687022900763359,-0.25190839694656486
2.83,0.090576171875,0.993408203125,0.02490234375,-1.5801526717557253,-0.4351145038167939,-0.25190839694656486
2.84,0.092041015625,0.987060546875,0.024658203125,-1.4885496183206106,-0.31297709923664124,-0.366412213740458
2.85,0.087158203125,0.987060546875,0.030029296875,-1.5267175572519085,-0.21374045801526717,-0.3816793893129771
2.86,0.087890625,0.987548828125,0.03369140625,-1.7709923664122138,-0.20610687022900764,-0.42748091603053434
2.87,0.08935546875,0.989501953125,0.025390625,-1.5877862595419847,-0.42748091603053434,-0.44274809160305345
2.88,0.087890625,0.996826171875,0.02734375,-1.6641221374045803,-0.19083969465648856,-0.35877862595419846
2.89,0.09375,0.97021484375,0.02392578125,-1.7099236641221374,-0.0916030534351145,-0.4122137404580153
2.9,0.091796875,0.99609375,0.02880859375,-1.5419847328244274,-0.29770992366412213,-0.3282442748091603
2.91,0.08349609375,0.989501953125,0.01806640625,-1.5801526717557253,-0.45038167938931295,-0.21374045801526717
2.92,0.088623046875,0.98828125,0.024169921875,-1.8549618320610688,-0.3053435114503817,-0.33587786259541985
2.93,0.081787109375,0.989990234375,0.023193359375,-1.5190839694656488,-0.3816793893129771,-0.366412213740458
2.94,0.090576171875,0.991455078125,0.021728515625,-1.6641221374045803,-0.2900763358778626,-0.35877862595419846
2.95,0.0908203125,0.992919921875,0.0224609375,-1.4961832061068703,-0.2595419847328244,-0.46564885496183206
2.96,0.090087890625,0.997802734375,0.017822265625,-1.7938931297709924,-0.16793893129770993,-0.366412213740458
2.97,0.092529296875,0.994873046875,0.02392578125,-1.8015267175572518,-0.0916030534351145,-0.4198473282442748
2.98,0.086181640625,0.9912109375,0.02490234375,-1.7633587786259541,-0.21374045801526717,-0.3893129770992366
2.99,0.086669921875,0.99462890625,0.017333984375,-1.549618320610687,-0.29770992366412213,-0.3282442748091603
3.0,0.079833984375,0.994384765625,0.01611328125,-1.7633587786259541,-0.2824427480916031,-0.42748091603053434
3.01,0.08154296875,0.989990234375,0.025390625,-1.6259541984732824,-0.3282442748091603,-0.2748091603053435
3.02,0.062744140625,1.00634765625,0.019775390625,-1.7099236641221374,-0.2595419847328244,-0.3053435114503817
3.03,0.083251953125,1.000732421875,0.02099609375,-1.6717557251908397,-0.29770992366412213,-0.45038167938931295
3.04,0.09326171875,0.984375,0.025390625,-1.748091603053435,-0.19083969465648856,-0.2900763358778626
3.05,0.083740234375,0.995361328125,0.030517578125,-1.633587786259542,-0.183206106870229,-0.5725190839694656
3.06,0.091552734375,0.998291015625,0.022705078125,-1.4885496183206106,-0.03816793893129771,-0.3816793893129771
3.07,0.084716796875,0.989501953125,0.0068359375,-1.8931297709923665,-0.0916030534351145,-0.22900763358778625
3.08,0.087646484375,0.994384765625,0.019775390625,-1.5648854961832062,-0.26717557251908397,-0.4961832061068702
3.09,0.085205078125,0.990234375,0.0244140625,-1.7633587786259541,-0.06870229007633588,-0.6259541984732825
3.1,0.08447265625,0.995849609375,0.01806640625,-1.6564885496183206,-0.1984732824427481,-0.3816793893129771
3.11,0.08984375,0.990478515625,0.022216796875,-1.748091603053435,-0.25190839694656486,-0.6030534351145038
3.12,0.092041015625,0.98974609375,0.0205078125,-1.6030534351145038,-0.19083969465648856,-0.32061068702290074
3.13,0.09033203125,0.991943359375,0.0166015625,-1.7404580152671756,-0.19083969465648856,-0.2366412213740458
3.14,0.090576171875,0.983154296875,0.02978515625,-1.9236641221374047,-0.21374045801526717,-0.3282442748091603
3.15,0.083251953125,0.989013671875,0.022216796875,-1.534351145038168,-0.13740458015267176,-0.3816793893129771
3.16,0.092041015625,0.98828125,0.019287109375,-1.549618320610687,-0.33587786259541985,-0.4961832061068702
3.17,0.083251953125,0.9873046875,0.02197265625,-1.6412213740458015,-0.3053435114503817,-0.2900763358778626
3.18,0.085205078125,0.986328125,0.0322265625,-1.6793893129770991,-0.17557251908396945,-0.5419847328244275
3.19,0.078125,0.992431640625,0.025634765625,-1.702290076335878,-0.15267175572519084,-0.46564885496183206
3.2,0.082763671875,0.998779296875,0.0302734375,-1.6641221374045803,-0.20610687022900764,-0.3816793893129771
3.21,0.09130859375,0.9912109375,0.0302734375,-1.6946564885496183,-0.3893129770992366,-0.37404580152671757
3.22,0.08740234375,0.9912109375,0.02392578125,-1.5725190839694656,-0.183206106870229,-0.48854961832061067
3.23,0.090576171875,0.993896484375,0.02294921875,-1.7557251908396947,-0.4351145038167939,-0.13740458015267176
3.24,0.088623046875,0.993408203125,0.021484375,-1.6106870229007633,-0.15267175572519084,-0.3969465648854962
3.25,0.093994140625,0.988525390625,0.027099609375,-1.5954198473282444,-0.3511450381679389,-0.31297709923664124
3.26,0.091064453125,0.987548828125,0.0224609375,-1.8091603053435115,-0.07633587786259542,-0.3816793893129771
3.27,0.086181640625,0.997314453125,0.026123046875,-1.5419847328244274,-0.31297709923664124,-0.3893129770992366
3.28,0.08349609375,0.992431640625,0.0185546875,-1.8473282442748091,-0.2366412213740458,-0.25190839694656486
3.29,0.0859375,0.99658203125,0.0234375,-1.5572519083969465,-0.2748091603053435,-0.6106870229007634
3.3,0.085205078125,0.99365234375,0.0283203125,-1.6259541984732824,-0.022900763358778626,-0.40458015267175573
3.31,0.08203125,0.9853515625,0.01708984375,-1.8473282442748091,-0.366412213740458,-0.42748091603053434
3.32,0.080322265625,0.990478515625,0.02392578125,-1.6488549618320612,-0.32061068702290074,-0.48091603053435117
3.33,0.084716796875,0.998046875,0.02001953125,-1.5648854961832062,-0.13740458015267176,-0.4580152671755725
3.34,0.082763671875,0.9892578125,0.02001953125,-1.6488549618320612,-1.9389312977099236,-0.33587786259541985
3.35,0.081787109375,0.99609375,0.01513671875,-1.6641221374045803,-0.20610687022900764,-0.40458015267175573
3.36,0.0869140625,0.989013671875,0.033935546875,-1.8244274809160306,-0.2748091603053435,-0.3893129770992366
3.37,0.089599609375,0.991943359375,0.024169921875,-1.5801526717557253,-0.3969465648854962,-0.3511450381679389
3.38,0.0859375,0.9873046875,0.0224609375,-1.7709923664122138,-0.3282442748091603,-0.4198473282442748
3.39,0.085693359375,0.98681640625,0.02685546875,-1.4351145038167938,-0.3282442748091603,-0.45038167938931295
3.4,0.0888671875,0.978759765625,0.02587890625,-1.6488549618320612,-0.3435114503816794,-0.1297709923664122
3.41,0.082275390625,0.992431640625,0.017822265625,-1.5190839694656488,-0.2824427480916031,-0.2900763358778626
3.42,0.089599609375,0.985595703125,0.0126953125,-1.7557251908396947,-0.17557251908396945,-0.366412213740458
3.43,0.08642578125,0.989990234375,0.025390625,-1.6259541984732824,-0.25190839694656486,-0.2900763358778626
3.44,0.0849609375,0.995361328125,0.031005859375,-1.5725190839694656,-0.13740458015267176,-0.366412213740458
3.45,0.080078125,0.98974609375,0.02001953125,-1.534351145038168,-0.16793893129770993,-0.4122137404580153
3.46,0.08544921875,0.990478515625,0.015625,-1.8396946564885497,-0.3435114503816794,-0.4732824427480916
3.47,0.0859375,0.994384765625,0.018798828125,-1.7251908396946565,-0.31297709923664124,-0.4122137404580153
3.48,0.0869140625,0.99609375,0.021484375,-1.6412213740458015,-0.33587786259541985,-0.35877862595419846
3.49,0.08984375,0.98876953125,0.031494140625,-1.6793893129770991,-0.3435114503816794,-0.3893129770992366
3.5,0.086669921875,0.99072265625,0.026123046875,-1.4961832061068703,-0.22137404580152673,-0.2366412213740458
3.51,0.078857421875,0.989501953125,0.022216796875,-1.7099236641221374,-0.366412213740458,-0.4122137404580153
3.52,0.085205078125,0.988037109375,0.02392578125,-1.6717557251908397,-0.33587786259541985,-0.5038167938931297
3.53,0.10400390625,0.924560546875,0.022216796875,-1.618320610687023,-0.2748091603053435,-0.2366412213740458
3.54,0.082275390625,1.008056640625,0.025634765625,-1.702290076335878,-0.25190839694656486,-0.48854961832061067
3.55,0.097412109375,0.994384765625,0.024658203125,-1.5801526717557253,-0.061068702290076333,-0.5114503816793893
3.56,0.097412109375,1.0,0.028564453125,-1.6717557251908397,-0.21374045801526717,-0.2824427480916031
3.57,0.08642578125,1.004150390625,0.022216796875,-1.6793893129770991,-0.20610687022900764,-0.3282442748091603
3.58,0.075439453125,0.991455078125,0.013916015625,-1.9389312977099236,-0.22900763358778625,-0.3282442748091603
3.59,0.080322265625,0.998779296875,0.022216796875,-1.5419847328244274,-0.183206106870229,-0.4351145038167939
3.6,0.0830078125,0.9892578125,0.019775390625,-1.7557251908396947,-0.10687022900763359,-0.4351145038167939
3.61,0.080810546875,0.993408203125,0.025146484375,-1.8549618320610688,-0.3053435114503817,-0.15267175572519084
3.62,0.097412109375,1.011962890625,0.03076171875,-1.5725190839694656,-1.9541984732824427,-0.3511450381679389
3.63,0.12158203125,1.38134765625,0.005615234375,-2.0916030534351147,-0.45038167938931295,0.9770992366412213
3.64,0.031982421875,1.118896484375,0.078125,-1.1450381679389312,-0.2824427480916031,-1.8854961832061068
3.65,0.16845703125,1.00390625,0.04150390625,-1.0916030534351144,-0.46564885496183206,0.732824427480916
3.66,0.059814453125,1.08935546875,0.026123046875,-2.0381679389312977,1.7328244274809161,-0.35877862595419846
3.67,0.093505859375,1.006591796875,0.024658203125,-1.8396946564885497,-0.15267175572519084,-0.46564885496183206
3.68,0.10693359375,0.99267578125,0.02685546875,-1.3282442748091603,1.8549618320610688,-0.32061068702290074
3.69,0.10595703125,1.009521484375,0.012451171875,-1.717557251908397,-0.37404580152671757,-0.5114503816793893
3.7,0.089599609375,1.00390625,0.035400390625,-1.6564885496183206,-0.22137404580152673,-0.33587786259541985
3.71,0.08935546875,1.002197265625,0.012939453125,-1.366412213740458,-0.15267175572519084,-0.31297709923664124
3.72,0.083740234375,0.991943359375,0.0146484375,-0.022900763358778626,-0.32061068702290074,-0.2900763358778626
3.73,0.086669921875,0.993408203125,0.025390625,-1.4580152671755726,-0.25190839694656486,-0.46564885496183206
3.74,0.085693359375,0.996337890625,0.01708984375,-1.7709923664122138,-0.16793893129770993,-0.5038167938931297
3.75,0.08935546875,0.990478515625,0.025634765625,-1.7099236641221374,-0.22137404580152673,-0.42748091603053434
3.76,0.08740234375,0.970458984375,0.022705078125,-1.5877862595419847,-0.13740458015267176,-0.4351145038167939
3.77,0.083740234375,0.9970703125,0.020263671875,-1.8015267175572518,-0.4198473282442748,-0.3893129770992366
3.78,0.095947265625,0.99169921875,0.02734375,-1.8702290076335877,-0.183206106870229,-0.3816793893129771
3.79,0.088134765625,0.985595703125,0.024169921875,-1.4732824427480915,-0.24427480916030533,-0.33587786259541985
3.8,0.08837890625,0.996337890625,0.025634765625,-1.534351145038168,-0.3816793893129771,-0.2900763358778626
3.81,0.080322265625,0.986572265625,0.027099609375,-1.5648854961832062,-0.22137404580152673,-0.3053435114503817
3.82,0.085693359375,0.98876953125,0.024169921875,-1.5190839694656488,-0.19083969465648856,-0.31297709923664124
3.83,0.087890625,0.99267578125,0.023193359375,-1.5648854961832062,-0.3282442748091603,-0.33587786259541985
3.84,0.0869140625,0.98828125,0.02783203125,-1.6259541984732824,-0.2824427480916031,-0.33587786259541985
3.85,0.074951171875,0.992919921875,0.018310546875,-1.6793893129770991,-0.21374045801526717,-0.3053435114503817
3.86,0.08984375,0.970458984375,0.025146484375,-1.7786259541984732,-0.16030534351145037,-0.17557251908396945
3.87,0.09130859375,0.989990234375,0.02294921875,-1.6488549618320612,-0.16030534351145037,-0.33587786259541985
3.88,0.087646484375,0.98828125,0.013916015625,-1.702290076335878,-0.40458015267175573,-0.3435114503816794
3.89,0.085693359375,0.9873046875,0.029541015625,-1.7328244274809161,0.030534351145038167,-0.5419847328244275
3.9,0.089111328125,0.98779296875,0.025390625,-1.7633587786259541,-0.3435114503816794,-0.35877862595419846
3.91,0.088134765625,0.994873046875,0.03125,-1.816793893129771,-0.3893129770992366,-0.25190839694656486
3.92,0.088623046875,0.991455078125,0.02490234375,-1.6870229007633588,-0.1297709923664122,-0.31297709923664124
3.93,0.089599609375,0.991455078125,0.01953125,-1.6870229007633588,-0.29770992366412213,-0.3816793893129771
3.94,0.08984375,0.993408203125,0.01708984375,-1.6717557251908397,-0.44274809160305345,-0.25190839694656486
3.95,0.085693359375,0.9921875,0.02294921875,-1.6870229007633588,-0.26717557251908397,-0.35877862595419846
3.96,0.080078125,0.989990234375,0.02294921875,-1.786259541984733,-0.1450381679389313,-0.32061068702290074
3.97,0.088134765625,0.997802734375,0.023193359375,-1.6717557251908397,-0.25190839694656486,-0.3053435114503817
3.98,0.089111328125,0.995361328125,0.0244140625,-1.5801526717557253,-0.1297709923664122,-0.6183206106870229
3.99,0.084716796875,0.99169921875,0.021484375,-1.6717557251908397,-0.10687022900763359,-0.4732824427480916
4.0,0.087890625,0.990234375,0.023193359375,-1.6488549618320612,-0.2595419847328244,-0.35877862595419846
4.01,0.08544921875,0.990234375,0.0166015625,-1.9389312977099236,-0.19083969465648856,-0.24427480916030533
4.02,0.094482421875,0.99267578125,0.02880859375,-1.6488549618320612,-0.20610687022900764,-0.4198473282442748
4.03,0.082763671875,0.9931640625,0.024658203125,-1.7786259541984732,-0.1450381679389313,-0.42748091603053434
4.04,0.081298828125,0.9912109375,0.01708984375,-1.618320610687023,-0.22900763358778625,-0.2595419847328244
4.05,0.092529296875,0.9912109375,0.022216796875,-1.5954198473282444,-0.33587786259541985,-0.22137404580152673
4.06,0.08837890625,0.990478515625,0.0224609375,-1.5725190839694656,-0.35877862595419846,-0.16793893129770993
4.07,0.086669921875,0.98779296875,0.026611328125,-1.6030534351145038,-0.16030534351145037,-0.44274809160305345
4.08,0.0810546875,0.99169921875,0.0234375,-1.7633587786259541,-0.20610687022900764,-0.13740458015267176
4.09,0.08203125,0.995361328125,0.01611328125,-1.6412213740458015,-0.2748091603053435,-0.4122137404580153
4.1,0.08349609375,0.9931640625,0.0263671875,-1.7709923664122138,-0.04580152671755725,-0.31297709923664124
4.11,0.0869140625,0.990966796875,0.0263671875,-1.7251908396946565,-0.16793893129770993,-0.2748091603053435
4.12,0.084228515625,0.992431640625,0.022216796875,-1.534351145038168,-0.22137404580152673,-0.2595419847328244
4.13,0.084228515625,0.990234375,0.0166015625,-1.8854961832061068,-0.05343511450381679,-0.33587786259541985
4.14,0.086181640625,0.998291015625,0.0234375,-1.633587786259542,-0.24427480916030533,-0.366412213740458
4.15,0.08837890625,0.989501953125,0.026123046875,-1.8091603053435115,-0.19083969465648856,-0.4198473282442748
4.16,0.086181640625,0.9873046875,0.02880859375,-1.618320610687023,-0.0916030534351145,-0.35877862595419846
4.17,0.090576171875,0.991455078125,0.02587890625,-1.7251908396946565,-0.20610687022900764,-0.42748091603053434
4.18,0.089599609375,0.992431640625,0.001953125,-1.748091603053435,-0.25190839694656486,-0.40458015267175573
4.19,0.08447265625,0.99267578125,0.021728515625,-1.7557251908396947,-0.1450381679389313,-0.42748091603053434
4.2,0.0791015625,0.989501953125,0.02392578125,-1.7251908396946565,-0.1450381679389313,-0.29770992366412213
4.21,0.08251953125,0.998291015625,0.015869140625,-1.6259541984732824,-0.10687022900763359,-0.31297709923664124
4.22,0.0869140625,0.99072265625,0.025146484375,-1.8625954198473282,-0.19083969465648856,-0.2900763358778626
4.23,0.0888671875,0.9892578125,0.02099609375,-1.5954198473282444,-0.12213740458015267,-0.2748091603053435
4.24,0.08740234375,0.99462890625,0.023193359375,-1.5877862595419847,-0.2900763358778626,-0.26717557251908397
4.25,0.088134765625,0.98779296875,0.01611328125,-1.6717557251908397,-0.15267175572519084,-0.42748091603053434
4.26,0.087158203125,0.990966796875,0.019775390625,-1.5190839694656488,-0.11450381679389313,-0.48091603053435117
4.27,0.083984375,0.9921875,0.02978515625,-1.816793893129771,-0.2366412213740458,-0.25190839694656486
4.28,0.087646484375,0.986083984375,0.0185546875,-1.8015267175572518,-0.3969465648854962,-0.45038167938931295
4.29,0.14892578125,0.951904296875,0.034912109375,-1.5648854961832062,-0.2595419847328244,-0.7099236641221374
4.3,0.096435546875,0.998779296875,0.02099609375,-1.8549618320610688,-0.3053435114503817,-0.25190839694656486
4.31,0.089599609375,0.98095703125,0.0283203125,-1.6870229007633588,-0.13740458015267176,-0.3511450381679389
4.32,0.089111328125,0.9951171875,0.02392578125,-1.4351145038167938,-0.3053435114503817,-0.4961832061068702
4.33,0.0888671875,0.99462890625,0.0029296875,-1.9389312977099236,-0.3816793893129771,-0.4122137404580153
4.34,0.07861328125,0.9970703125,0.02392578125,-1.6412213740458015,-0.33587786259541985,-0.42748091603053434
4.35,0.0927734375,0.985595703125,0.020751953125,-1.633587786259542,-0.06870229007633588,-0.29770992366412213
4.36,0.0859375,0.99609375,0.0224609375,-1.8778625954198473,-0.16793893129770993,-0.3282442748091603
4.37,0.08251953125,0.998291015625,0.018310546875,-1.702290076335878,-0.31297709923664124,-0.35877862595419846
4.38,0.0771484375,0.988525390625,0.028076171875,-1.6412213740458015,-0.3282442748091603,-0.3435114503816794
4.39,0.08349609375,0.9912109375,0.02685546875,-1.6106870229007633,-0.26717557251908397,-0.4351145038167939
4.4,0.084228515625,0.99365234375,0.023193359375,-1.7099236641221374,-0.3435114503816794,-0.3053435114503817
4.41,0.09228515625,0.990234375,0.022705078125,-1.7328244274809161,-0.16793893129770993,-0.4351145038167939
4.42,0.07861328125,0.989990234375,0.021240234375,-1.633587786259542,-0.366412213740458,-0.4961832061068702
4.43,0.091796875,0.998291015625,0.023681640625,-1.5190839694656488,-0.22900763358778625,-0.31297709923664124
4.44,0.0888671875,0.997802734375,0.020751953125,-1.7404580152671756,-0.11450381679389313,-0.3282442748091603
4.45,0.089111328125,0.99169921875,0.015380859375,-1.7251908396946565,-0.1984732824427481,-0.4122137404580153
4.46,0.083740234375,0.9951171875,0.0244140625,-1.7557251908396947,-0.2824427480916031,-0.2824427480916031
4.47,0.08544921875,0.9912109375,0.01953125,-1.8396946564885497,-0.2366412213740458,-0.32061068702290074
4.48,0.084228515625,0.995361328125,0.021728515625,-1.618320610687023,-0.16793893129770993,-0.24427480916030533
4.49,0.088134765625,0.98876953125,0.0205078125,-1.6641221374045803,-0.12213740458015267,-0.2824427480916031
4.5,0.085205078125,0.99072265625,0.029541015625,-1.7251908396946565,-0.24427480916030533,-0.2595419847328244
4.51,0.087646484375,0.993896484375,0.01953125,-1.7709923664122138,-0.22900763358778625,-0.29770992366412213
4.52,0.0859375,0.99072265625,0.016845703125,-1.6412213740458015,-0.21374045801526717,-0.5725190839694656
4.53,0.09521484375,0.984619140625,0.03857421875,-1.5877862595419847,-0.29770992366412213,-0.40458015267175573
4.54,0.08740234375,0.99462890625,0.017822265625,-1.8473282442748091,-0.3053435114503817,-0.3053435114503817
4.55,0.086669921875,0.990478515625,0.03515625,-1.702290076335878,-0.13740458015267176,-0.45038167938931295
4.56,0.084716796875,1.0,0.02197265625,-1.6030534351145038,-0.2595419847328244,-0.5343511450381679
4.57,0.085205078125,0.989990234375,0.023681640625,-1.5801526717557253,-0.19083969465648856,-0.3435114503816794
4.58,0.078369140625,1.0078125,0.0234375,-1.6488549618320612,-0.20610687022900764,-0.35877862595419846
4.59,0.08544921875,0.99365234375,0.018310546875,-1.6106870229007633,1.9465648854961832,-0.3435114503816794
4.6,0.090576171875,0.99560546875,0.007568359375,-1.5572519083969465,-0.13740458015267176,-0.366412213740458
4.61,0.081787109375,0.990478515625,0.029541015625,-1.6564885496183206,-0.2900763358778626,-0.22137404580152673
4.62,0.090087890625,0.97900390625,0.027587890625,-1.5877862595419847,-0.22900763358778625,-0.5572519083969466
4.63,0.09033203125,0.9892578125,0.0224609375,-1.5038167938931297,-0.24427480916030533,-0.4961832061068702
4.64,0.089111328125,0.983154296875,0.025146484375,-1.6946564885496183,-0.16793893129770993,-0.3435114503816794
4.65,0.08349609375,0.99169921875,0.016845703125,-1.6564885496183206,-0.25190839694656486,-0.2824427480916031
4.66,0.087646484375,0.994873046875,0.0166015625,-1.7099236641221374,-0.2366412213740458,-0.46564885496183206
4.67,0.08984375,0.994384765625,0.019775390625,-1.6259541984732824,-0.2824427480916031,-0.2366412213740458
4.68,0.08642578125,0.991455078125,0.021484375,-1.8015267175572518,-0.183206106870229,-0.25190839694656486
4.69,0.091064453125,0.994140625,0.019287109375,-1.6412213740458015,-0.16030534351145037,-0.29770992366412213
4.7,0.09033203125,0.994384765625,0.018798828125,-1.83206106870229,-0.16030534351145037,-0.32061068702290074
4.71,0.079833984375,0.9921875,0.02294921875,-1.5877862595419847,-0.15267175572519084,-0.5801526717557252
4.72,0.08642578125,0.9931640625,0.01806640625,-1.5801526717557253,-0.1297709923664122,-0.366412213740458
4.73,0.088623046875,1.009033203125,0.023681640625,-1.7404580152671756,-0.35877862595419846,-0.33587786259541985
4.74,0.083251953125,0.989501953125,0.027587890625,-1.6793893129770991,-0.06870229007633588,-0.366412213740458
4.75,0.0869140625,0.991943359375,0.02294921875,-1.6412213740458015,-0.29770992366412213,-0.4122137404580153
4.76,0.08935546875,0.987548828125,0.027099609375,-1.6870229007633588,-0.29770992366412213,-0.366412213740458
4.77,0.08349609375,0.99072265625,0.020751953125,-1.4885496183206106,-0.2748091603053435,-0.31297709923664124
4.78,0.0849609375,0.98828125,0.030029296875,-1.7251908396946565,-0.3435114503816794,-0.4580152671755725
4.79,0.087890625,0.99169921875,0.021484375,-1.6717557251908397,-0.4122137404580153,-0.33587786259541985
4.8,0.09326171875,0.988037109375,0.0244140625,-1.8778625954198473,-0.24427480916030533,-0.3282442748091603
4.81,0.086669921875,0.99072265625,0.022705078125,-1.6717557251908397,-0.32061068702290074,-0.2900763358778626
4.82,0.09130859375,0.990966796875,0.025634765625,-1.8702290076335877,-0.2824427480916031,-0.40458015267175573
4.83,0.085205078125,0.994873046875,0.023193359375,-1.5648854961832062,-0.21374045801526717,-0.4732824427480916
4.84,0.07958984375,0.99365234375,0.02099609375,-1.5725190839694656,-0.183206106870229,-0.3435114503816794
4.85,0.08544921875,0.993896484375,0.01953125,-1.6259541984732824,-0.11450381679389313,-0.48091603053435117
4.86,0.087158203125,0.998046875,0.0205078125,-1.5725190839694656,-0.366412213740458,-0.3282442748091603
4.87,0.08447265625,0.99072265625,0.02880859375,-1.7328244274809161,-0.3053435114503817,-0.3282442748091603
4.88,0.079345703125,0.994140625,0.02099609375,-1.8931297709923665,-0.24427480916030533,-0.37404580152671757
4.89,0.0849609375,0.99609375,0.000244140625,-1.6259541984732824,-0.061068702290076333,-0.31297709923664124
4.9,0.085205078125,0.996826171875,0.0283203125,-1.7557251908396947,-0.16030534351145037,-0.22900763358778625
4.91,0.083984375,0.9873046875,0.026611328125,-1.748091603053435,-0.3511450381679389,-0.25190839694656486
4.92,0.0888671875,0.9892578125,0.024658203125,-1.748091603053435,-0.366412213740458,-0.2900763358778626
4.93,0.0888671875,0.9912109375,0.025146484375,-1.5954198473282444,-0.3969465648854962,-0.3816793893129771
4.94,0.08740234375,0.992919921875,0.02392578125,-1.816793893129771,-0.2366412213740458,-0.33587786259541985
4.95,0.0830078125,0.99853515625,0.0234375,-1.633587786259542,-0.22137404580152673,-0.16793893129770993
4.96,0.087646484375,0.99169921875,0.018310546875,-1.7251908396946565,-0.21374045801526717,-0.4732824427480916
4.97,0.0869140625,0.989013671875,0.0205078125,-1.6793893129770991,-0.1297709923664122,-0.2900763358778626
4.98,0.089111328125,0.99462890625,0.03076171875,-1.5954198473282444,-0.22137404580152673,-0.32061068702290074
4.99,0.080810546875,0.987548828125,0.02294921875,-1.8549618320610688,-0.37404580152671757,-0.2900763358778626
5.0,0.08447265625,0.993896484375,0.02734375,-1.6793893129770991,-0.183206106870229,-0.22137404580152673
5.01,0.083984375,0.989501953125,0.0283203125,-1.6488549618320612,-0.22900763358778625,-0.4961832061068702
5.02,0.08642578125,0.98876953125,0.020263671875,-1.4885496183206106,-0.2824427480916031,-0.3893129770992366
5.03,0.084716796875,0.98974609375,0.01953125,-1.5954198473282444,1.9389312977099236,-0.2748091603053435
5.04,0.087158203125,0.985107421875,0.020263671875,-1.618320610687023,-0.15267175572519084,-0.3816793893129771
5.05,0.09130859375,0.99267578125,0.023193359375,-1.6030534351145038,-0.2900763358778626,-0.4351145038167939
5.06,0.082275390625,0.996337890625,0.025146484375,-1.7709923664122138,-0.2748091603053435,-0.32061068702290074
5.07,0.081298828125,0.990966796875,0.0263671875,-1.7251908396946565,-0.3053435114503817,-0.3893129770992366
5.08,0.0849609375,0.99462890625,0.0166015625,-1.465648854961832,-0.2748091603053435,-0.366412213740458
5.09,0.093505859375,0.99365234375,0.02197265625,-1.6488549618320612,-0.17557251908396945,-0.3893129770992366
5.1,0.0859375,0.993408203125,0.02880859375,-1.748091603053435,-0.2595419847328244,-0.3435114503816794
5.11,0.0859375,0.991455078125,0.0224609375,-1.6564885496183206,-0.03816793893129771,-0.37404580152671757
5.12,0.091552734375,0.99267578125,0.01806640625,-1.6564885496183206,-0.061068702290076333,-0.44274809160305345
5.13,0.08984375,0.993896484375,0.0224609375,-1.7786259541984732,-0.2824427480916031,-0.22137404580152673
5.14,0.088623046875,0.990966796875,0.01806640625,-1.6564885496183206,-0.3282442748091603,-0.26717557251908397
5.15,0.083740234375,0.991943359375,0.029052734375,-1.5725190839694656,-0.13740458015267176,-0.366412213740458
5.16,0.086669921875,0.99267578125,0.01611328125,-1.816793893129771,0.12213740458015267,-0.40458015267175573
5.17,0.08447265625,0.987548828125,0.022216796875,-1.4885496183206106,-0.08396946564885496,-0.3435114503816794
5.18,0.0888671875,0.99609375,0.024658203125,-1.6259541984732824,-0.20610687022900764,-0.4198473282442748
5.19,0.082763671875,0.994140625,0.0244140625,-1.8778625954198473,-0.10687022900763359,-0.40458015267175573
5.2,0.083251953125,0.990478515625,0.029541015625,-1.7633587786259541,-0.16793893129770993,-0.4198473282442748
5.21,0.087890625,0.996826171875,0.025390625,-1.5267175572519085,-0.1984732824427481,-0.2366412213740458
5.22,0.089111328125,0.989990234375,0.0224609375,-1.6641221374045803,-0.0916030534351145,-0.4122137404580153
5.23,0.087158203125,0.98974609375,0.02490234375,-1.5954198473282444,-0.3893129770992366,-0.2900763358778626
5.24,0.08642578125,0.99560546875,0.023681640625,-1.7404580152671756,-0.24427480916030533,-0.22900763358778625
5.25,0.085693359375,0.98681640625,0.024658203125,-1.7404580152671756,-0.06870229007633588,-0.2748091603053435
5.26,0.090087890625,0.992919921875,0.017822265625,-1.6641221374045803,-0.3511450381679389,-0.4732824427480916
5.27,0.083984375,0.99267578125,0.0244140625,-1.786259541984733,-0.183206106870229,-0.2366412213740458
5.28,0.08984375,0.989501953125,0.028076171875,-1.5954198473282444,-0.20610687022900764,-0.35877862595419846
5.29,0.08984375,0.99560546875,0.017578125,-1.7404580152671756,-0.17557251908396945,-0.40458015267175573
5.3,0.086669921875,0.9921875,0.0224609375,-1.4809160305343512,-0.32061068702290074,-0.42748091603053434
5.31,0.087646484375,0.98974609375,0.02685546875,-1.618320610687023,-0.11450381679389313,-0.22137404580152673
5.32,0.09375,0.99169921875,0.023193359375,-1.8625954198473282,-0.2824427480916031,-0.4351145038167939
5.33,0.08349609375,0.990478515625,0.022705078125,-1.7099236641221374,-0.16030534351145037,-0.4122137404580153
5.34,0.087646484375,0.994384765625,0.0234375,-1.816793893129771,-0.17557251908396945,-0.3511450381679389
5.35,0.080078125,0.98779296875,0.018798828125,-1.5725190839694656,-0.45038167938931295,-0.35877862595419846
5.36,0.0859375,0.99609375,0.021728515625,-1.618320610687023,-0.03816793893129771,-0.37404580152671757
5.37,0.085693359375,0.98876953125,0.026611328125,-1.6870229007633588,-0.366412213740458,-0.3282442748091603
5.38,0.0810546875,0.993896484375,0.023193359375,-1.6488549618320612,0.05343511450381679,-0.3282442748091603
5.39,0.08935546875,0.9931640625,0.02685546875,-1.5419847328244274,-0.48091603053435117,-0.40458015267175573
5.4,0.08837890625,0.9921875,0.023681640625,-1.9312977099236641,-0.2748091603053435,-0.2824427480916031
5.41,0.083251953125,0.99267578125,0.023681640625,-1.702290076335878,-0.366412213740458,-0.4122137404580153
5.42,0.08740234375,0.9931640625,0.0234375,-1.816793893129771,-0.3435114503816794,-0.3435114503816794
5.43,0.08935546875,0.990234375,0.023193359375,-1.8091603053435115,-0.25190839694656486,-0.3435114503816794
5.44,0.08203125,0.9873046875,0.0302734375,-1.816793893129771,-0.1450381679389313,-0.31297709923664124
5.45,0.088134765625,0.992431640625,0.0224609375,-1.7938931297709924,-0.1450381679389313,-0.4351145038167939
5.46,0.0869140625,0.99462890625,0.044921875,-1.717557251908397,-0.16030534351145037,-0.32061068702290074
5.47,0.084716796875,0.98779296875,0.026611328125,-1.7557251908396947,-0.25190839694656486,-0.3511450381679389
5.48,0.091064453125,0.9912109375,0.023193359375,-1.6488549618320612,1.916030534351145,-0.3053435114503817
5.49,0.08544921875,0.990478515625,0.021484375,-1.6106870229007633,-0.19083969465648856,-0.45038167938931295
5.5,0.087646484375,0.99560546875,0.023193359375,-1.8091603053435115,-0.31297709923664124,-0.31297709923664124
5.51,0.08984375,0.9931640625,0.0234375,-1.7328244274809161,-0.3282442748091603,-0.3816793893129771
5.52,0.093505859375,0.98779296875,0.020263671875,-1.5877862595419847,-0.2595419847328244,-0.3282442748091603
5.53,0.080810546875,0.99169921875,0.028076171875,-1.633587786259542,-0.25190839694656486,-0.5419847328244275
5.54,0.091552734375,0.992919921875,0.029541015625,-1.6793893129770991,-0.20610687022900764,-0.4351145038167939
5.55,0.0908203125,0.990234375,0.036865234375,-1.6106870229007633,-0.3511450381679389,-0.2595419847328244
5.56,0.088623046875,0.98876953125,0.026123046875,-1.5114503816793894,-0.1984732824427481,-0.2824427480916031
5.57,0.085693359375,0.9921875,0.02587890625,-1.534351145038168,-0.17557251908396945,-0.366412213740458
5.58,0.089111328125,0.99169921875,0.025634765625,-1.8931297709923665,-0.20610687022900764,-0.12213740458015267
5.59,0.093994140625,0.99169921875,0.0185546875,-1.6412213740458015,-0.22900763358778625,-0.4122137404580153
5.6,0.0869140625,0.99365234375,0.024169921875,-1.8015267175572518,-0.33587786259541985,-0.12213740458015267
5.61,0.09130859375,0.985107421875,0.0185546875,-1.7633587786259541,-0.26717557251908397,-0.48091603053435117
5.62,0.09228515625,0.9970703125,0.02880859375,-1.7938931297709924,-0.11450381679389313,-0.32061068702290074
5.63,0.08837890625,0.995849609375,0.016357421875,-1.6259541984732824,-0.13740458015267176,-0.17557251908396945
5.64,0.08203125,0.99169921875,0.02294921875,-1.816793893129771,-0.24427480916030533,-0.4122137404580153
5.65,0.087646484375,0.98876953125,0.021240234375,-1.6717557251908397,-0.21374045801526717,-0.3511450381679389
5.66,0.081787109375,0.988037109375,0.0244140625,-1.5877862595419847,-0.16793893129770993,-0.4198473282442748
5.67,0.08642578125,0.98876953125,0.0224609375,-1.8778625954198473,-0.2595419847328244,-0.2824427480916031
5.68,0.08984375,0.996337890625,0.02490234375,-1.633587786259542,-0.1297709923664122,-0.2824427480916031
5.69,0.087646484375,0.990966796875,0.0322265625,-1.5572519083969465,-0.061068702290076333,-0.3282442748091603
5.7,0.08935546875,0.9873046875,0.029296875,-1.702290076335878,-0.16793893129770993,-0.31297709923664124
5.71,0.08251953125,0.991943359375,0.028076171875,-1.6106870229007633,-0.19083969465648856,-0.5190839694656488
5.72,0.082763671875,0.99072265625,0.024169921875,-1.7404580152671756,-0.2366412213740458,-0.3435114503816794
5.73,0.0859375,0.992919921875,0.0283203125,-1.5801526717557253,-0.13740458015267176,-0.5114503816793893
5.74,0.086669921875,0.98828125,0.027587890625,-1.786259541984733,1.9236641221374047,-0.1984732824427481
5.75,0.0869140625,0.9912109375,0.028564453125,-1.618320610687023,-0.1984732824427481,-0.48091603053435117
5.76,0.089111328125,0.994384765625,0.027587890625,-1.6870229007633588,-0.3282442748091603,-0.26717557251908397
5.77,0.090576171875,0.99072265625,0.026123046875,-1.7404580152671756,-0.19083969465648856,-0.3053435114503817
5.78,0.089599609375,0.993896484375,0.0244140625,-1.6946564885496183,-0.13740458015267176,-0.3893129770992366
5.79,0.08935546875,0.99267578125,0.03076171875,-1.6488549618320612,-0.09923664122137404,-0.3282442748091603
5.8,0.08251953125,0.9912109375,0.0185546875,-1.5877862595419847,-0.40458015267175573,-0.3893129770992366
5.81,0.092529296875,0.994140625,0.01953125,-1.786259541984733,-0.13740458015267176,-0.4122137404580153
5.82,0.087646484375,0.993896484375,0.02001953125,-1.6793893129770991,-0.26717557251908397,-0.22900763358778625
5.83,0.086181640625,0.991943359375,0.022705078125,-1.5419847328244274,-0.20610687022900764,-0.3816793893129771
5.84,0.083251953125,0.991455078125,0.0205078125,-1.7099236641221374,-0.17557251908396945,-0.32061068702290074
5.85,0.080810546875,0.990966796875,0.031494140625,-1.6030534351145038,-0.16793893129770993,-0.366412213740458
5.86,0.09228515625,0.98681640625,0.00390625,-1.4885496183206106,-1.8702290076335877,-0.3893129770992366
5.87,0.086181640625,0.990966796875,0.02099609375,-1.717557251908397,-0.19083969465648856,-0.3969465648854962
5.88,0.085693359375,0.991455078125,0.022216796875,-1.5877862595419847,-0.22900763358778625,-0.32061068702290074
5.89,0.0859375,0.996826171875,0.02783203125,-1.534351145038168,-0.07633587786259542,-0.48091603053435117
5.9,0.0859375,0.989990234375,0.0234375,-1.748091603053435,-0.26717557251908397,-0.13740458015267176
5.91,0.09912109375,0.989013671875,0.020751953125,-1.748091603053435,-0.24427480916030533,-0.3969465648854962
5.92,0.085693359375,0.990478515625,0.02001953125,-1.6946564885496183,-0.21374045801526717,-0.33587786259541985
5.93,0.0810546875,0.990478515625,0.020751953125,-1.4427480916030535,-0.4198473282442748,-0.4122137404580153
5.94,0.08447265625,0.9931640625,0.026123046875,-1.633587786259542,-0.26717557251908397,-0.4580152671755725
5.95,0.085693359375,0.992919921875,0.017578125,-1.633587786259542,-0.2748091603053435,-0.37404580152671757
5.96,0.090087890625,0.98828125,0.025146484375,-1.549618320610687,-0.08396946564885496,-0.46564885496183206
5.97,0.08984375,0.99072265625,0.028564453125,-1.6030534351145038,-0.2366412213740458,-0.3053435114503817
5.98,0.089599609375,0.98681640625,0.023681640625,-1.6870229007633588,-0.1984732824427481,-0.44274809160305345
5.99,0.08984375,0.9853515625,0.023193359375,-1.6793893129770991,-0.3511450381679389,-0.31297709923664124
6.0,0.089111328125,0.9970703125,0.029052734375,-1.6946564885496183,-0.24427480916030533,-0.3893129770992366
6.01,0.087890625,0.994140625,0.0205078125,-1.7251908396946565,-0.17557251908396945,-0.3511450381679389
6.02,0.08447265625,0.99267578125,0.04150390625,-1.5801526717557253,-0.3435114503816794,-0.37404580152671757
6.03,0.0869140625,0.9931640625,0.01708984375,-1.6259541984732824,-0.25190839694656486,-0.35877862595419846
6.04,0.086669921875,0.989990234375,0.02099609375,-1.6412213740458015,-0.12213740458015267,-0.3053435114503817
6.05,0.0849609375,0.994384765625,0.015380859375,-1.7709923664122138,-0.22900763358778625,-0.2748091603053435
6.06,0.087158203125,0.98779296875,0.023681640625,-1.7404580152671756,-0.10687022900763359,-0.4351145038167939
6.07,0.081298828125,0.995361328125,0.01513671875,-1.5725190839694656,-0.366412213740458,-0.22900763358778625
6.08,0.085693359375,0.9912109375,0.021484375,-1.7786259541984732,-0.1984732824427481,-0.2595419847328244
6.09,0.08740234375,0.995361328125,0.020263671875,-1.7099236641221374,-0.22900763358778625,-0.4351145038167939
6.1,0.087158203125,0.990966796875,0.023681640625,-1.633587786259542,-0.17557251908396945,-0.37404580152671757
6.11,0.091796875,0.9912109375,0.02783203125,-1.8778625954198473,-0.35877862595419846,-0.32061068702290074
6.12,0.085693359375,0.988525390625,0.019775390625,-1.7328244274809161,-0.22137404580152673,-0.3053435114503817
6.13,0.08740234375,0.99365234375,0.02734375,-1.6564885496183206,-0.17557251908396945,-0.3435114503816794
6.14,0.08740234375,0.98828125,0.025146484375,-1.618320610687023,-0.10687022900763359,-0.3511450381679389
6.15,0.082275390625,0.994384765625,0.0224609375,-1.6488549618320612,-0.13740458015267176,-0.29770992366412213
6.16,0.082763671875,0.995361328125,0.01611328125,-1.7328244274809161,-0.3969465648854962,-0.366412213740458
6.17,0.08544921875,0.9970703125,0.023193359375,-1.6946564885496183,-0.25190839694656486,-0.48091603053435117
6.18,0.083984375,0.995849609375,0.017822265625,-1.6412213740458015,-0.20610687022900764,-0.45038167938931295
6.19,0.08544921875,0.994140625,0.024658203125,-1.5877862595419847,-0.26717557251908397,-0.3435114503816794
6.2,0.092041015625,0.986572265625,0.023193359375,-1.717557251908397,-0.2824427480916031,-0.44274809160305345
6.21,0.0888671875,0.99169921875,0.02392578125,-1.6870229007633588,-0.061068702290076333,-0.2900763358778626
6.22,0.07958984375,0.9853515625,0.02490234375,-1.8778625954198473,-0.21374045801526717,-0.31297709923664124
6.23,0.0869140625,0.99169921875,0.02880859375,-1.7251908396946565,-0.22137404580152673,-0.2824427480916031
6.24,0.0859375,0.98681640625,0.029052734375,-1.5725190839694656,-0.2595419847328244,-0.3511450381679389
6.25,0.09521484375,0.985595703125,0.0263671875,-1.6641221374045803,-0.09923664122137404,-0.366412213740458
6.26,0.08984375,0.989013671875,0.023193359375,-1.6412213740458015,-0.22137404580152673,-0.26717557251908397
6.27,0.081298828125,0.990478515625,0.02001953125,-1.618320610687023,-0.16030534351145037,-0.3969465648854962
6.28,0.08642578125,0.992919921875,0.018798828125,-1.7709923664122138,-0.26717557251908397,-0.4351145038167939
6.29,0.08935546875,0.9873046875,0.025390625,-1.7709923664122138,-0.37404580152671757,-0.40458015267175573
6.3,0.090087890625,0.989013671875,0.0205078125,-1.6412213740458015,-0.12213740458015267,-0.2900763358778626
6.31,0.085205078125,0.992919921875,0.019775390625,-1.7251908396946565,-0.3511450381679389,-0.3816793893129771
6.32,0.086181640625,0.992919921875,0.0244140625,-1.6488549618320612,-0.3435114503816794,-0.366412213740458
6.33,0.084716796875,0.988525390625,0.028076171875,-1.6564885496183206,-0.21374045801526717,-0.2595419847328244
6.34,0.079345703125,0.9912109375,0.028076171875,-1.5114503816793894,-0.26717557251908397,-0.3969465648854962
6.35,0.088134765625,0.992431640625,0.02880859375,-1.5267175572519085,-0.07633587786259542,-0.1984732824427481
6.36,0.08349609375,0.997314453125,0.019775390625,-1.5419847328244274,-0.2366412213740458,-0.17557251908396945
6.37,0.091064453125,0.98828125,0.019287109375,-1.717557251908397,-0.20610687022900764,-0.37404580152671757
6.38,0.0888671875,0.992431640625,0.027587890625,-1.7709923664122138,-0.22900763358778625,-0.2748091603053435
6.39,0.08984375,0.990966796875,0.023193359375,-1.7633587786259541,-0.1450381679389313,-0.4198473282442748
6.4,0.087158203125,0.994873046875,0.020751953125,-1.549618320610687,-0.2824427480916031,-0.2366412213740458
6.41,0.0830078125,0.990478515625,0.02880859375,-1.6870229007633588,-0.16030534351145037,-0.3816793893129771
6.42,0.08447265625,0.994873046875,0.026611328125,-1.900763358778626,-0.25190839694656486,-0.29770992366412213
6.43,0.088623046875,0.99267578125,0.0244140625,-1.7557251908396947,-0.04580152671755725,-0.366412213740458
6.44,0.09375,0.99267578125,0.02197265625,-1.6870229007633588,-0.3053435114503817,-0.2900763358778626
6.45,0.085693359375,0.993896484375,0.027099609375,-1.6259541984732824,-1.916030534351145,-0.35877862595419846
6.46,0.08056640625,0.990966796875,0.020263671875,-1.6030534351145038,-0.06870229007633588,-0.4961832061068702
6.47,0.08935546875,0.98876953125,0.01318359375,-1.6412213740458015,-0.1450381679389313,-0.44274809160305345
6.48,0.08837890625,0.98828125,0.0234375,-1.7404580152671756,-0.35877862595419846,-0.45038167938931295
6.49,0.091064453125,0.9951171875,0.022705078125,-1.7404580152671756,-0.21374045801526717,-0.3282442748091603
6.5,0.09033203125,0.98779296875,0.020751953125,-1.7709923664122138,-0.3053435114503817,-0.6106870229007634
6.51,0.087158203125,0.991943359375,0.042236328125,-1.7709923664122138,-0.3511450381679389,-0.44274809160305345
6.52,0.08642578125,0.985107421875,0.02001953125,-1.7099236641221374,-0.33587786259541985,-0.26717557251908397
6.53,0.08642578125,0.996826171875,0.02001953125,-1.6946564885496183,-0.22137404580152673,-0.26717557251908397
6.54,0.078857421875,0.98583984375,0.028076171875,-1.534351145038168,-0.20610687022900764,-0.25190839694656486
6.55,0.081298828125,0.994140625,0.019287109375,-1.6564885496183206,-0.24427480916030533,-0.4198473282442748
6.56,0.086181640625,0.99560546875,0.0302734375,-1.6717557251908397,-0.16030534351145037,-0.2748091603053435
6.57,0.090576171875,0.992919921875,0.026123046875,-1.6870229007633588,-0.22900763358778625,-0.3511450381679389
6.58,0.08642578125,0.996337890625,0.0205078125,-1.6641221374045803,-0.33587786259541985,-0.366412213740458
6.59,0.0869140625,0.996337890625,0.025390625,-1.7251908396946565,-0.22900763358778625,-0.3816793893129771
6.6,0.083740234375,0.9912109375,0.0263671875,-1.7328244274809161,0.015267175572519083,-0.44274809160305345
6.61,0.0908203125,0.9931640625,0.0205078125,-1.7709923664122138,-0.1984732824427481,-0.48091603053435117
6.62,0.09033203125,0.9892578125,0.03271484375,-1.7557251908396947,-0.11450381679389313,-0.5190839694656488
6.63,0.087646484375,0.98681640625,0.02197265625,-1.7557251908396947,-0.366412213740458,-0.22900763358778625
6.64,0.0849609375,0.989501953125,0.024658203125,-1.8625954198473282,-0.1984732824427481,-0.44274809160305345
6.65,0.07958984375,0.993896484375,0.023681640625,-1.6564885496183206,-0.22137404580152673,-0.4198473282442748
6.66,0.0908203125,0.98876953125,0.03076171875,-1.7328244274809161,-0.16030534351145037,-0.33587786259541985
6.67,0.084716796875,0.986572265625,0.024658203125,-1.6564885496183206,-0.19083969465648856,-0.21374045801526717
6.68,0.091552734375,0.99609375,0.016845703125,-1.748091603053435,-0.25190839694656486,-0.4580152671755725
6.69,0.08642578125,0.996826171875,0.021240234375,-1.6870229007633588,-0.31297709923664124,-0.2900763358778626
6.7,0.08740234375,0.98486328125,0.024658203125,-1.6412213740458015,-0.21374045801526717,-0.4198473282442748
6.71,0.0859375,0.996337890625,0.0224609375,-1.9541984732824427,-0.2900763358778626,-0.32061068702290074
6.72,0.083984375,0.9892578125,0.028564453125,-1.6870229007633588,-0.13740458015267176,-0.2900763358778626
6.73,0.088134765625,0.99755859375,0.02392578125,-1.7557251908396947,-0.2824427480916031,-0.3511450381679389
6.74,0.080322265625,0.991943359375,0.024658203125,-1.702290076335878,-1.9083969465648856,-0.29770992366412213
6.75,0.0908203125,0.991455078125,0.023681640625,-1.5725190839694656,-0.0916030534351145,-0.24427480916030533
6.76,0.08837890625,0.997802734375,0.030029296875,-1.7557251908396947,-0.1984732824427481,-0.4732824427480916
6.77,0.08935546875,0.9912109375,0.02685546875,-1.4351145038167938,-0.04580152671755725,-0.37404580152671757
6.78,0.09033203125,0.9921875,0.019287109375,-1.6259541984732824,-0.29770992366412213,-0.26717557251908397
6.79,0.08740234375,0.996826171875,0.017822265625,-1.83206106870229,-0.09923664122137404,-0.4122137404580153
6.8,0.085693359375,0.989501953125,0.02978515625,-1.6564885496183206,-0.24427480916030533,-0.3282442748091603
6.81,0.080810546875,0.99267578125,0.01806640625,-1.7633587786259541,-1.6641221374045803,1.0763358778625953
6.82,0.090087890625,0.896728515625,0.064697265625,-0.6564885496183206,-3.435114503816794,-1.7786259541984732
6.83,0.05517578125,0.8134765625,-0.009765625,-2.427480916030534,-1.8473282442748091,0.10687022900763359
6.84,-0.13134765625,1.072265625,0.037841796875,-0.7480916030534351,0.3053435114503817,-2.4580152671755724
6.85,0.23876953125,0.99169921875,0.002685546875,-1.8396946564885497,-1.1603053435114503,0.8396946564885496
6.86,-0.004150390625,1.04541015625,0.030517578125,-1.381679389312977,0.366412213740458,-0.6259541984732825
6.87,0.0693359375,0.914794921875,0.0361328125,-1.83206106870229,-0.8320610687022901,-0.6412213740458015
6.88,0.11962890625,1.004150390625,0.037353515625,-1.1755725190839694,-0.3969465648854962,-0.3969465648854962
6.89,0.05712890625,0.9833984375,-0.001953125,-1.9312977099236641,-0.33587786259541985,-0.4122137404580153
6.9,0.092041015625,0.974853515625,0.050048828125,-1.7633587786259541,-0.1297709923664122,-0.37404580152671757
6.91,0.104736328125,0.984619140625,0.023193359375,-1.3435114503816794,-0.21374045801526717,-0.22900763358778625
6.92,0.09716796875,0.987548828125,0.012451171875,-1.8625954198473282,-0.25190839694656486,-0.061068702290076333
6.93,0.07666015625,0.97900390625,0.020263671875,-1.5801526717557253,-0.22900763358778625,-0.33587786259541985
6.94,0.091796875,0.9775390625,0.0224609375,-1.6564885496183206,-0.45038167938931295,-0.29770992366412213
6.95,0.08056640625,0.986328125,0.025146484375,-1.6870229007633588,-0.29770992366412213,-0.31297709923664124
6.96,0.088623046875,0.9931640625,0.03125,-1.7633587786259541,-0.26717557251908397,-0.2595419847328244
6.97,0.092041015625,0.9892578125,0.025390625,-1.6488549618320612,-0.32061068702290074,-0.3511450381679389
6.98,0.0927734375,0.98876953125,0.02880859375,-1.9083969465648856,-0.3282442748091603,-0.4198473282442748
6.99,0.084228515625,0.986083984375,0.0244140625,-1.6793893129770991,-0.12213740458015267,-0.26717557251908397
7.0,0.078369140625,0.99462890625,0.029541015625,-1.748091603053435,-0.08396946564885496,-0.3893129770992366
7.01,0.08984375,0.9912109375,0.028564453125,-1.5419847328244274,-0.20610687022900764,-0.32061068702290074
7.02,0.084716796875,0.993896484375,0.019287109375,-1.6717557251908397,-0.2366412213740458,-0.19083969465648856
7.03,0.0810546875,0.998779296875,0.023681640625,-1.748091603053435,-0.4580152671755725,-0.37404580152671757
7.04,0.090576171875,0.9921875,0.023193359375,-1.7251908396946565,-0.3816793893129771,-0.2366412213740458
7.05,0.08349609375,0.992431640625,0.022216796875,-1.5572519083969465,-0.3435114503816794,-0.33587786259541985
7.06,0.08935546875,0.998046875,0.021728515625,-1.7404580152671756,-0.25190839694656486,-0.3893129770992366
7.07,0.0869140625,0.990478515625,0.0302734375,-1.549618320610687,-0.20610687022900764,-0.3053435114503817
7.08,0.087890625,0.993896484375,0.01904296875,-1.8778625954198473,0.0,-0.21374045801526717
7.09,0.080078125,0.993896484375,0.019775390625,-1.8091603053435115,-0.11450381679389313,-0.33587786259541985
7.1,0.09619140625,0.993896484375,0.02978515625,-1.6030534351145038,-0.22137404580152673,-0.45038167938931295
7.11,0.08935546875,0.988037109375,0.02978515625,-1.6030534351145038,-0.16793893129770993,-0.3893129770992366
7.12,0.087890625,0.9931640625,0.02587890625,-1.702290076335878,-0.3969465648854962,-0.21374045801526717
7.13,0.08837890625,0.990234375,0.030029296875,-1.4580152671755726,-0.29770992366412213,-0.45038167938931295
7.14,0.07958984375,0.98779296875,0.026611328125,-1.618320610687023,-0.37404580152671757,-0.3893129770992366
7.15,0.08837890625,0.988037109375,0.0263671875,-1.6793893129770991,-0.16030534351145037,-0.29770992366412213
7.16,0.088623046875,0.991455078125,0.01904296875,-1.4885496183206106,0.04580152671755725,-0.37404580152671757
7.17,0.085205078125,0.992431640625,0.026611328125,-1.7328244274809161,-0.22900763358778625,-0.2900763358778626
7.18,0.082763671875,0.998779296875,0.01806640625,-1.4961832061068703,-0.12213740458015267,-0.46564885496183206
7.19,0.087646484375,0.990234375,0.008056640625,-1.6030534351145038,-0.2748091603053435,-0.3816793893129771
7.2,0.090087890625,0.99462890625,0.022705078125,-1.8091603053435115,-0.32061068702290074,-0.3511450381679389
7.21,0.08349609375,0.9912109375,0.01953125,-1.6564885496183206,-0.24427480916030533,-0.3816793893129771
7.22,0.081298828125,0.997314453125,0.023193359375,-1.5877862595419847,-0.29770992366412213,-0.3816793893129771
7.23,0.08837890625,0.98828125,0.030029296875,-1.618320610687023,-0.21374045801526717,-0.2748091603053435
7.24,0.083740234375,0.992431640625,0.03515625,-1.702290076335878,-0.12213740458015267,-0.26717557251908397
7.25,0.089599609375,0.99267578125,0.029296875,-1.5954198473282444,-0.1984732824427481,-0.32061068702290074
7.26,0.08984375,0.9921875,0.029052734375,-1.6641221374045803,-0.1297709923664122,-0.29770992366412213
7.27,0.094970703125,0.995361328125,0.016845703125,-1.8091603053435115,-0.2595419847328244,-0.22137404580152673
7.28,0.093505859375,0.9931640625,0.02099609375,-1.6564885496183206,-0.3053435114503817,-0.3969465648854962
7.29,0.08642578125,0.990234375,0.026611328125,-1.618320610687023,-1.9465648854961832,-0.22137404580152673
7.3,0.09033203125,0.989501953125,0.014404296875,-1.702290076335878,-0.19083969465648856,-0.33587786259541985
7.31,0.080810546875,0.998779296875,0.0283203125,-1.6793893129770991,-0.17557251908396945,-0.31297709923664124
7.32,0.088134765625,0.985107421875,0.01318359375,-1.6564885496183206,-0.08396946564885496,-0.26717557251908397
7.33,0.080078125,0.990966796875,0.030029296875,-1.633587786259542,-0.2748091603053435,-0.46564885496183206
7.34,0.087158203125,0.993896484375,0.029296875,-1.5877862595419847,-0.16793893129770993,-0.35877862595419846
7.35,0.082275390625,0.992919921875,0.023193359375,-1.748091603053435,-0.16793893129770993,-0.48854961832061067
7.36,0.0859375,0.99462890625,0.02978515625,-1.633587786259542,-0.10687022900763359,-0.2595419847328244
7.37,0.089599609375,0.99560546875,0.02001953125,-1.5801526717557253,-0.17557251908396945,-0.3282442748091603
7.38,0.088623046875,0.98486328125,0.0234375,-1.6717557251908397,-0.19083969465648856,-0.3893129770992366
7.39,0.09033203125,0.98779296875,0.024658203125,-1.5572519083969465,-0.21374045801526717,-0.3816793893129771
7.4,0.1083984375,0.991455078125,0.024658203125,-1.549618320610687,-0.183206106870229,-0.37404580152671757
7.41,0.08349609375,0.9990234375,0.02392578125,-1.7251908396946565,1.9083969465648856,-0.48091603053435117
7.42,0.09130859375,0.99853515625,0.0185546875,-1.7099236641221374,-0.29770992366412213,-0.2900763358778626
7.43,0.0859375,0.995361328125,0.018798828125,-1.6793893129770991,-0.33587786259541985,-0.31297709923664124
7.44,0.092041015625,0.9814453125,0.0263671875,-1.8015267175572518,-0.2366412213740458,-0.31297709923664124
7.45,0.083740234375,0.991455078125,0.0224609375,-1.6412213740458015,-0.2824427480916031,-0.40458015267175573
7.46,0.0927734375,0.98876953125,0.017822265625,-1.5114503816793894,-0.22137404580152673,-0.4122137404580153
7.47,0.090087890625,0.9814453125,0.0244140625,-1.8396946564885497,-0.19083969465648856,-0.48854961832061067
7.48,0.09130859375,0.989990234375,0.016845703125,-1.7251908396946565,-0.22137404580152673,-0.4732824427480916
7.49,0.09326171875,0.99169921875,0.02001953125,-1.6030534351145038,-0.16793893129770993,-0.33587786259541985
7.5,0.0859375,0.99169921875,0.02734375,-1.6946564885496183,-0.26717557251908397,-0.40458015267175573
7.51,0.091796875,0.994873046875,0.021484375,-1.4961832061068703,-0.16793893129770993,-0.5114503816793893
7.52,0.088623046875,0.984375,0.023193359375,-1.7328244274809161,-0.15267175572519084,-0.3893129770992366
7.53,0.086669921875,0.991455078125,0.029052734375,-1.5877862595419847,-0.09923664122137404,-0.31297709923664124
7.54,0.07421875,0.985595703125,0.0166015625,-1.5725190839694656,-0.37404580152671757,-0.3282442748091603
7.55,0.0830078125,0.987060546875,0.025146484375,-1.6870229007633588,-0.3282442748091603,-0.4580152671755725
7.56,0.091796875,0.998779296875,0.02978515625,-1.6717557251908397,-0.20610687022900764,-0.32061068702290074
7.57,0.085693359375,0.992919921875,0.02294921875,-1.717557251908397,-0.21374045801526717,-0.6030534351145038
7.58,0.089111328125,0.9931640625,0.02099609375,-1.6641221374045803,-0.17557251908396945,-0.4580152671755725
7.59,0.089599609375,0.999267578125,0.02294921875,-1.8625954198473282,-0.1450381679389313,-0.3282442748091603
7.6,0.08544921875,0.9892578125,0.022705078125,-1.8625954198473282,-0.22137404580152673,-0.4198473282442748
7.61,0.0908203125,0.989501953125,0.02392578125,-1.717557251908397,-0.07633587786259542,-0.2824427480916031
7.62,0.085693359375,0.992919921875,0.0263671875,-1.6030534351145038,-0.17557251908396945,-0.31297709923664124
7.63,0.089599609375,0.988525390625,0.01806640625,-1.7404580152671756,-0.10687022900763359,-0.19083969465648856
7.64,0.0888671875,0.992431640625,0.01806640625,-1.717557251908397,-0.1984732824427481,-0.42748091603053434
7.65,0.087890625,0.9853515625,0.019287109375,-1.618320610687023,-0.1450381679389313,-0.3893129770992366
7.66,0.087158203125,0.99462890625,0.021728515625,-1.6488549618320612,-0.37404580152671757,-0.4351145038167939
7.67,0.0859375,0.989013671875,0.02294921875,-1.633587786259542,-0.13740458015267176,-0.16030534351145037
7.68,0.0869140625,0.99365234375,0.01611328125,-1.7709923664122138,-0.37404580152671757,-0.45038167938931295
7.69,0.0859375,0.994140625,0.0244140625,-1.5801526717557253,-0.15267175572519084,-0.32061068702290074
7.7,0.078369140625,0.99267578125,0.023193359375,-1.7633587786259541,-0.1297709923664122,-0.4122137404580153
7.71,0.086669921875,0.990478515625,0.019775390625,-1.6259541984732824,-0.33587786259541985,-0.4122137404580153
7.72,0.08935546875,0.99267578125,0.023193359375,-1.549618320610687,-0.2900763358778626,-0.32061068702290074
7.73,0.086181640625,0.995361328125,0.017333984375,-1.633587786259542,-0.2595419847328244,-0.37404580152671757
7.74,0.08837890625,0.989501953125,0.022216796875,-1.6641221374045803,-0.25190839694656486,-0.3511450381679389
7.75,0.08544921875,0.991943359375,0.025634765625,-1.5572519083969465,-0.06870229007633588,-0.3435114503816794
7.76,0.087646484375,0.99169921875,0.02001953125,-1.549618320610687,-0.3435114503816794,-0.32061068702290074
7.77,0.0888671875,0.99609375,0.0283203125,-1.5572519083969465,-0.09923664122137404,-0.29770992366412213
7.78,0.10498046875,0.992431640625,0.029052734375,-1.6641221374045803,-0.16793893129770993,-0.4580152671755725
7.79,0.083740234375,0.98828125,0.0263671875,-1.6717557251908397,-0.16793893129770993,-0.3816793893129771
7.8,0.08837890625,0.992919921875,0.026123046875,-1.6259541984732824,-0.2366412213740458,-0.33587786259541985
7.81,0.084228515625,0.98828125,0.027099609375,-1.8015267175572518,-0.21374045801526717,-0.3053435114503817
7.82,0.08642578125,0.996826171875,0.016845703125,-1.6030534351145038,-0.29770992366412213,-0.366412213740458
7.83,0.086181640625,0.99658203125,0.015869140625,-1.5114503816793894,-0.2824427480916031,-0.3053435114503817
7.84,0.084228515625,0.98486328125,0.024658203125,-1.6259541984732824,0.03816793893129771,-0.549618320610687
7.85,0.08349609375,0.988525390625,0.035888671875,-1.5038167938931297,-0.22137404580152673,-0.45038167938931295
7.86,0.083740234375,0.9912109375,0.026611328125,-1.6793893129770991,-0.04580152671755725,-0.4580152671755725
7.87,0.083740234375,0.99072265625,0.028076171875,-1.7709923664122138,-0.16793893129770993,-0.3816793893129771
7.88,0.091552734375,0.99169921875,0.026611328125,-1.5114503816793894,-0.3969465648854962,-0.3893129770992366
7.89,0.08740234375,0.9931640625,0.027099609375,-1.6030534351145038,-0.2824427480916031,-0.3511450381679389
7.9,0.0869140625,0.989990234375,0.0263671875,-1.4427480916030535,-0.183206106870229,-0.3435114503816794
7.91,0.087158203125,0.99267578125,0.021240234375,-1.6793893129770991,-0.22900763358778625,-0.2900763358778626
7.92,0.08740234375,0.989501953125,0.022705078125,-1.5954198473282444,-0.1450381679389313,-0.46564885496183206
7.93,0.0859375,0.9912109375,0.02099609375,-1.633587786259542,-0.17557251908396945,-0.4732824427480916
7.94,0.08935546875,0.99462890625,0.029296875,-1.6412213740458015,-0.0916030534351145,-0.33587786259541985
7.95,0.087158203125,0.992919921875,0.027587890625,-1.748091603053435,-0.3816793893129771,-0.3816793893129771
7.96,0.0791015625,0.9921875,0.019775390625,-1.702290076335878,-0.2824427480916031,-0.5190839694656488
7.97,0.08447265625,0.9873046875,0.023193359375,-1.7404580152671756,-0.1297709923664122,-0.31297709923664124
7.98,0.090087890625,0.98828125,0.026123046875,-1.5114503816793894,-0.08396946564885496,-0.19083969465648856
7.99,0.085693359375,0.994384765625,0.02197265625,-1.7557251908396947,-0.06870229007633588,-0.2900763358778626
8.0,0.091552734375,0.991943359375,0.01806640625,-1.748091603053435,-0.3969465648854962,-0.25190839694656486
8.01,0.08837890625,0.997314453125,0.037109375,-1.4732824427480915,-0.22137404580152673,-0.2900763358778626
8.02,0.093505859375,0.9921875,0.019287109375,-1.83206106870229,-0.2824427480916031,-0.44274809160305345
8.03,0.09375,0.994384765625,0.02099609375,-1.702290076335878,-0.08396946564885496,-0.3282442748091603
8.04,0.08740234375,0.99072265625,0.029052734375,-1.6030534351145038,-0.183206106870229,-0.4961832061068702
8.05,0.090576171875,0.991455078125,0.031005859375,-1.5419847328244274,-0.26717557251908397,-0.44274809160305345
8.06,0.0859375,0.9912109375,0.022216796875,-1.702290076335878,-0.13740458015267176,-0.4122137404580153
8.07,0.0859375,0.99072265625,0.02294921875,-1.6641221374045803,-0.22900763358778625,-0.16793893129770993
8.08,0.086669921875,0.98876953125,0.0185546875,-1.5038167938931297,-0.2824427480916031,-0.33587786259541985
8.09,0.088134765625,0.993408203125,0.03076171875,-1.633587786259542,-0.22900763358778625,-0.37404580152671757
8.1,0.090087890625,0.994140625,0.029541015625,-1.6488549618320612,-0.29770992366412213,-0.3893129770992366
8.11,0.08544921875,0.99169921875,0.029296875,-2.0076335877862594,-0.07633587786259542,-0.16030534351145037
8.12,0.085205078125,0.99169921875,0.041748046875,-1.5190839694656488,-0.2824427480916031,-0.26717557251908397
8.13,0.093505859375,0.993408203125,0.028564453125,-1.6106870229007633,-0.12213740458015267,-0.37404580152671757
8.14,0.086669921875,0.9921875,0.0029296875,-1.5801526717557253,-0.09923664122137404,-0.3435114503816794
8.15,0.080322265625,0.994384765625,0.029052734375,-1.633587786259542,-0.1984732824427481,-0.37404580152671757
8.16,0.090576171875,0.9921875,0.011474609375,-1.6946564885496183,-0.33587786259541985,-0.48854961832061067
8.17,0.0869140625,0.994873046875,0.024658203125,-1.8702290076335877,-0.1984732824427481,-0.42748091603053434
8.18,0.085205078125,0.988525390625,0.019775390625,-1.7786259541984732,-0.35877862595419846,-0.22900763358778625
8.19,0.090576171875,0.9873046875,0.021484375,-1.6793893129770991,-0.022900763358778626,-0.366412213740458
8.2,0.086181640625,0.991943359375,0.0234375,-1.5572519083969465,-0.13740458015267176,-0.3816793893129771
8.21,0.090576171875,0.99560546875,0.023193359375,-1.7251908396946565,-0.29770992366412213,-0.2900763358778626
8.22,0.088134765625,0.986083984375,0.02978515625,-1.6412213740458015,-0.2824427480916031,-0.4732824427480916
8.23,0.085205078125,0.9912109375,0.03271484375,-1.6106870229007633,-0.030534351145038167,-0.3511450381679389
8.24,0.0849609375,0.993408203125,0.038818359375,-1.5648854961832062,-0.0916030534351145,-0.35877862595419846
8.25,0.0830078125,0.992919921875,0.02685546875,-1.6793893129770991,-0.08396946564885496,-0.3816793893129771
8.26,0.087646484375,0.98828125,0.021240234375,-1.8015267175572518,-0.17557251908396945,-0.3893129770992366
8.27,0.080322265625,0.990478515625,0.019287109375,-1.702290076335878,-0.06870229007633588,-0.4122137404580153
8.28,0.086181640625,0.990966796875,0.017822265625,-1.633587786259542,-0.33587786259541985,-0.3282442748091603
8.29,0.088134765625,0.9951171875,0.021240234375,-1.6106870229007633,-0.24427480916030533,-0.29770992366412213
8.3,0.092041015625,0.9921875,0.014404296875,-1.5725190839694656,-0.25190839694656486,-0.32061068702290074
8.31,0.091064453125,0.989990234375,0.015380859375,-1.6259541984732824,-0.16793893129770993,-0.37404580152671757
8.32,0.0908203125,0.9892578125,0.0234375,-1.6793893129770991,-0.21374045801526717,-0.3053435114503817
8.33,0.08935546875,0.98828125,0.0283203125,-1.7938931297709924,-0.24427480916030533,-0.366412213740458
8.34,0.078857421875,0.994140625,0.032958984375,-1.6564885496183206,-0.11450381679389313,-0.3282442748091603
8.35,0.08544921875,0.990234375,0.03271484375,-1.5954198473282444,-0.19083969465648856,-0.3511450381679389
8.36,0.07958984375,0.994384765625,0.02783203125,-1.6030534351145038,-0.33587786259541985,-0.2595419847328244
8.37,0.068115234375,0.98876953125,0.024658203125,-1.748091603053435,-0.21374045801526717,-0.3511450381679389
8.38,0.08740234375,0.99072265625,0.01806640625,-1.5725190839694656,-0.03816793893129771,-0.35877862595419846
8.39,0.083740234375,0.984130859375,0.02685546875,-1.6106870229007633,-0.13740458015267176,-0.5725190839694656
8.4,0.088134765625,0.992431640625,0.01708984375,-1.7633587786259541,-0.33587786259541985,-0.4351145038167939
8.41,0.088623046875,0.995849609375,0.01708984375,-1.549618320610687,-0.37404580152671757,-0.4351145038167939
8.42,0.079345703125,0.99658203125,0.0185546875,-1.7251908396946565,-0.2824427480916031,-0.4198473282442748
8.43,0.09228515625,0.99267578125,0.02587890625,-1.748091603053435,-0.3053435114503817,-0.48854961832061067
8.44,0.08154296875,0.99560546875,0.023681640625,-1.6793893129770991,-0.40458015267175573,-0.4580152671755725
8.45,0.085205078125,0.993408203125,0.007080078125,-1.900763358778626,-0.31297709923664124,-0.2748091603053435
8.46,0.0908203125,0.98974609375,0.0263671875,-1.6488549618320612,-0.12213740458015267,-0.2900763358778626
8.47,0.082275390625,0.990966796875,0.03125,-1.5572519083969465,-0.20610687022900764,-0.29770992366412213
8.48,0.08203125,0.99169921875,0.023681640625,-1.4885496183206106,-0.183206106870229,-0.33587786259541985
8.49,0.0859375,0.99853515625,0.0234375,-1.465648854961832,-0.2366412213740458,-0.46564885496183206
8.5,0.083740234375,0.9951171875,0.027099609375,-1.7557251908396947,-0.22900763358778625,-0.2824427480916031
8.51,0.0869140625,0.994140625,0.01904296875,-1.5267175572519085,-0.24427480916030533,-0.4198473282442748
8.52,0.08984375,0.998046875,0.02099609375,-1.6717557251908397,-0.2748091603053435,-0.3969465648854962
8.53,0.0927734375,0.991455078125,0.0234375,-1.9389312977099236,-0.2366412213740458,-0.3969465648854962
8.54,0.08349609375,0.992919921875,0.017578125,-1.816793893129771,-0.2595419847328244,-0.37404580152671757
8.55,0.087646484375,0.985107421875,0.023681640625,-1.5725190839694656,-0.22137404580152673,-0.3511450381679389
8.56,0.09619140625,0.991943359375,0.019775390625,-1.6793893129770991,-0.3435114503816794,-0.42748091603053434
8.57,0.089599609375,0.9921875,0.02294921875,-1.7633587786259541,-0.20610687022900764,-0.32061068702290074
8.58,0.085205078125,0.991455078125,0.035400390625,-1.6106870229007633,-0.3511450381679389,-0.4198473282442748
8.59,0.08447265625,1.0078125,0.019775390625,-1.83206106870229,-0.183206106870229,-0.3282442748091603
8.6,0.083740234375,0.992919921875,0.02001953125,-1.7251908396946565,0.0,-0.3816793893129771
8.61,0.08837890625,0.991455078125,0.024658203125,-1.4580152671755726,-0.2366412213740458,-0.40458015267175573
8.62,0.085205078125,0.993896484375,0.029296875,-1.4809160305343512,-0.25190839694656486,-0.42748091603053434
8.63,0.0849609375,0.99658203125,0.01904296875,-1.5572519083969465,-0.22137404580152673,-0.35877862595419846
8.64,0.08935546875,0.997314453125,0.018798828125,-1.618320610687023,-0.4122137404580153,-0.4580152671755725
8.65,0.08837890625,0.990234375,0.032958984375,-1.534351145038168,-0.05343511450381679,-0.37404580152671757
8.66,0.08544921875,0.9970703125,0.021240234375,-1.6641221374045803,-0.22137404580152673,-0.44274809160305345
8.67,0.091552734375,0.9931640625,0.02099609375,-1.5419847328244274,-0.29770992366412213,-0.3435114503816794
8.68,0.088134765625,0.9921875,0.020751953125,-1.6946564885496183,-0.31297709923664124,-0.29770992366412213
8.69,0.087646484375,0.989501953125,0.026123046875,-1.83206106870229,-0.2748091603053435,-0.2748091603053435
8.7,0.0830078125,0.994140625,0.0302734375,-1.6946564885496183,-0.3282442748091603,-0.35877862595419846
8.71,0.080322265625,0.993896484375,0.01611328125,-1.8702290076335877,-0.25190839694656486,-0.29770992366412213
8.72,0.087646484375,0.9951171875,0.030517578125,-1.5954198473282444,-0.3816793893129771,-0.3435114503816794
8.73,0.08349609375,0.9931640625,0.025146484375,-2.045801526717557,-0.26717557251908397,-0.4732824427480916
8.74,0.0869140625,0.993896484375,0.02783203125,-1.6946564885496183,-0.2900763358778626,-0.22900763358778625
8.75,0.084228515625,0.9892578125,0.03076171875,-1.5801526717557253,-0.20610687022900764,-0.3969465648854962
8.76,0.0869140625,0.99365234375,0.021240234375,-1.7404580152671756,-0.16793893129770993,-0.42748091603053434
8.77,0.08935546875,0.9912109375,0.022705078125,-1.8244274809160306,-0.17557251908396945,-0.46564885496183206
8.78,0.089599609375,0.99267578125,0.020751953125,-1.3969465648854962,-0.22900763358778625,-0.3893129770992366
8.79,0.0869140625,0.992919921875,0.0205078125,-1.6793893129770991,-0.06870229007633588,-0.22137404580152673
8.8,0.08740234375,0.991943359375,0.01220703125,-1.7251908396946565,-0.22137404580152673,-0.40458015267175573
8.81,0.092529296875,0.9921875,0.020751953125,-1.916030534351145,-0.2595419847328244,-0.44274809160305345
8.82,0.085205078125,0.9892578125,0.021484375,-1.6717557251908397,-0.40458015267175573,-0.45038167938931295
8.83,0.081787109375,0.99365234375,0.018798828125,-1.7251908396946565,-0.25190839694656486,-0.4198473282442748
8.84,0.086669921875,0.996826171875,0.02880859375,-1.5572519083969465,-0.1984732824427481,-0.35877862595419846
8.85,0.082275390625,0.989013671875,0.0166015625,-1.549618320610687,-0.12213740458015267,-0.2824427480916031
8.86,0.0830078125,0.98779296875,0.022216796875,-1.5877862595419847,-0.3511450381679389,-0.3282442748091603
8.87,0.0869140625,0.99072265625,0.019287109375,-1.7099236641221374,-0.183206106870229,-0.3816793893129771
8.88,0.083251953125,0.99365234375,0.02490234375,-1.7404580152671756,-0.11450381679389313,-0.4198473282442748
8.89,0.083251953125,0.995361328125,0.017822265625,-1.6717557251908397,-0.05343511450381679,-0.3053435114503817
8.9,0.086181640625,0.98681640625,0.027587890625,-1.5267175572519085,-0.2366412213740458,-0.29770992366412213
8.91,0.08203125,0.993408203125,0.019775390625,-1.618320610687023,-0.061068702290076333,-0.2824427480916031
8.92,0.084716796875,0.992919921875,0.015625,-1.6641221374045803,-0.183206106870229,-0.3511450381679389
8.93,0.09130859375,0.9951171875,0.025634765625,-1.7938931297709924,-0.09923664122137404,-0.33587786259541985
8.94,0.087158203125,0.998046875,0.01806640625,-1.5725190839694656,-0.2366412213740458,-0.22900763358778625
8.95,0.08251953125,1.0,0.021728515625,-1.6106870229007633,-0.366412213740458,-0.3435114503816794
8.96,0.09375,0.994140625,0.0283203125,-1.6946564885496183,-0.35877862595419846,-0.29770992366412213
8.97,0.082275390625,0.991943359375,0.020751953125,-1.6793893129770991,-0.31297709923664124,-0.1984732824427481
8.98,0.084228515625,0.989990234375,0.02783203125,-1.6488549618320612,-0.29770992366412213,-0.4198473282442748
8.99,0.087158203125,0.9921875,0.0205078125,-1.4885496183206106,-0.4122137404580153,-0.3893129770992366
9.0,0.084716796875,0.99365234375,0.022705078125,-1.5267175572519085,-0.2824427480916031,-0.2595419847328244
9.01,0.08447265625,0.994140625,0.021240234375,-1.6030534351145038,-0.10687022900763359,-0.3511450381679389
9.02,0.087158203125,0.997314453125,0.015869140625,-1.6564885496183206,1.9083969465648856,-0.19083969465648856
9.03,0.0869140625,0.990478515625,0.023681640625,-1.534351145038168,-0.22137404580152673,-0.33587786259541985
9.04,0.088623046875,0.990478515625,0.017822265625,-1.5954198473282444,-0.21374045801526717,-0.3282442748091603
9.05,0.087890625,0.98974609375,0.031494140625,-1.6641221374045803,-0.2900763358778626,-0.44274809160305345
9.06,0.08740234375,0.990966796875,0.020751953125,-1.5419847328244274,-0.2824427480916031,-0.3816793893129771
9.07,0.0830078125,0.991943359375,0.032470703125,-1.6259541984732824,-0.17557251908396945,-0.4198473282442748
9.08,0.087890625,0.989990234375,0.020263671875,-1.7938931297709924,-0.35877862595419846,-0.4198473282442748
9.09,0.08837890625,0.970703125,0.0244140625,-1.6717557251908397,-0.061068702290076333,-0.3511450381679389
9.1,0.087890625,0.99462890625,0.033935546875,-1.5877862595419847,0.15267175572519084,-0.22137404580152673
9.11,0.090576171875,0.986083984375,0.025146484375,-1.786259541984733,-0.13740458015267176,-0.37404580152671757
9.12,0.08935546875,0.991455078125,0.013916015625,-1.5877862595419847,-0.16793893129770993,-0.31297709923664124
9.13,0.07958984375,0.990234375,0.02197265625,-1.6641221374045803,-0.33587786259541985,-0.33587786259541985
9.14,0.089111328125,0.99267578125,0.015869140625,-1.6641221374045803,-1.9465648854961832,-0.45038167938931295
9.15,0.085693359375,0.993896484375,0.017333984375,-1.8091603053435115,-0.21374045801526717,-0.35877862595419846
9.16,0.09326171875,0.9921875,0.016845703125,-1.5877862595419847,-0.21374045801526717,-0.4122137404580153
9.17,0.089111328125,1.008056640625,0.021484375,-1.7099236641221374,-0.1297709923664122,-0.549618320610687
9.18,0.10546875,0.991455078125,0.02001953125,-1.6564885496183206,-0.1984732824427481,-0.08396946564885496
9.19,0.087646484375,0.98876953125,0.02001953125,-3.854961832061069,-0.20610687022900764,-0.20610687022900764
9.2,0.088134765625,1.00537109375,0.019287109375,-1.5725190839694656,-0.1297709923664122,-0.3282442748091603
9.21,0.091064453125,1.0009765625,0.02587890625,-1.8854961832061068,-0.3282442748091603,-0.26717557251908397
9.22,0.093505859375,0.99267578125,0.02880859375,-1.8396946564885497,-0.29770992366412213,-0.44274809160305345
9.23,0.089599609375,0.999267578125,0.018798828125,-1.5267175572519085,-0.061068702290076333,-0.3511450381679389
9.24,0.089599609375,0.992919921875,0.027587890625,-1.916030534351145,-0.12213740458015267,-0.35877862595419846
9.25,0.09130859375,0.997802734375,0.0205078125,-1.6564885496183206,-0.17557251908396945,-0.3435114503816794
9.26,0.088134765625,0.986083984375,0.004150390625,-1.7328244274809161,-0.17557251908396945,-0.2366412213740458
9.27,0.087890625,0.9970703125,0.026611328125,-1.6412213740458015,-0.061068702290076333,-0.4198473282442748
9.28,0.091552734375,0.996337890625,0.02490234375,-1.702290076335878,-0.17557251908396945,-0.5114503816793893
9.29,0.091064453125,0.9833984375,0.026611328125,-1.6259541984732824,-0.16793893129770993,-0.2595419847328244
9.3,0.089111328125,0.993896484375,0.029052734375,-1.618320610687023,-0.19083969465648856,-0.32061068702290074
9.31,0.0888671875,0.98681640625,0.016845703125,-1.8396946564885497,-0.03816793893129771,-0.3893129770992366
9.32,0.09228515625,0.995849609375,0.017822265625,-1.6259541984732824,-0.2595419847328244,-0.2824427480916031
9.33,0.12548828125,1.03564453125,0.0185546875,-1.5114503816793894,-0.061068702290076333,-0.40458015267175573
9.34,0.10107421875,0.99951171875,0.005126953125,-0.015267175572519083,-0.2595419847328244,-0.16793893129770993
9.35,0.08349609375,0.9716796875,0.04736328125,-1.7786259541984732,-0.022900763358778626,-0.37404580152671757
9.36,0.068115234375,1.039306640625,0.02197265625,-1.0229007633587786,0.0916030534351145,-0.5877862595419847
9.37,0.09375,0.990966796875,0.02001953125,-2.4656488549618323,-0.3053435114503817,-0.22137404580152673
9.38,0.098876953125,0.998046875,0.0439453125,-1.0763358778625953,-0.29770992366412213,-0.26717557251908397
9.39,0.102294921875,0.99072265625,0.010986328125,-1.6641221374045803,-0.1450381679389313,-0.3816793893129771
9.4,0.080078125,0.9931640625,0.027099609375,-2.0,-0.366412213740458,-0.45038167938931295
9.41,0.087158203125,1.00146484375,0.045166015625,-1.3053435114503817,-0.22900763358778625,-0.22137404580152673
9.42,0.085693359375,0.98193359375,0.019287109375,-1.8015267175572518,-0.22137404580152673,-0.44274809160305345
9.43,0.092041015625,1.008056640625,0.0322265625,-1.3893129770992367,-0.13740458015267176,-0.3893129770992366
9.44,0.08251953125,0.97900390625,0.01708984375,-1.618320610687023,-0.21374045801526717,-0.2900763358778626
9.45,0.083740234375,0.985107421875,0.02490234375,-1.8396946564885497,-0.24427480916030533,-0.25190839694656486
9.46,0.08642578125,1.00244140625,0.021728515625,-1.4961832061068703,-0.16793893129770993,-0.44274809160305345
9.47,0.0849609375,0.98095703125,0.031005859375,-1.6641221374045803,-0.06870229007633588,-0.33587786259541985
9.48,0.091064453125,0.996337890625,0.027099609375,-1.4809160305343512,-0.2824427480916031,-0.3893129770992366
9.49,0.083740234375,0.989990234375,0.021728515625,-1.8473282442748091,-0.3435114503816794,-0.3435114503816794
9.5,0.093017578125,1.0,0.032958984375,-1.7251908396946565,-0.20610687022900764,-0.366412213740458
9.51,0.078125,0.983642578125,0.022705078125,-1.6946564885496183,-0.26717557251908397,-0.4580152671755725
9.52,0.083740234375,0.9931640625,0.032958984375,-1.4274809160305344,-0.1450381679389313,-0.46564885496183206
9.53,0.084716796875,1.0,0.032470703125,-1.6030534351145038,-0.29770992366412213,-0.42748091603053434
9.54,0.06640625,0.99072265625,0.02001953125,-1.7328244274809161,-0.25190839694656486,-0.48091603053435117
9.55,0.089599609375,0.99560546875,0.0322265625,-1.5801526717557253,-0.2824427480916031,-0.366412213740458
9.56,0.090576171875,0.98828125,0.026123046875,-1.7328244274809161,-0.16030534351145037,-0.3969465648854962
9.57,0.086181640625,0.990234375,0.0302734375,-1.9694656488549618,-0.25190839694656486,-0.3893129770992366
9.58,0.093994140625,0.99365234375,0.0263671875,-1.6259541984732824,-0.24427480916030533,-0.20610687022900764
9.59,0.090576171875,0.991943359375,0.02294921875,-1.6793893129770991,-0.24427480916030533,-0.3435114503816794
9.6,0.090576171875,0.998291015625,0.0322265625,-1.534351145038168,-0.1984732824427481,-0.2595419847328244
9.61,0.0810546875,0.9931640625,0.0244140625,-1.3969465648854962,-0.16793893129770993,-0.45038167938931295
9.62,0.083984375,0.993896484375,0.02001953125,-1.6030534351145038,-0.2900763358778626,-0.16030534351145037
9.63,0.08349609375,0.9931640625,0.01611328125,-1.7251908396946565,-0.35877862595419846,-0.4122137404580153
9.64,0.08251953125,0.9912109375,0.02001953125,-1.465648854961832,-0.29770992366412213,-0.4961832061068702
9.65,0.0810546875,0.99365234375,0.002685546875,-1.7709923664122138,-0.3282442748091603,-0.44274809160305345
9.66,0.086181640625,0.99072265625,0.02587890625,-1.6946564885496183,-0.21374045801526717,-0.3816793893129771
9.67,0.09912109375,0.984375,0.029296875,-1.6412213740458015,-0.16030534351145037,-0.3435114503816794
9.68,0.0859375,0.9912109375,0.02734375,-1.8473282442748091,-0.2595419847328244,-0.366412213740458
9.69,0.088134765625,0.9892578125,0.0361328125,-1.7633587786259541,-0.1297709923664122,-0.3053435114503817
9.7,0.081298828125,0.99609375,0.018798828125,-1.7938931297709924,-0.1297709923664122,-0.366412213740458
9.71,0.083740234375,0.99560546875,0.039306640625,-1.8244274809160306,-0.2366412213740458,-0.2748091603053435
9.72,0.0859375,0.9853515625,0.02880859375,-1.5801526717557253,-0.030534351145038167,-0.2824427480916031
9.73,0.087646484375,0.994140625,0.016357421875,-1.5419847328244274,-0.1450381679389313,-0.29770992366412213
9.74,0.08544921875,0.99365234375,0.028564453125,-1.6106870229007633,-0.10687022900763359,-0.2900763358778626
9.75,0.0908203125,0.991943359375,0.020751953125,-1.534351145038168,-0.2595419847328244,-0.2900763358778626
9.76,0.081298828125,0.998046875,0.01953125,-1.6870229007633588,-0.22137404580152673,-0.33587786259541985
9.77,0.088623046875,0.99755859375,0.028076171875,-1.5725190839694656,-0.22900763358778625,-0.2748091603053435
9.78,0.0869140625,0.998046875,0.013916015625,-1.6412213740458015,-0.33587786259541985,-0.3511450381679389
9.79,0.08935546875,0.994873046875,0.023681640625,-1.786259541984733,-0.3053435114503817,-0.22900763358778625
9.8,0.100830078125,0.99169921875,0.0244140625,-1.748091603053435,-0.20610687022900764,-0.3435114503816794
9.81,0.08740234375,0.99365234375,0.02587890625,-1.7328244274809161,-0.2748091603053435,-0.1984732824427481
9.82,0.086181640625,0.986572265625,0.0458984375,-1.618320610687023,-0.06870229007633588,-0.3511450381679389
9.83,0.091064453125,0.990966796875,0.02783203125,-1.702290076335878,-0.11450381679389313,-0.2595419847328244
9.84,0.08251953125,0.994140625,0.02978515625,-1.7709923664122138,-0.21374045801526717,-0.3893129770992366
9.85,0.08056640625,0.998046875,0.028564453125,-1.717557251908397,-0.030534351145038167,-0.366412213740458
9.86,0.0791015625,0.990478515625,0.022216796875,-1.5038167938931297,-0.17557251908396945,-0.35877862595419846
9.87,0.08642578125,0.99267578125,0.029052734375,-1.6106870229007633,-0.1450381679389313,-0.24427480916030533
9.88,0.08740234375,0.993408203125,0.026123046875,-1.5725190839694656,-0.21374045801526717,-0.40458015267175573
9.89,0.083984375,0.9931640625,0.019775390625,-1.6870229007633588,-0.17557251908396945,-0.26717557251908397
9.9,0.084228515625,0.993408203125,0.030029296875,-1.6717557251908397,-0.1984732824427481,-0.3435114503816794
9.91,0.080322265625,0.9892578125,0.01708984375,-1.7557251908396947,-0.3893129770992366,-0.3511450381679389
9.92,0.09130859375,0.9912109375,0.0166015625,-1.5648854961832062,-0.21374045801526717,-0.32061068702290074
9.93,0.088623046875,0.994384765625,0.018310546875,-1.6946564885496183,-0.2748091603053435,-0.11450381679389313
9.94,0.084716796875,0.9873046875,0.023193359375,-1.8473282442748091,-0.20610687022900764,-0.3282442748091603
9.95,0.08154296875,0.997314453125,0.020751953125,-1.7557251908396947,-0.20610687022900764,-0.3435114503816794
9.96,0.086669921875,0.994384765625,0.026611328125,-1.7328244274809161,-0.2366412213740458,-0.3969465648854962
9.97,0.076904296875,0.99072265625,0.021728515625,-1.6564885496183206,-0.183206106870229,-0.2900763358778626
9.98,0.08642578125,0.990966796875,0.02783203125,-1.4732824427480915,-0.13740458015267176,-0.40458015267175573
9.99,0.08642578125,0.990966796875,0.0205078125,-1.5038167938931297,0.06870229007633588,-0.22137404580152673
10.0,0.090576171875,0.99267578125,0.022705078125,-1.7328244274809161,-0.19083969465648856,-0.46564885496183206
10.01,0.090576171875,0.98828125,0.01708984375,-1.6259541984732824,-0.29770992366412213,-0.33587786259541985
10.02,0.089111328125,0.991943359375,0.008544921875,-1.6641221374045803,-0.35877862595419846,-0.3816793893129771
10.03,0.0888671875,0.9921875,0.011474609375,-1.633587786259542,-0.26717557251908397,-0.2748091603053435
10.04,0.08447265625,0.989501953125,0.0205078125,-1.6641221374045803,-0.4351145038167939,-0.3969465648854962
10.05,0.079833984375,0.994384765625,0.02001953125,-1.6488549618320612,-0.46564885496183206,-0.3969465648854962
10.06,0.084228515625,0.990478515625,0.029296875,-1.6717557251908397,-0.31297709923664124,-0.2595419847328244
10.07,0.082763671875,0.985107421875,0.03662109375,-1.748091603053435,-0.26717557251908397,-0.3282442748091603
10.08,0.0859375,0.99169921875,0.033203125,-1.6412213740458015,-0.1984732824427481,-0.3816793893129771
10.09,0.08642578125,0.992431640625,0.030517578125,-1.6259541984732824,-0.183206106870229,-0.45038167938931295
10.1,0.0927734375,0.990234375,0.025390625,-1.6106870229007633,1.9389312977099236,-0.35877862595419846
10.11,0.0869140625,0.99560546875,0.032470703125,-1.6717557251908397,-0.06870229007633588,-0.4198473282442748
10.12,0.087646484375,0.991943359375,0.01025390625,-1.5267175572519085,-0.06870229007633588,-0.44274809160305345
10.13,0.090576171875,0.991455078125,0.00634765625,-1.633587786259542,-0.12213740458015267,-0.4732824427480916
10.14,0.08984375,0.992919921875,0.002197265625,-1.6412213740458015,-0.1297709923664122,-0.22900763358778625
10.15,0.09423828125,0.99365234375,0.013916015625,-1.7633587786259541,-0.22900763358778625,-0.29770992366412213
10.16,0.09326171875,0.995361328125,0.012451171875,-1.8244274809160306,-0.3969465648854962,-0.22900763358778625
10.17,0.088134765625,0.99365234375,0.0205078125,-1.6488549618320612,-0.37404580152671757,-0.4351145038167939
10.18,0.084716796875,0.99609375,0.030029296875,-1.7633587786259541,-0.32061068702290074,-0.32061068702290074
10.19,0.0634765625,0.9931640625,0.03369140625,-1.6106870229007633,-0.21374045801526717,-0.2595419847328244
10.2,0.082763671875,0.995361328125,0.04638671875,-1.6564885496183206,-0.21374045801526717,-0.3511450381679389
10.21,0.08203125,0.993896484375,0.03271484375,-1.702290076335878,0.0,-0.5267175572519084
10.22,0.080322265625,0.99560546875,0.017578125,-1.618320610687023,-1.9389312977099236,-0.3816793893129771
10.23,0.0810546875,0.992431640625,0.027099609375,-1.4732824427480915,-0.0916030534351145,-0.42748091603053434
10.24,0.087646484375,0.991943359375,0.017578125,-1.5114503816793894,-0.183206106870229,-0.3893129770992366
10.25,0.091552734375,0.985107421875,0.021240234375,-1.7328244274809161,-0.030534351145038167,-0.46564885496183206
10.26,0.096435546875,0.98779296875,0.017333984375,-1.7099236641221374,-0.1450381679389313,-0.42748091603053434
10.27,0.095458984375,0.985595703125,0.016357421875,-1.7099236641221374,-0.24427480916030533,-0.33587786259541985
10.28,0.085693359375,0.992431640625,0.0,-1.7251908396946565,-0.32061068702290074,-0.366412213740458
10.29,0.0908203125,0.98583984375,0.0029296875,-1.633587786259542,-0.4351145038167939,-0.22900763358778625
10.3,0.088623046875,0.99072265625,0.017333984375,-1.7404580152671756,-0.3969465648854962,-0.183206106870229
10.31,0.086669921875,0.992919921875,0.021484375,-1.7328244274809161,-0.15267175572519084,-0.44274809160305345
10.32,0.083984375,0.991455078125,0.033447265625,-1.5801526717557253,-0.20610687022900764,-0.3511450381679389
10.33,0.08251953125,0.99560546875,0.03125,-1.6106870229007633,-0.17557251908396945,-0.3511450381679389
10.34,0.083251953125,0.990966796875,0.033203125,-1.6412213740458015,-0.1984732824427481,-0.2748091603053435
10.35,0.08203125,0.990966796875,0.02685546875,-1.5801526717557253,-0.07633587786259542,-0.4198473282442748
10.36,0.09228515625,0.99169921875,0.03662109375,-1.5648854961832062,-0.31297709923664124,-0.5038167938931297
10.37,0.09228515625,0.989501953125,0.02734375,-1.8091603053435115,-0.2366412213740458,-0.29770992366412213
10.38,0.091064453125,1.008056640625,0.02001953125,-1.4885496183206106,-0.3282442748091603,-0.3511450381679389
10.39,0.092041015625,0.989990234375,0.01904296875,-1.633587786259542,-0.29770992366412213,-0.4580152671755725
10.4,0.091064453125,0.991455078125,0.01708984375,-1.8244274809160306,-0.40458015267175573,-0.2824427480916031
10.41,0.0947265625,0.986572265625,0.010498046875,-1.7633587786259541,-0.06870229007633588,-0.4732824427480916
10.42,0.089599609375,0.99658203125,0.01611328125,-1.702290076335878,-0.48854961832061067,-0.32061068702290074
10.43,0.0888671875,0.992919921875,0.025634765625,-1.6870229007633588,-0.33587786259541985,-0.4122137404580153
10.44,0.067138671875,0.985107421875,0.021728515625,-1.6870229007633588,-0.183206106870229,-0.31297709923664124
10.45,0.08154296875,0.99169921875,0.02783203125,-1.6259541984732824,-0.2366412213740458,-0.32061068702290074
10.46,0.083251953125,0.993896484375,0.046142578125,-1.549618320610687,-0.3969465648854962,-0.2824427480916031
10.47,0.0859375,0.995361328125,0.027587890625,-1.6259541984732824,-0.10687022900763359,-0.2900763358778626
10.48,0.08349609375,0.993896484375,0.023681640625,-1.7099236641221374,-0.0916030534351145,-0.3893129770992366
10.49,0.087646484375,0.9921875,0.02734375,-1.4122137404580153,-0.3816793893129771,-0.4122137404580153
10.5,0.08154296875,0.9912109375,0.022216796875,-1.534351145038168,-0.24427480916030533,-0.48091603053435117
10.51,0.091552734375,0.996337890625,0.0185546875,-1.5038167938931297,-0.2900763358778626,-0.3435114503816794
10.52,0.091552734375,0.99169921875,0.002197265625,-1.5725190839694656,-0.16793893129770993,-0.3435114503816794
10.53,0.094970703125,0.987548828125,0.011962890625,-1.7251908396946565,-0.2748091603053435,-0.3893129770992366
10.54,0.08935546875,0.990234375,0.02490234375,-1.618320610687023,-0.22900763358778625,-0.2366412213740458
10.55,0.084716796875,0.994384765625,0.029052734375,-1.8091603053435115,-0.22900763358778625,-0.3893129770992366
10.56,0.082763671875,0.991943359375,0.0224609375,-1.5648854961832062,-0.22137404580152673,-0.2748091603053435
10.57,0.0791015625,0.984375,0.025146484375,-1.6793893129770991,-0.46564885496183206,-0.29770992366412213
10.58,0.081298828125,0.99560546875,0.03466796875,-1.7938931297709924,-0.24427480916030533,-0.44274809160305345
10.59,0.091552734375,0.9921875,0.029541015625,-1.6641221374045803,-0.22137404580152673,-0.33587786259541985
10.6,0.083251953125,0.988525390625,0.02685546875,-1.534351145038168,-0.16793893129770993,-0.33587786259541985
10.61,0.082763671875,0.99267578125,0.029296875,-1.6870229007633588,-0.12213740458015267,-0.46564885496183206
10.62,0.089599609375,0.9873046875,0.02978515625,-1.5954198473282444,-0.1450381679389313,-0.2748091603053435
10.63,0.090576171875,0.991943359375,0.02783203125,-1.534351145038168,-0.19083969465648856,-0.40458015267175573
10.64,0.091552734375,0.98681640625,0.025634765625,-1.7786259541984732,-0.19083969465648856,-0.366412213740458
10.65,0.091552734375,0.997314453125,0.015625,-1.5038167938931297,-0.16793893129770993,-0.35877862595419846
10.66,0.078857421875,0.994873046875,0.018798828125,-1.5190839694656488,-0.2824427480916031,-0.3969465648854962
10.67,0.084716796875,0.99853515625,0.01708984375,-1.7709923664122138,-0.16030534351145037,-0.3435114503816794
10.68,0.0830078125,0.993408203125,0.013916015625,-1.7633587786259541,-0.40458015267175573,-0.35877862595419846
10.69,0.087158203125,0.969970703125,0.02783203125,-1.6488549618320612,-0.4198473282442748,-0.2748091603053435
10.7,0.081298828125,0.995361328125,0.024169921875,-1.5419847328244274,-0.24427480916030533,-0.42748091603053434
10.71,0.08056640625,0.99755859375,0.0185546875,-1.7251908396946565,-0.366412213740458,-0.5267175572519084
10.72,0.087890625,0.988037109375,0.0185546875,-1.8931297709923665,-0.06870229007633588,-0.20610687022900764
10.73,0.08984375,0.993408203125,0.029052734375,-1.786259541984733,-0.19083969465648856,-0.3816793893129771
10.74,0.082763671875,0.995361328125,0.02099609375,-1.6564885496183206,-0.07633587786259542,-0.4198473282442748
10.75,0.089599609375,0.995361328125,0.02099609375,-1.5190839694656488,-0.04580152671755725,-0.37404580152671757
10.76,0.08935546875,0.989013671875,0.02001953125,-1.7251908396946565,-0.2824427480916031,-0.33587786259541985
10.77,0.091064453125,0.9931640625,0.021728515625,-1.702290076335878,-0.29770992366412213,-0.3969465648854962
10.78,0.08984375,0.987548828125,0.0166015625,-1.7099236641221374,-0.10687022900763359,-0.2900763358778626
10.79,0.091552734375,0.989990234375,0.019287109375,-1.5114503816793894,-0.22137404580152673,-0.3893129770992366
10.8,0.09228515625,0.990966796875,0.021240234375,-1.6412213740458015,-0.2595419847328244,-0.3816793893129771
10.81,0.083740234375,0.994873046875,0.02099609375,-1.7328244274809161,-0.25190839694656486,-0.4732824427480916
10.82,0.086669921875,0.990234375,0.0302734375,-1.4885496183206106,-0.24427480916030533,-0.35877862595419846
10.83,0.08447265625,0.98583984375,0.01171875,-1.5572519083969465,-0.2900763358778626,-0.42748091603053434
10.84,0.085693359375,0.9951171875,0.015869140625,-1.7251908396946565,-0.17557251908396945,-0.2900763358778626
10.85,0.08642578125,0.990478515625,0.0185546875,-1.7557251908396947,-0.17557251908396945,-0.40458015267175573
10.86,0.087890625,0.99658203125,0.0224609375,-1.6412213740458015,-0.25190839694656486,-0.33587786259541985
10.87,0.08935546875,0.991455078125,0.02734375,-1.83206106870229,-0.1984732824427481,-0.35877862595419846
10.88,0.093505859375,0.99169921875,0.02392578125,-1.7099236641221374,-0.08396946564885496,-0.42748091603053434
10.89,0.082275390625,0.99169921875,0.03076171875,-1.5572519083969465,-0.05343511450381679,-0.37404580152671757
10.9,0.084716796875,0.992919921875,0.0263671875,-1.6106870229007633,-0.22137404580152673,-0.3816793893129771
10.91,0.08837890625,0.993896484375,0.022216796875,-1.6259541984732824,-0.16793893129770993,-0.2900763358778626
10.92,0.085205078125,0.990234375,0.016845703125,-1.6870229007633588,-0.25190839694656486,-0.32061068702290074
10.93,0.083984375,0.99169921875,0.0224609375,-1.6488549618320612,-0.12213740458015267,-0.44274809160305345
10.94,0.09326171875,0.993896484375,0.025390625,-1.5190839694656488,-0.24427480916030533,-0.21374045801526717
10.95,0.087158203125,0.9912109375,0.02392578125,-1.717557251908397,-0.22137404580152673,-0.2824427480916031
10.96,0.093505859375,0.990234375,0.01904296875,-1.6488549618320612,-0.32061068702290074,-0.4122137404580153
10.97,0.0869140625,0.996826171875,0.021728515625,-1.5267175572519085,-0.08396946564885496,-0.32061068702290074
10.98,0.083740234375,0.9892578125,0.015869140625,-1.5725190839694656,-0.2900763358778626,-0.22900763358778625
10.99,0.08251953125,0.986083984375,0.010498046875,-1.6030534351145038,-0.3893129770992366,-0.40458015267175573
11.0,0.08544921875,0.99560546875,0.025146484375,-1.900763358778626,-0.35877862595419846,-0.42748091603053434
11.01,0.08203125,0.998046875,0.02099609375,-1.5725190839694656,-0.2900763358778626,-0.2595419847328244
11.02,0.08642578125,0.99951171875,0.04345703125,-1.7251908396946565,-1.9236641221374047,-0.2366412213740458
