Time(s),AccX,AccY,AccZ,GyrX,GyrY,GyrZ
0.0,0.0751953125,-1.004638671875,0.02197265625,-0.7709923664122137,0.15267175572519084,-1.297709923664122
0.01,0.072021484375,-0.999267578125,0.021484375,-0.16030534351145037,-0.04580152671755725,-1.1526717557251909
0.02,0.070068359375,-0.99951171875,0.034912109375,-0.16030534351145037,-0.22137404580152673,-1.3358778625954197
0.03,0.0703125,-0.9853515625,0.02734375,-0.3969465648854962,-0.10687022900763359,-1.3129770992366412
0.04,0.072509765625,-0.9990234375,0.023193359375,-0.5038167938931297,-0.16030534351145037,-1.2900763358778626
0.05,0.06396484375,-0.998291015625,0.019287109375,-0.5114503816793893,-0.2748091603053435,-1.4122137404580153
0.06,0.062255859375,-0.998046875,0.023681640625,-0.5725190839694656,-0.20610687022900764,-1.4885496183206106
0.07,0.068603515625,-0.998046875,0.0244140625,-0.5954198473282443,-1.9389312977099236,-1.3511450381679388
0.08,0.068359375,-0.998779296875,0.029296875,-0.3435114503816794,-0.10687022900763359,-1.282442748091603
0.09,0.067626953125,-1.003173828125,0.0341796875,-0.0916030534351145,0.015267175572519083,-1.213740458015267
0.1,0.074951171875,-1.0146484375,0.01708984375,-0.3282442748091603,-0.16793893129770993,-1.4045801526717556
0.11,0.065185546875,-0.9853515625,0.0302734375,-0.29770992366412213,-0.16793893129770993,-1.3206106870229009
0.12,0.06640625,-0.997314453125,0.02587890625,-0.7175572519083969,0.08396946564885496,-1.450381679389313
0.13,0.0693359375,-1.001220703125,0.0234375,-0.648854961832061,-0.2595419847328244,-1.3969465648854962
0.14,0.072509765625,-1.00341796875,0.018798828125,-0.7633587786259542,-0.06870229007633588,-1.3511450381679388
0.15,0.070068359375,-0.9970703125,0.028076171875,-0.5343511450381679,-0.15267175572519084,-1.2900763358778626
0.16,0.071044921875,-1.005859375,0.02294921875,-0.3816793893129771,-0.15267175572519084,-1.3129770992366412
0.17,0.067626953125,-1.01416015625,0.020751953125,-0.22900763358778625,-0.04580152671755725,-1.3511450381679388
0.18,0.0673828125,-1.00244140625,0.01708984375,-0.45038167938931295,-1.9465648854961832,-1.3129770992366412
0.19,0.0693359375,-0.987060546875,0.028076171875,-0.2824427480916031,-0.17557251908396945,-1.4045801526717556
0.2,0.069091796875,-0.99951171875,0.025146484375,-0.48854961832061067,1.916030534351145,-1.6030534351145038
0.21,0.068359375,-1.001220703125,0.028076171875,-0.648854961832061,0.0916030534351145,-1.3893129770992367
0.22,0.06689453125,-0.996337890625,0.0224609375,-0.45038167938931295,-0.1450381679389313,-1.3129770992366412
0.23,0.075927734375,-1.000244140625,0.025634765625,-0.4580152671755725,0.04580152671755725,-1.6259541984732824
0.24,0.0673828125,-1.0048828125,0.024658203125,-0.3969465648854962,1.9312977099236641,-1.4198473282442747
0.25,0.07421875,-1.005615234375,0.015625,-0.16793893129770993,-0.06870229007633588,-1.2595419847328244
0.26,0.06884765625,-0.994873046875,0.0380859375,-0.5725190839694656,-1.8854961832061068,-1.5419847328244274
0.27,0.07177734375,-1.005859375,0.04443359375,-0.6717557251908397,-0.11450381679389313,-1.3587786259541985
0.28,0.06689453125,-0.996826171875,0.018310546875,-0.6793893129770993,0.05343511450381679,-1.465648854961832
0.29,0.06884765625,-0.99951171875,0.016357421875,-0.816793893129771,1.9312977099236641,-1.3893129770992367
0.3,0.0673828125,-0.99853515625,0.017822265625,-0.31297709923664124,1.916030534351145,-1.1908396946564885
0.31,0.048095703125,-1.000244140625,0.02734375,0.1984732824427481,-1.9236641221374047,-1.3740458015267176
0.32,0.0654296875,-1.001953125,0.033447265625,0.015267175572519083,0.06870229007633588,-1.2595419847328244
0.33,0.072998046875,-0.985595703125,0.0302734375,-0.3435114503816794,0.030534351145038167,-1.5801526717557253
0.34,0.067626953125,-0.99853515625,0.02783203125,-0.8854961832061069,0.06870229007633588,-1.2748091603053435
0.35,0.0693359375,-1.0009765625,0.029541015625,-0.48091603053435117,0.06870229007633588,-1.5419847328244274
0.36,0.069091796875,-1.001220703125,0.027099609375,-0.3435114503816794,-0.1450381679389313,-1.3053435114503817
0.37,0.0625,-1.00146484375,0.02734375,-0.4122137404580153,-0.11450381679389313,-1.4045801526717556
0.38,0.069091796875,-1.0146484375,0.02587890625,-0.44274809160305345,-0.06870229007633588,-1.3435114503816794
0.39,0.06982421875,-0.9990234375,0.04638671875,-0.4961832061068702,0.022900763358778626,-1.3587786259541985
0.4,0.0693359375,-1.00537109375,0.0263671875,-0.42748091603053434,-1.9389312977099236,-1.3206106870229009
0.41,0.066650390625,-0.997802734375,0.02099609375,-0.24427480916030533,0.16030534351145037,-1.3969465648854962
0.42,0.064697265625,-0.995361328125,0.024658203125,-0.35877862595419846,0.0916030534351145,-1.2671755725190839
0.43,0.072509765625,-1.0029296875,0.02099609375,-0.8473282442748091,-0.05343511450381679,-1.251908396946565
0.44,0.069091796875,-0.994384765625,0.027587890625,-0.6106870229007634,-0.03816793893129771,-1.3053435114503817
0.45,0.065185546875,-0.9990234375,0.02734375,-0.40458015267175573,-0.15267175572519084,-1.4198473282442747
0.46,0.068359375,-0.9990234375,0.01953125,-0.3816793893129771,-0.03816793893129771,-1.3435114503816794
0.47,0.067626953125,-1.00146484375,0.030517578125,-0.4732824427480916,-1.9083969465648856,-1.4961832061068703
0.48,0.06591796875,-0.993408203125,0.025390625,-0.4732824427480916,0.015267175572519083,-1.381679389312977
0.49,0.065185546875,-0.992431640625,0.029541015625,-0.7786259541984732,-0.09923664122137404,-1.2061068702290076
0.5,0.06787109375,-1.005615234375,0.02197265625,-0.45038167938931295,-0.17557251908396945,-1.4198473282442747
0.51,0.073486328125,-1.0009765625,0.027099609375,-0.3511450381679389,-0.04580152671755725,-1.3053435114503817
0.52,0.07373046875,-1.008056640625,0.032470703125,-0.3435114503816794,-0.1450381679389313,-1.4198473282442747
0.53,0.065185546875,-0.994140625,0.01708984375,-0.5877862595419847,-0.0916030534351145,-1.297709923664122
0.54,0.0615234375,-0.998291015625,0.0302734375,-0.4961832061068702,1.900763358778626,-1.5190839694656488
0.55,0.0634765625,-1.0009765625,0.025146484375,-0.6717557251908397,-0.030534351145038167,-1.618320610687023
0.56,0.067626953125,-0.999267578125,0.02197265625,-0.3053435114503817,-0.15267175572519084,-1.3206106870229009
0.57,0.068603515625,-0.997314453125,0.021728515625,-0.37404580152671757,-1.9389312977099236,-1.2671755725190839
0.58,0.068115234375,-1.003662109375,0.03369140625,-0.1984732824427481,-0.09923664122137404,-1.465648854961832
0.59,0.066162109375,-0.99072265625,0.029541015625,-0.6412213740458015,-0.030534351145038167,-1.4885496183206106
0.6,0.068115234375,-0.9990234375,0.022216796875,-0.6030534351145038,-1.9465648854961832,-1.4809160305343512
0.61,0.06884765625,-1.001708984375,0.04248046875,-0.44274809160305345,-0.2366412213740458,-1.3435114503816794
0.62,0.065673828125,-0.99853515625,0.028564453125,-0.5038167938931297,0.07633587786259542,-1.282442748091603
0.63,0.069580078125,-1.00537109375,0.028076171875,-0.6793893129770993,0.03816793893129771,-1.2290076335877862
0.64,0.075927734375,-0.99755859375,0.030029296875,-0.5114503816793893,-0.22900763358778625,-1.3358778625954197
0.65,0.063720703125,-1.002685546875,0.02392578125,-0.1984732824427481,-0.183206106870229,-1.5038167938931297
0.66,0.06982421875,-1.014892578125,0.023681640625,-0.1984732824427481,0.015267175572519083,-1.1984732824427482
0.67,0.063232421875,-1.0048828125,0.0234375,-0.22137404580152673,-0.1450381679389313,-1.4122137404580153
0.68,0.065185546875,-1.00048828125,0.02783203125,-0.24427480916030533,0.05343511450381679,-1.251908396946565
0.69,0.071044921875,-1.0048828125,0.026611328125,-0.5190839694656488,-0.10687022900763359,-1.3282442748091603
0.7,0.06640625,-0.995849609375,0.022705078125,-0.5877862595419847,-0.061068702290076333,-1.3206106870229009
0.71,0.064453125,-0.996337890625,0.026123046875,-0.648854961832061,1.9465648854961832,-1.366412213740458
0.72,0.068603515625,-1.003662109375,0.015625,-0.6030534351145038,-0.015267175572519083,-1.4045801526717556
0.73,0.069091796875,-0.996337890625,0.020751953125,-0.4351145038167939,-0.24427480916030533,-1.4198473282442747
0.74,0.04931640625,-0.99951171875,0.021484375,0.03816793893129771,1.9465648854961832,-1.450381679389313
0.75,0.070068359375,-1.004638671875,0.0263671875,-0.11450381679389313,-0.22900763358778625,-1.1450381679389312
0.76,0.06103515625,-1.00439453125,0.018798828125,-0.3053435114503817,-0.0916030534351145,-1.3587786259541985
0.77,0.06884765625,-1.000732421875,0.022216796875,-0.6030534351145038,-0.10687022900763359,-1.381679389312977
0.78,0.083251953125,-0.991943359375,0.02490234375,-0.7022900763358778,-0.05343511450381679,-1.3969465648854962
0.79,0.07763671875,-0.99609375,0.02099609375,-0.7557251908396947,0.05343511450381679,-1.5648854961832062
0.8,0.066650390625,-1.01171875,0.00927734375,-0.5267175572519084,-0.1984732824427481,-1.3206106870229009
0.81,0.067138671875,-1.001220703125,0.027587890625,-0.20610687022900764,1.9236641221374047,-1.5038167938931297
0.82,0.073486328125,-0.998779296875,0.025146484375,-0.24427480916030533,-0.06870229007633588,-1.450381679389313
0.83,0.066162109375,-0.998291015625,0.0263671875,-0.05343511450381679,-0.09923664122137404,-1.450381679389313
0.84,0.06982421875,-1.0,0.025634765625,-0.4198473282442748,-0.37404580152671757,-1.3282442748091603
0.85,0.065185546875,-0.998046875,0.026611328125,-0.6564885496183206,1.9236641221374047,-1.5114503816793894
0.86,0.06591796875,-0.997314453125,0.02978515625,-0.5954198473282443,-0.022900763358778626,-1.5038167938931297
0.87,0.063720703125,-1.001953125,0.02294921875,-0.45038167938931295,0.05343511450381679,-1.3587786259541985
0.88,0.06591796875,-1.0146484375,0.02783203125,-0.48854961832061067,0.030534351145038167,-1.2213740458015268
0.89,0.071044921875,-0.99267578125,0.03076171875,-0.4580152671755725,-0.2748091603053435,-1.2748091603053435
0.9,0.071044921875,-1.001220703125,0.019287109375,-0.35877862595419846,1.8854961832061068,-1.282442748091603
0.91,0.06494140625,-1.001708984375,0.024169921875,-0.4122137404580153,-0.183206106870229,-1.2595419847328244
0.92,0.068359375,-1.0029296875,0.0341796875,-0.5419847328244275,1.9465648854961832,-1.282442748091603
0.93,0.075927734375,-0.997314453125,0.026611328125,-0.5190839694656488,0.1297709923664122,-1.3282442748091603
0.94,0.07275390625,-1.002197265625,0.023193359375,-0.6335877862595419,-0.030534351145038167,-1.3129770992366412
0.95,0.069091796875,-0.99609375,0.02783203125,-0.5267175572519084,-0.09923664122137404,-1.3740458015267176
0.96,0.068603515625,-0.99853515625,0.0224609375,-0.3282442748091603,-0.17557251908396945,-1.4198473282442747
0.97,0.063232421875,-0.999755859375,0.045166015625,-0.19083969465648856,-0.0916030534351145,-1.5954198473282444
0.98,0.064453125,-1.0,0.01708984375,-0.44274809160305345,-0.1450381679389313,-1.5190839694656488
0.99,0.070556640625,-0.997802734375,0.02587890625,-0.4198473282442748,-0.061068702290076333,-1.4045801526717556
1.0,0.070556640625,-1.006591796875,0.029296875,-0.3893129770992366,0.022900763358778626,-1.4045801526717556
1.01,0.074951171875,-0.993896484375,0.029052734375,-0.5343511450381679,0.16793893129770993,-1.5725190839694656
1.02,0.0703125,-1.013916015625,0.017822265625,-0.4351145038167939,-0.04580152671755725,-1.213740458015267
1.03,0.072509765625,-0.99951171875,0.035888671875,-0.5419847328244275,1.9312977099236641,-1.297709923664122
1.04,0.069580078125,-1.000732421875,0.021728515625,-0.6106870229007634,-0.05343511450381679,-1.3893129770992367
1.05,0.074462890625,-0.999267578125,0.02685546875,-0.5419847328244275,0.04580152671755725,-1.3053435114503817
1.06,0.068359375,-0.994140625,0.01318359375,-0.46564885496183206,-0.0916030534351145,-1.4198473282442747
1.07,0.06787109375,-0.999755859375,0.023193359375,-0.37404580152671757,-0.20610687022900764,-1.2748091603053435
1.08,0.0693359375,-1.014892578125,0.0244140625,-0.1450381679389313,0.007633587786259542,-1.4809160305343512
1.09,0.064453125,-0.997802734375,0.037841796875,-0.2366412213740458,1.9465648854961832,-1.4274809160305344
1.1,0.068603515625,-0.993896484375,0.01708984375,-0.1297709923664122,-0.22900763358778625,-1.4122137404580153
1.11,0.066162109375,-1.00390625,0.027587890625,-0.5572519083969466,0.061068702290076333,-1.4351145038167938
1.12,0.067626953125,-0.99658203125,0.020751953125,-0.7404580152671756,-0.05343511450381679,-1.3053435114503817
1.13,0.0751953125,-0.99853515625,0.02734375,-0.648854961832061,-0.16030534351145037,-1.4045801526717556
1.14,0.06591796875,-1.000732421875,0.03173828125,-0.5114503816793893,-0.06870229007633588,-1.465648854961832
1.15,0.066162109375,-1.013671875,0.036376953125,-0.3893129770992366,0.0,-1.2671755725190839
1.16,0.069091796875,-0.987548828125,0.015869140625,-0.2366412213740458,-0.022900763358778626,-1.4427480916030535
1.17,0.072509765625,-0.985107421875,0.01904296875,-0.4198473282442748,-0.24427480916030533,-1.3282442748091603
1.18,0.070068359375,-1.00146484375,0.035400390625,-0.7633587786259542,-0.05343511450381679,-1.4809160305343512
1.19,0.064208984375,-0.997802734375,0.0263671875,-0.6641221374045801,-0.09923664122137404,-1.450381679389313
1.2,0.068115234375,-1.004150390625,0.01953125,-0.5038167938931297,0.08396946564885496,-1.2748091603053435
1.21,0.068359375,-0.997802734375,0.025146484375,-0.5038167938931297,-0.08396946564885496,-1.4122137404580153
1.22,0.075439453125,-1.003173828125,0.029541015625,-0.3435114503816794,1.900763358778626,-1.3435114503816794
1.23,0.07275390625,-1.013671875,0.033935546875,-0.24427480916030533,-0.1297709923664122,-1.381679389312977
1.24,0.0712890625,-0.98779296875,0.045654296875,-0.08396946564885496,-0.183206106870229,-1.3206106870229009
1.25,0.0703125,-0.98486328125,0.02587890625,-0.48854961832061067,-0.15267175572519084,-1.3053435114503817
1.26,0.07421875,-0.995849609375,0.028564453125,-0.7251908396946565,-0.061068702290076333,-1.3435114503816794
1.27,0.06884765625,-0.998291015625,0.024169921875,-0.4732824427480916,1.900763358778626,-1.450381679389313
1.28,0.067626953125,-1.000244140625,0.029052734375,-0.46564885496183206,-0.022900763358778626,-1.4122137404580153
1.29,0.071044921875,-1.000244140625,0.025634765625,-0.366412213740458,-0.11450381679389313,-1.3358778625954197
1.3,0.065185546875,-1.001220703125,0.028564453125,-0.4351145038167939,0.09923664122137404,-1.4732824427480915
1.31,0.0771484375,-0.99951171875,0.0244140625,-0.3435114503816794,1.9465648854961832,-1.2748091603053435
1.32,0.0703125,-1.0126953125,0.043212890625,-0.32061068702290074,-0.17557251908396945,-1.4198473282442747
1.33,0.06787109375,-0.995849609375,0.0380859375,-0.4122137404580153,-0.1984732824427481,-1.366412213740458
1.34,0.06982421875,-1.00146484375,0.02978515625,-0.7175572519083969,0.20610687022900764,-1.4045801526717556
1.35,0.0712890625,-1.005615234375,0.025390625,-0.37404580152671757,-0.11450381679389313,-1.3435114503816794
1.36,0.068603515625,-0.99462890625,0.03076171875,-0.4122137404580153,-0.061068702290076333,-1.4274809160305344
1.37,0.0712890625,-1.004638671875,0.023681640625,-0.37404580152671757,-0.015267175572519083,-1.4961832061068703
1.38,0.07177734375,-0.994140625,0.033935546875,-0.3435114503816794,-0.1297709923664122,-1.5725190839694656
1.39,0.072998046875,-1.014892578125,0.023193359375,-0.33587786259541985,-0.21374045801526717,-1.3969465648854962
1.4,0.066162109375,-1.004150390625,0.032470703125,-0.5954198473282443,0.007633587786259542,-1.3587786259541985
1.41,0.06103515625,-0.996826171875,0.0283203125,-0.4961832061068702,-0.19083969465648856,-1.366412213740458
1.42,0.065185546875,-0.99658203125,0.025146484375,-0.6259541984732825,-0.31297709923664124,-1.4045801526717556
1.43,0.06689453125,-1.001953125,0.023193359375,-0.15267175572519084,0.17557251908396945,-1.3893129770992367
1.44,0.06982421875,-1.002197265625,0.028076171875,-0.25190839694656486,-0.1297709923664122,-1.381679389312977
1.45,0.0751953125,-1.00390625,0.030517578125,-0.2748091603053435,-0.16793893129770993,-1.4198473282442747
1.46,0.069091796875,-1.001953125,0.022216796875,-0.5725190839694656,-0.09923664122137404,-1.1984732824427482
1.47,0.072509765625,-1.001953125,0.0458984375,-0.45038167938931295,-0.19083969465648856,-1.183206106870229
1.48,0.069091796875,-1.005615234375,0.023681640625,-0.5114503816793893,-0.10687022900763359,-1.3511450381679388
1.49,0.069580078125,-0.99951171875,0.033447265625,-0.3816793893129771,-0.061068702290076333,-1.282442748091603
1.5,0.068359375,-1.001220703125,0.025146484375,-0.5648854961832062,-1.9541984732824427,-1.251908396946565
1.51,0.068603515625,-1.0,0.02734375,-0.24427480916030533,-0.1984732824427481,-1.4122137404580153
1.52,0.064453125,-1.013671875,0.0244140625,-0.48854961832061067,-0.030534351145038167,-1.3358778625954197
1.53,0.06787109375,-0.98583984375,0.022216796875,-0.4732824427480916,-1.9312977099236641,-1.3740458015267176
1.54,0.063720703125,-0.99755859375,0.025634765625,-0.366412213740458,0.03816793893129771,-1.366412213740458
1.55,0.07373046875,-1.000732421875,0.026611328125,-0.5343511450381679,-0.03816793893129771,-1.2900763358778626
1.56,0.072021484375,-1.00634765625,0.0302734375,-0.5801526717557252,0.022900763358778626,-1.4122137404580153
1.57,0.06591796875,-1.00244140625,0.0322265625,-0.6717557251908397,-0.061068702290076333,-1.3511450381679388
1.58,0.07275390625,-1.013671875,0.022705078125,-0.6717557251908397,-0.25190839694656486,-1.3435114503816794
1.59,0.07470703125,-1.015625,0.026123046875,-0.3511450381679389,-0.030534351145038167,-1.549618320610687
1.6,0.072509765625,-0.996826171875,0.025634765625,-0.5267175572519084,-0.10687022900763359,-1.3969465648854962
1.61,0.070556640625,-0.9951171875,0.026611328125,-0.46564885496183206,-0.17557251908396945,-1.4885496183206106
1.62,0.062255859375,-1.00146484375,0.036376953125,-0.40458015267175573,-0.022900763358778626,-1.381679389312977
1.63,0.0693359375,-0.998779296875,0.027099609375,-0.549618320610687,0.015267175572519083,-1.3282442748091603
1.64,0.073974609375,-1.005126953125,0.01708984375,-0.40458015267175573,0.06870229007633588,-1.3893129770992367
1.65,0.06884765625,-0.99853515625,0.0244140625,-0.32061068702290074,-1.8625954198473282,-1.534351145038168
1.66,0.07666015625,-1.00390625,0.01611328125,-0.31297709923664124,-0.16793893129770993,-1.297709923664122
1.67,0.06982421875,-1.013671875,0.025390625,-0.1984732824427481,0.09923664122137404,-1.4732824427480915
1.68,0.070068359375,-1.000732421875,0.044921875,-0.4351145038167939,-0.10687022900763359,-1.0763358778625953
1.69,0.07177734375,-0.997802734375,0.03466796875,-0.6717557251908397,-0.0916030534351145,-1.3511450381679388
1.7,0.065673828125,-0.994140625,0.025634765625,-0.5343511450381679,1.916030534351145,-1.5190839694656488
1.71,0.06591796875,-1.0029296875,0.0185546875,-0.5801526717557252,0.030534351145038167,-1.465648854961832
1.72,0.06494140625,-0.993408203125,0.0244140625,-0.2748091603053435,1.8625954198473282,-1.1603053435114503
1.73,0.07421875,-0.984619140625,0.018798828125,-0.5038167938931297,0.061068702290076333,-1.1984732824427482
1.74,0.0732421875,-1.013427734375,0.023193359375,-0.31297709923664124,0.022900763358778626,-1.2595419847328244
1.75,0.064208984375,-0.9912109375,0.02783203125,-0.2748091603053435,-0.05343511450381679,-1.3358778625954197
1.76,0.068359375,-1.001220703125,0.024658203125,-0.45038167938931295,-0.12213740458015267,-1.3206106870229009
1.77,0.072509765625,-1.00732421875,0.02685546875,-0.19083969465648856,-0.04580152671755725,-1.297709923664122
1.78,0.072021484375,-0.999755859375,0.01953125,-0.2748091603053435,-0.183206106870229,-1.4809160305343512
1.79,0.0703125,-1.005615234375,0.023193359375,-0.5419847328244275,-0.12213740458015267,-1.450381679389313
1.8,0.072021484375,-0.985595703125,0.02880859375,-0.5419847328244275,-0.030534351145038167,-1.282442748091603
1.81,0.04833984375,-0.999267578125,0.02685546875,-0.7633587786259542,-0.1297709923664122,-1.3435114503816794
1.82,0.06640625,-1.00244140625,0.026123046875,-0.2824427480916031,0.03816793893129771,-1.381679389312977
1.83,0.0712890625,-1.000244140625,0.0166015625,0.06870229007633588,-0.03816793893129771,-1.4580152671755726
1.84,0.064453125,-0.996826171875,0.033935546875,-0.12213740458015267,-0.1450381679389313,-1.4427480916030535
1.85,0.069580078125,-0.997802734375,0.03857421875,-0.46564885496183206,0.0916030534351145,-1.4427480916030535
1.86,0.065185546875,-0.996826171875,0.02587890625,-0.9007633587786259,0.12213740458015267,-1.1603053435114503
1.87,0.0673828125,-1.0009765625,0.0205078125,-0.9923664122137404,0.21374045801526717,-1.534351145038168
1.88,0.052490234375,-1.007080078125,0.022705078125,-0.44274809160305345,-0.05343511450381679,-1.282442748091603
1.89,0.06982421875,-0.984619140625,0.023193359375,0.061068702290076333,-0.12213740458015267,-1.3435114503816794
1.9,0.070556640625,-1.00244140625,0.0419921875,1.8702290076335877,-0.15267175572519084,-1.3206106870229009
1.91,0.071533203125,-1.001708984375,0.02783203125,-0.183206106870229,0.0,-1.4809160305343512
1.92,0.068115234375,-1.0,0.025146484375,-0.916030534351145,-0.19083969465648856,-1.297709923664122
1.93,0.06298828125,-1.0,0.02734375,-0.7633587786259542,-0.3969465648854962,-1.251908396946565
1.94,0.0615234375,-1.0078125,0.022216796875,-0.6717557251908397,-0.22137404580152673,-1.2213740458015268
1.95,0.069091796875,-1.013671875,0.02783203125,-0.4122137404580153,-0.1984732824427481,-1.3893129770992367
1.96,0.063720703125,-1.001220703125,0.016357421875,-0.31297709923664124,-0.09923664122137404,-1.2748091603053435
1.97,0.068115234375,-1.000244140625,0.0224609375,-0.40458015267175573,1.9465648854961832,-1.3893129770992367
1.98,0.06689453125,-0.995849609375,0.0263671875,-0.5343511450381679,-0.03816793893129771,-1.4809160305343512
1.99,0.071044921875,-0.99755859375,0.02392578125,-0.22137404580152673,-0.061068702290076333,-1.4732824427480915
2.0,0.068115234375,-0.998046875,0.0244140625,-0.35877862595419846,0.030534351145038167,-1.4274809160305344
2.01,0.064697265625,-0.986572265625,0.030517578125,-0.5343511450381679,-0.0916030534351145,-1.3435114503816794
2.02,0.066650390625,-0.994140625,0.02392578125,-0.5954198473282443,-0.061068702290076333,-1.4045801526717556
2.03,0.071044921875,-0.988037109375,0.000244140625,-0.46564885496183206,-0.05343511450381679,-1.3740458015267176
2.04,0.06201171875,-1.00341796875,0.02880859375,-0.29770992366412213,-0.1297709923664122,-1.4274809160305344
2.05,0.068359375,-1.001953125,0.0361328125,-0.2595419847328244,-0.1297709923664122,-1.3206106870229009
2.06,0.067138671875,-1.001708984375,0.022705078125,-0.4122137404580153,-0.04580152671755725,-1.366412213740458
2.07,0.065673828125,-0.99560546875,0.022705078125,-0.648854961832061,-0.022900763358778626,-1.3893129770992367
2.08,0.071044921875,-1.000244140625,0.020751953125,-0.9007633587786259,-0.13740458015267176,-1.3129770992366412
2.09,0.069580078125,-0.99658203125,0.024658203125,-0.5801526717557252,-0.22137404580152673,-1.5572519083969465
2.1,0.063232421875,-0.985107421875,0.02197265625,-0.29770992366412213,0.030534351145038167,-1.3587786259541985
2.11,0.0634765625,-1.000732421875,0.023681640625,-1.9312977099236641,-0.061068702290076333,-1.3893129770992367
2.12,0.067138671875,-1.0,0.029052734375,-0.21374045801526717,-1.9236641221374047,-1.3969465648854962
2.13,0.069580078125,-0.9990234375,0.026123046875,-0.4961832061068702,-0.16030534351145037,-1.3053435114503817
2.14,0.0712890625,-0.996826171875,0.023681640625,-0.6030534351145038,-0.0916030534351145,-1.3587786259541985
2.15,0.06591796875,-1.001708984375,0.02734375,-0.732824427480916,0.05343511450381679,-1.1984732824427482
2.16,0.066162109375,-0.985595703125,0.022216796875,-0.46564885496183206,-0.13740458015267176,-1.2900763358778626
2.17,0.064453125,-1.001953125,0.018798828125,-0.16030534351145037,-0.08396946564885496,-1.4198473282442747
2.18,0.064697265625,-1.005126953125,0.015869140625,-0.06870229007633588,0.0,-1.3435114503816794
2.19,0.065185546875,-0.99755859375,0.024169921875,-0.4961832061068702,-0.04580152671755725,-1.4351145038167938
2.2,0.070068359375,-0.993408203125,0.02685546875,-0.3816793893129771,-0.1984732824427481,-1.5190839694656488
2.21,0.07177734375,-1.001220703125,0.03515625,-0.4351145038167939,-1.8854961832061068,-1.4045801526717556
2.22,0.070068359375,-0.996337890625,0.021484375,-0.5572519083969466,-0.1297709923664122,-1.4885496183206106
2.23,0.07275390625,-0.99951171875,0.0234375,-0.3816793893129771,-0.022900763358778626,-1.2595419847328244
2.24,0.065185546875,-1.00048828125,0.0185546875,-0.3969465648854962,-0.04580152671755725,-1.3053435114503817
2.25,0.064453125,-0.99951171875,0.0185546875,-0.24427480916030533,-0.2824427480916031,-1.4351145038167938
2.26,0.0751953125,-0.995849609375,0.02978515625,-0.3511450381679389,0.13740458015267176,-1.282442748091603
2.27,0.066650390625,-0.998779296875,0.0263671875,-0.3435114503816794,-0.05343511450381679,-1.366412213740458
2.28,0.072509765625,-1.00244140625,0.02001953125,-0.40458015267175573,-0.19083969465648856,-1.4045801526717556
2.29,0.0634765625,-0.9970703125,0.03173828125,-0.33587786259541985,-1.8702290076335877,-1.4580152671755726
2.3,0.0673828125,-0.98828125,0.04443359375,-0.5954198473282443,0.06870229007633588,-1.3587786259541985
2.31,0.061279296875,-1.012451171875,0.025146484375,-0.40458015267175573,-0.21374045801526717,-1.3587786259541985
2.32,0.068603515625,-1.011474609375,0.03955078125,-0.1297709923664122,0.05343511450381679,-1.2748091603053435
2.33,0.064208984375,-1.0,0.0244140625,-0.2748091603053435,0.07633587786259542,-1.282442748091603
2.34,0.066650390625,-1.0009765625,0.03369140625,-0.45038167938931295,-0.11450381679389313,-1.4045801526717556
2.35,0.067626953125,-0.996337890625,0.013671875,-0.9007633587786259,-0.061068702290076333,-1.4427480916030535
2.36,0.0693359375,-1.00439453125,0.02099609375,-0.6106870229007634,0.061068702290076333,-1.4274809160305344
2.37,0.062744140625,-0.99658203125,0.0166015625,-0.3816793893129771,-0.2748091603053435,-1.2748091603053435
2.38,0.06982421875,-0.99755859375,0.04150390625,-0.3816793893129771,0.061068702290076333,-1.2671755725190839
2.39,0.06640625,-0.996826171875,0.030029296875,-0.2366412213740458,-0.15267175572519084,-1.3893129770992367
2.4,0.06591796875,-0.99169921875,0.0224609375,-0.26717557251908397,-0.24427480916030533,-1.3969465648854962
2.41,0.072998046875,-1.00390625,0.02880859375,-0.2824427480916031,0.12213740458015267,-1.3282442748091603
2.42,0.071533203125,-0.9970703125,0.03271484375,-0.5877862595419847,-0.183206106870229,-1.213740458015267
2.43,0.067626953125,-1.005126953125,0.031982421875,-0.6641221374045801,-0.29770992366412213,-1.2748091603053435
2.44,0.068115234375,-0.993408203125,0.01953125,-0.48091603053435117,-0.3053435114503817,-1.381679389312977
2.45,0.072509765625,-1.001708984375,0.0302734375,-0.46564885496183206,-0.15267175572519084,-1.1297709923664123
2.46,0.072021484375,-1.01318359375,0.0234375,-0.2824427480916031,-0.1450381679389313,-1.450381679389313
2.47,0.06982421875,-1.00390625,0.028076171875,-0.09923664122137404,-0.35877862595419846,-1.381679389312977
2.48,0.066650390625,-0.99951171875,0.024658203125,-0.48854961832061067,0.030534351145038167,-1.2213740458015268
2.49,0.070068359375,-0.9990234375,0.035888671875,-0.6412213740458015,-0.08396946564885496,-1.2213740458015268
2.5,0.068603515625,-0.99658203125,0.0283203125,-0.7404580152671756,-0.1450381679389313,-1.2366412213740459
2.51,0.06689453125,-1.00439453125,0.01708984375,-0.6412213740458015,0.03816793893129771,-1.381679389312977
2.52,0.068603515625,-1.0029296875,0.030029296875,-0.19083969465648856,0.015267175572519083,-1.3587786259541985
2.53,0.073486328125,-1.01416015625,0.031494140625,-0.3511450381679389,0.007633587786259542,-1.3587786259541985
2.54,0.066162109375,-0.998779296875,0.025146484375,-0.4198473282442748,-0.03816793893129771,-1.5877862595419847
2.55,0.066650390625,-0.9990234375,0.022705078125,-0.5572519083969466,-1.9312977099236641,-1.3969465648854962
2.56,0.0673828125,-1.00048828125,0.0263671875,-0.6870229007633588,-0.0916030534351145,-1.3511450381679388
2.57,0.064208984375,-0.99951171875,0.0234375,-0.5954198473282443,-0.10687022900763359,-1.5648854961832062
2.58,0.066162109375,-1.011962890625,0.02392578125,-0.44274809160305345,-0.19083969465648856,-1.3206106870229009
2.59,0.067626953125,-0.99853515625,0.02734375,-0.648854961832061,-0.22137404580152673,-1.3893129770992367
2.6,0.06640625,-1.004150390625,0.019775390625,-0.42748091603053434,-0.16793893129770993,-1.4122137404580153
2.61,0.06982421875,-0.998779296875,0.027099609375,-0.32061068702290074,-0.12213740458015267,-1.366412213740458
2.62,0.07470703125,-1.000244140625,0.024169921875,-0.3816793893129771,-0.22900763358778625,-1.4351145038167938
2.63,0.0654296875,-0.994140625,0.031494140625,-0.40458015267175573,-0.05343511450381679,-1.5190839694656488
2.64,0.072509765625,-1.000732421875,0.02099609375,-0.6183206106870229,-0.061068702290076333,-1.5038167938931297
2.65,0.0673828125,-1.010986328125,0.017822265625,-0.40458015267175573,-0.05343511450381679,-1.2748091603053435
2.66,0.070068359375,-1.001220703125,0.024169921875,-0.4961832061068702,0.11450381679389313,-1.450381679389313
2.67,0.070068359375,-0.996826171875,0.029052734375,-0.5343511450381679,-0.11450381679389313,-1.450381679389313
2.68,0.07373046875,-1.001953125,0.020751953125,-0.40458015267175573,-0.09923664122137404,-1.282442748091603
2.69,0.06787109375,-1.001708984375,0.028076171875,-0.4351145038167939,0.04580152671755725,-1.4122137404580153
2.7,0.067138671875,-0.99951171875,0.029052734375,-0.45038167938931295,-0.1450381679389313,-1.4198473282442747
2.71,0.0732421875,-0.9970703125,0.02783203125,-0.7251908396946565,-0.15267175572519084,-1.3435114503816794
2.72,0.06884765625,-1.004150390625,0.025390625,-0.3893129770992366,-0.183206106870229,-1.2595419847328244
2.73,0.063720703125,-0.99658203125,0.0185546875,-0.3816793893129771,-1.9541984732824427,-1.3511450381679388
2.74,0.06884765625,-1.01416015625,0.024658203125,-0.3511450381679389,0.007633587786259542,-1.465648854961832
2.75,0.073486328125,-1.0146484375,0.029541015625,-0.6030534351145038,-0.04580152671755725,-1.4961832061068703
2.76,0.06494140625,-0.99853515625,0.025634765625,-0.6183206106870229,-0.11450381679389313,-1.4809160305343512
2.77,0.065185546875,-0.999755859375,0.021240234375,-0.25190839694656486,-0.04580152671755725,-1.282442748091603
2.78,0.070556640625,-1.001708984375,0.026611328125,-0.46564885496183206,-0.05343511450381679,-1.3282442748091603
2.79,0.06982421875,-0.998291015625,0.0234375,-0.29770992366412213,0.0,-1.2061068702290076
2.8,0.068359375,-1.0068359375,0.027099609375,-0.5725190839694656,-0.21374045801526717,-1.3358778625954197
2.81,0.069091796875,-0.99853515625,0.017822265625,-0.25190839694656486,0.13740458015267176,-1.4351145038167938
2.82,0.069091796875,-0.998291015625,0.029296875,-0.2900763358778626,-0.06870229007633588,-1.2213740458015268
2.83,0.069091796875,-0.997314453125,0.025146484375,-0.3435114503816794,-0.022900763358778626,-1.4045801526717556
2.84,0.066650390625,-0.996337890625,0.03466796875,-0.4351145038167939,-0.07633587786259542,-1.3282442748091603
2.85,0.069580078125,-0.99462890625,0.023193359375,-0.5038167938931297,0.1297709923664122,-1.251908396946565
2.86,0.06787109375,-1.001708984375,0.023681640625,-0.45038167938931295,0.07633587786259542,-1.3587786259541985
2.87,0.066650390625,-1.00048828125,0.025390625,-0.1984732824427481,-0.08396946564885496,-1.2290076335877862
2.88,0.06787109375,-1.014404296875,0.0205078125,-0.29770992366412213,-0.22137404580152673,-1.213740458015267
2.89,0.066650390625,-0.992431640625,0.0234375,-0.5801526717557252,-0.06870229007633588,-1.618320610687023
2.9,0.07763671875,-1.000244140625,0.030517578125,-0.5954198473282443,-0.06870229007633588,-1.4198473282442747
2.91,0.06689453125,-0.99609375,0.0244140625,-0.5801526717557252,0.030534351145038167,-1.3129770992366412
2.92,0.07080078125,-1.0029296875,0.026123046875,-0.5114503816793893,-0.24427480916030533,-1.5419847328244274
2.93,0.06787109375,-1.003173828125,0.029052734375,-0.5114503816793893,0.07633587786259542,-1.450381679389313
2.94,0.066162109375,-1.001708984375,0.031005859375,-0.32061068702290074,-0.1450381679389313,-1.3435114503816794
2.95,0.07275390625,-1.015625,0.0244140625,-0.32061068702290074,-0.16793893129770993,-1.3282442748091603
2.96,0.071044921875,-1.000732421875,0.026611328125,-0.2366412213740458,-0.1450381679389313,-1.3893129770992367
2.97,0.0703125,-1.000732421875,0.030517578125,-0.3969465648854962,-1.9465648854961832,-1.465648854961832
2.98,0.068359375,-0.999267578125,0.027099609375,-0.32061068702290074,0.022900763358778626,-1.4274809160305344
2.99,0.068115234375,-1.002197265625,0.0234375,-0.45038167938931295,1.9236641221374047,-1.3206106870229009
3.0,0.074951171875,-0.999267578125,0.028564453125,-0.6106870229007634,-0.06870229007633588,-1.4122137404580153
3.01,0.070068359375,-0.9990234375,0.029296875,-0.5267175572519084,-0.09923664122137404,-1.2671755725190839
3.02,0.070068359375,-0.993408203125,0.027099609375,-0.549618320610687,-0.20610687022900764,-1.282442748091603
3.03,0.06982421875,-1.001708984375,0.01953125,-0.3511450381679389,0.08396946564885496,-1.4885496183206106
3.04,0.07080078125,-1.001708984375,0.04638671875,-0.44274809160305345,0.19083969465648856,-1.297709923664122
3.05,0.064208984375,-0.99755859375,0.032470703125,-0.6106870229007634,-0.16793893129770993,-1.2213740458015268
3.06,0.069091796875,-1.0,0.027587890625,-0.3893129770992366,-0.09923664122137404,-1.450381679389313
3.07,0.06787109375,-1.002685546875,0.02294921875,-0.5343511450381679,-1.9465648854961832,-1.3969465648854962
3.08,0.076171875,-1.00634765625,0.02587890625,-0.44274809160305345,0.183206106870229,-1.3129770992366412
3.09,0.074951171875,-0.986572265625,0.018798828125,-0.5725190839694656,-0.19083969465648856,-1.3969465648854962
3.1,0.068115234375,-1.0107421875,0.0205078125,-0.3893129770992366,0.10687022900763359,-1.4122137404580153
3.11,0.06640625,-0.98876953125,0.035400390625,-0.6564885496183206,-0.15267175572519084,-1.2900763358778626
3.12,0.0712890625,-0.999755859375,0.029296875,-0.3282442748091603,-1.9389312977099236,-1.3358778625954197
3.13,0.0673828125,-0.99755859375,0.025634765625,-0.4961832061068702,-0.061068702290076333,-1.5419847328244274
3.14,0.0712890625,-0.99951171875,0.023681640625,-0.4122137404580153,-0.26717557251908397,-1.381679389312977
3.15,0.068115234375,-0.998291015625,0.03173828125,-0.40458015267175573,1.8625954198473282,-1.1755725190839694
3.16,0.072265625,-0.989501953125,0.02294921875,-0.6946564885496184,1.9389312977099236,-1.3893129770992367
3.17,0.07373046875,-1.001953125,0.0224609375,-0.33587786259541985,-0.022900763358778626,-1.4427480916030535
3.18,0.070556640625,-0.998291015625,0.026123046875,-0.4732824427480916,-0.13740458015267176,-1.4961832061068703
3.19,0.0703125,-1.00048828125,0.021240234375,-0.37404580152671757,1.9083969465648856,-1.3969465648854962
3.2,0.063232421875,-0.99462890625,0.029052734375,-0.33587786259541985,-0.07633587786259542,-1.5114503816793894
3.21,0.0634765625,-0.9931640625,0.021240234375,-0.48091603053435117,-0.05343511450381679,-1.3053435114503817
3.22,0.068115234375,-1.003662109375,0.02685546875,-0.5419847328244275,-0.022900763358778626,-1.381679389312977
3.23,0.06591796875,-0.99658203125,0.02392578125,-0.5038167938931297,0.07633587786259542,-1.3511450381679388
3.24,0.069091796875,-0.989501953125,0.043212890625,-0.35877862595419846,-0.183206106870229,-1.3206106870229009
3.25,0.069580078125,-0.995849609375,0.026123046875,-0.45038167938931295,-0.2595419847328244,-1.2748091603053435
3.26,0.068603515625,-1.001220703125,0.022705078125,-0.6335877862595419,-1.9083969465648856,-1.549618320610687
3.27,0.06787109375,-1.0,0.029296875,-0.3969465648854962,-0.015267175572519083,-1.4351145038167938
3.28,0.071044921875,-0.996337890625,0.023681640625,-0.4122137404580153,-0.13740458015267176,-1.4885496183206106
3.29,0.069580078125,-1.000244140625,0.026611328125,-0.3435114503816794,-0.007633587786259542,-1.4427480916030535
3.3,0.06982421875,-1.000732421875,0.0234375,-0.40458015267175573,-0.22137404580152673,-1.4427480916030535
3.31,0.067626953125,-0.9990234375,0.025390625,-0.4580152671755725,-0.3053435114503817,-1.2671755725190839
3.32,0.07080078125,-0.98876953125,0.02197265625,-0.5114503816793893,-0.09923664122137404,-1.2595419847328244
3.33,0.067626953125,-1.000244140625,0.0439453125,-0.4961832061068702,-0.10687022900763359,-1.3435114503816794
3.34,0.062744140625,-0.990478515625,0.0234375,-0.4732824427480916,-0.11450381679389313,-1.4122137404580153
3.35,0.06640625,-1.00634765625,0.02978515625,-0.44274809160305345,-1.9312977099236641,-1.3969465648854962
3.36,0.06689453125,-1.0,0.021240234375,-0.2900763358778626,-0.0916030534351145,-1.4198473282442747
3.37,0.069091796875,-0.98828125,0.019287109375,-0.6259541984732825,-0.17557251908396945,-1.381679389312977
3.38,0.049072265625,-1.015625,0.02783203125,-0.3969465648854962,0.09923664122137404,-1.5038167938931297
3.39,0.070068359375,-0.986328125,0.026123046875,-0.42748091603053434,0.06870229007633588,-1.3282442748091603
3.4,0.067138671875,-0.9921875,0.02685546875,-0.48854961832061067,-0.06870229007633588,-1.5267175572519085
3.41,0.066162109375,-0.999267578125,0.02294921875,-0.4351145038167939,-0.17557251908396945,-1.4885496183206106
3.42,0.06982421875,-1.001953125,0.021484375,-0.4732824427480916,-0.25190839694656486,-1.4580152671755726
3.43,0.0703125,-1.000244140625,0.029052734375,-0.5572519083969466,1.9312977099236641,-1.3206106870229009
3.44,0.0703125,-0.985595703125,0.031005859375,-0.3511450381679389,-0.10687022900763359,-1.3053435114503817
3.45,0.066650390625,-1.0107421875,0.022216796875,-0.48854961832061067,0.061068702290076333,-1.3969465648854962
3.46,0.067626953125,-0.9892578125,0.01904296875,-0.48091603053435117,-0.32061068702290074,-1.3587786259541985
3.47,0.0703125,-1.0029296875,0.01806640625,-0.19083969465648856,-1.9389312977099236,-1.297709923664122
3.48,0.072509765625,-1.0009765625,0.030517578125,-0.366412213740458,-0.19083969465648856,-1.4732824427480915
3.49,0.06689453125,-1.006591796875,0.02734375,-0.5190839694656488,-0.15267175572519084,-1.251908396946565
3.5,0.072265625,-1.000244140625,0.026611328125,-0.3816793893129771,-0.1450381679389313,-1.3511450381679388
3.51,0.07177734375,-1.0029296875,0.025390625,-0.549618320610687,-0.08396946564885496,-1.2671755725190839
3.52,0.068359375,-1.00830078125,0.02490234375,-0.48854961832061067,-0.15267175572519084,-1.3587786259541985
3.53,0.070068359375,-0.9970703125,0.02880859375,-0.45038167938931295,-1.9312977099236641,-1.366412213740458
3.54,0.0693359375,-0.997314453125,0.02587890625,-0.2748091603053435,-0.20610687022900764,-1.3129770992366412
3.55,0.0732421875,-1.001708984375,0.024658203125,-0.32061068702290074,1.8625954198473282,-1.3969465648854962
3.56,0.063720703125,-1.00390625,0.031005859375,-0.549618320610687,0.05343511450381679,-1.3282442748091603
3.57,0.06689453125,-1.002197265625,0.02734375,-0.20610687022900764,-1.8931297709923665,-1.3969465648854962
3.58,0.0771484375,-0.997802734375,0.035400390625,-0.6412213740458015,-1.9389312977099236,-1.4580152671755726
3.59,0.068115234375,-0.999267578125,0.019775390625,-0.4732824427480916,-0.1450381679389313,-1.3282442748091603
3.6,0.0703125,-1.00341796875,0.027587890625,-0.3969465648854962,-0.061068702290076333,-1.2442748091603053
3.61,0.06689453125,-1.01318359375,0.04248046875,-0.5038167938931297,-0.04580152671755725,-1.3053435114503817
3.62,0.072998046875,-0.99658203125,0.042236328125,-0.3511450381679389,0.08396946564885496,-1.3893129770992367
3.63,0.071533203125,-0.999755859375,0.03564453125,-0.4351145038167939,-0.007633587786259542,-1.4809160305343512
3.64,0.0703125,-1.003173828125,0.030517578125,-0.5267175572519084,-0.16030534351145037,-1.2671755725190839
3.65,0.071533203125,-1.005126953125,0.023681640625,-0.5877862595419847,-0.3053435114503817,-1.4427480916030535
3.66,0.0712890625,-1.014892578125,0.034423828125,-0.48091603053435117,0.0,-1.366412213740458
3.67,0.06640625,-1.01513671875,0.0224609375,-0.5038167938931297,-0.007633587786259542,-1.3129770992366412
3.68,0.0615234375,-0.98779296875,0.0419921875,-0.25190839694656486,-0.13740458015267176,-1.3587786259541985
3.69,0.066650390625,-0.99658203125,0.03564453125,-0.4122137404580153,-0.19083969465648856,-1.3740458015267176
3.7,0.07275390625,-1.00341796875,0.031494140625,-0.5801526717557252,-0.030534351145038167,-1.4809160305343512
3.71,0.072021484375,-0.99951171875,0.02587890625,-0.3816793893129771,-0.05343511450381679,-1.381679389312977
3.72,0.0703125,-1.004150390625,0.0224609375,-0.4122137404580153,-0.06870229007633588,-1.3893129770992367
3.73,0.048583984375,-0.99755859375,0.026611328125,-0.5954198473282443,-0.11450381679389313,-1.3969465648854962
3.74,0.0673828125,-0.9970703125,0.025634765625,-0.3893129770992366,0.06870229007633588,-1.549618320610687
3.75,0.072265625,-0.998779296875,0.039306640625,-0.13740458015267176,-0.35877862595419846,-1.4274809160305344
3.76,0.072265625,-0.99853515625,0.027587890625,-0.32061068702290074,-0.09923664122137404,-1.5877862595419847
3.77,0.06787109375,-0.996826171875,0.037109375,-0.40458015267175573,-0.0916030534351145,-1.3358778625954197
3.78,0.065673828125,-1.00341796875,0.026611328125,-0.3435114503816794,-0.26717557251908397,-1.4122137404580153
3.79,0.069091796875,-0.99462890625,0.023193359375,-0.6412213740458015,-0.05343511450381679,-1.4045801526717556
3.8,0.0703125,-1.01220703125,0.0146484375,-0.549618320610687,0.13740458015267176,-1.3969465648854962
3.81,0.067138671875,-1.01416015625,0.02880859375,-0.37404580152671757,0.015267175572519083,-1.4580152671755726
3.82,0.069091796875,-0.998779296875,0.024169921875,-0.061068702290076333,-0.1984732824427481,-1.366412213740458
3.83,0.066650390625,-0.998779296875,0.03076171875,-0.24427480916030533,0.183206106870229,-1.4274809160305344
3.84,0.072998046875,-0.995849609375,0.02783203125,-0.26717557251908397,0.04580152671755725,-1.2748091603053435
3.85,0.0693359375,-0.99951171875,0.0234375,-0.5877862595419847,-0.20610687022900764,-1.3511450381679388
3.86,0.0712890625,-1.0048828125,0.02392578125,-0.7251908396946565,-0.17557251908396945,-1.1755725190839694
3.87,0.0712890625,-0.99609375,0.021484375,-0.4580152671755725,-0.12213740458015267,-1.1984732824427482
3.88,0.0703125,-1.001220703125,0.02490234375,-0.3053435114503817,0.061068702290076333,-1.4122137404580153
3.89,0.070068359375,-0.986083984375,0.023681640625,-0.37404580152671757,-1.8854961832061068,-1.4274809160305344
3.9,0.0654296875,-0.98828125,0.02587890625,-0.4580152671755725,-0.015267175572519083,-1.3740458015267176
3.91,0.06640625,-0.9970703125,0.02880859375,-0.5954198473282443,-0.05343511450381679,-1.1908396946564885
3.92,0.069580078125,-1.001708984375,0.025390625,-0.48091603053435117,-0.15267175572519084,-1.4045801526717556
3.93,0.068359375,-0.999755859375,0.0263671875,-0.4732824427480916,-1.9541984732824427,-1.282442748091603
3.94,0.0693359375,-0.997802734375,0.028076171875,-0.5648854961832062,0.022900763358778626,-1.450381679389313
3.95,0.0654296875,-0.9853515625,0.0263671875,-0.5190839694656488,1.8854961832061068,-1.3282442748091603
3.96,0.07177734375,-0.99560546875,0.0283203125,-0.4122137404580153,0.04580152671755725,-1.450381679389313
3.97,0.071533203125,-0.98779296875,0.030029296875,-0.37404580152671757,-0.0916030534351145,-1.4045801526717556
3.98,0.0654296875,-1.00146484375,0.015625,-0.4198473282442748,-0.07633587786259542,-1.3587786259541985
3.99,0.07470703125,-0.99609375,0.029052734375,-0.29770992366412213,-0.05343511450381679,-1.3740458015267176
4.0,0.068603515625,-0.997314453125,0.03271484375,-0.5419847328244275,0.07633587786259542,-1.1984732824427482
4.01,0.071533203125,-1.001708984375,0.023193359375,-0.6793893129770993,0.007633587786259542,-1.465648854961832
4.02,0.063232421875,-0.9990234375,0.02490234375,-0.732824427480916,0.007633587786259542,-1.366412213740458
4.03,0.0654296875,-1.002685546875,0.029541015625,-0.3893129770992366,-0.022900763358778626,-1.381679389312977
4.04,0.068359375,-0.999755859375,0.0185546875,-0.21374045801526717,-0.09923664122137404,-1.4198473282442747
4.05,0.072021484375,-1.003173828125,0.02490234375,-0.3053435114503817,0.13740458015267176,-1.534351145038168
4.06,0.071044921875,-0.9921875,0.031005859375,-0.48091603053435117,-0.0916030534351145,-1.4274809160305344
4.07,0.07275390625,-0.995849609375,0.02783203125,-0.5648854961832062,-0.04580152671755725,-1.3740458015267176
4.08,0.07763671875,-1.0029296875,0.031494140625,-0.3282442748091603,-0.05343511450381679,-1.5114503816793894
4.09,0.066650390625,-1.003173828125,0.021484375,-0.22137404580152673,0.15267175572519084,-1.3511450381679388
4.1,0.075439453125,-0.998046875,0.026123046875,-0.5725190839694656,-0.1450381679389313,-1.3129770992366412
4.11,0.06201171875,-0.996826171875,0.026611328125,-0.6259541984732825,-0.030534351145038167,-1.3511450381679388
4.12,0.06884765625,-1.001220703125,0.042236328125,-0.4198473282442748,-0.2366412213740458,-1.4274809160305344
4.13,0.06689453125,-1.002685546875,0.025146484375,-0.45038167938931295,-0.22137404580152673,-1.3358778625954197
4.14,0.072021484375,-0.99365234375,0.016357421875,-0.4732824427480916,-0.04580152671755725,-1.3893129770992367
4.15,0.066650390625,-1.00341796875,0.0244140625,-0.6564885496183206,-0.08396946564885496,-1.4580152671755726
4.16,0.07275390625,-1.007080078125,0.03662109375,-0.549618320610687,0.04580152671755725,-1.2900763358778626
4.17,0.049560546875,-0.987548828125,0.02587890625,-0.5038167938931297,1.9312977099236641,-1.3740458015267176
4.18,0.07470703125,-0.985107421875,0.02197265625,-0.6183206106870229,-0.1297709923664122,-1.4198473282442747
4.19,0.072021484375,-1.001953125,0.023681640625,-0.366412213740458,1.9236641221374047,-1.3587786259541985
4.2,0.0712890625,-0.99658203125,0.019287109375,-0.44274809160305345,-0.20610687022900764,-1.4122137404580153
4.21,0.068115234375,-1.00048828125,0.026123046875,-0.3435114503816794,-0.022900763358778626,-1.450381679389313
4.22,0.06787109375,-0.999267578125,0.020263671875,-0.6412213740458015,0.10687022900763359,-1.4351145038167938
4.23,0.07373046875,-0.997802734375,0.021240234375,-0.7099236641221374,0.06870229007633588,-1.4274809160305344
4.24,0.066650390625,-0.98974609375,0.0244140625,-0.3893129770992366,-0.06870229007633588,-1.5038167938931297
4.25,0.067626953125,-1.002197265625,0.02099609375,-0.35877862595419846,-0.13740458015267176,-1.5267175572519085
4.26,0.073486328125,-0.998291015625,0.015625,-0.4732824427480916,-1.9083969465648856,-1.4274809160305344
4.27,0.061767578125,-1.00048828125,0.033447265625,-0.48091603053435117,-0.08396946564885496,-1.4809160305343512
4.28,0.067626953125,-0.993408203125,0.0380859375,-0.40458015267175573,-1.900763358778626,-1.4885496183206106
4.29,0.07080078125,-0.995361328125,0.03173828125,-0.5267175572519084,0.061068702290076333,-1.3893129770992367
4.3,0.06982421875,-0.99365234375,0.0205078125,-0.5038167938931297,-0.1297709923664122,-1.450381679389313
4.31,0.0693359375,-0.998046875,0.025634765625,-0.42748091603053434,-0.022900763358778626,-1.4809160305343512
4.32,0.068603515625,-1.00439453125,0.02685546875,-0.4351145038167939,-0.05343511450381679,-1.3511450381679388
4.33,0.068115234375,-1.000732421875,0.0224609375,-0.37404580152671757,0.06870229007633588,-1.083969465648855
4.34,0.066650390625,-1.001220703125,0.02587890625,-0.29770992366412213,0.06870229007633588,-1.5190839694656488
4.35,0.06787109375,-1.001220703125,0.03369140625,-0.3435114503816794,1.9083969465648856,-1.2061068702290076
4.36,0.070068359375,-0.9931640625,0.02001953125,-0.5954198473282443,0.007633587786259542,-1.3435114503816794
4.37,0.068603515625,-0.9990234375,0.035888671875,-0.5343511450381679,-0.022900763358778626,-1.366412213740458
4.38,0.068603515625,-1.000732421875,0.02685546875,-0.5114503816793893,-0.22900763358778625,-1.4274809160305344
4.39,0.068603515625,-0.9990234375,0.02099609375,-0.6106870229007634,-0.06870229007633588,-1.4961832061068703
4.4,0.071044921875,-1.000244140625,0.0458984375,-0.12213740458015267,0.015267175572519083,-1.3893129770992367
4.41,0.05712890625,-0.999755859375,0.02001953125,-0.22900763358778625,1.9389312977099236,-1.3206106870229009
4.42,0.069580078125,-0.997314453125,0.02587890625,-0.4961832061068702,-0.16793893129770993,-1.1603053435114503
4.43,0.0673828125,-0.9970703125,0.027099609375,-0.7404580152671756,0.007633587786259542,-1.282442748091603
4.44,0.068359375,-0.992431640625,0.02734375,-0.5954198473282443,-1.9389312977099236,-1.2595419847328244
4.45,0.0712890625,-1.0,0.037109375,-0.42748091603053434,-0.03816793893129771,-1.3282442748091603
4.46,0.072021484375,-0.9970703125,0.030517578125,-0.3053435114503817,0.007633587786259542,-1.5114503816793894
4.47,0.068115234375,-1.004638671875,0.0224609375,-0.3435114503816794,-0.19083969465648856,-1.3129770992366412
4.48,0.071044921875,-0.998046875,0.018310546875,-0.4732824427480916,-0.09923664122137404,-1.3511450381679388
4.49,0.070068359375,-0.998779296875,0.029052734375,-0.5190839694656488,-1.9541984732824427,-1.450381679389313
4.5,0.072021484375,-0.9951171875,0.020263671875,-0.3969465648854962,-1.9389312977099236,-1.4809160305343512
4.51,0.067138671875,-0.9951171875,0.02783203125,-0.42748091603053434,-0.05343511450381679,-1.1526717557251909
4.52,0.0654296875,-0.99853515625,0.021240234375,-0.4122137404580153,-0.03816793893129771,-1.381679389312977
4.53,0.06591796875,-0.99267578125,0.018798828125,-0.46564885496183206,-0.11450381679389313,-1.2061068702290076
4.54,0.070068359375,-0.9990234375,0.021728515625,-0.3282442748091603,0.05343511450381679,-1.381679389312977
4.55,0.061767578125,-1.00341796875,0.0224609375,-0.5267175572519084,-0.17557251908396945,-1.2290076335877862
4.56,0.0703125,-1.000244140625,0.032958984375,-0.6259541984732825,-1.9465648854961832,-1.4274809160305344
4.57,0.068115234375,-0.9990234375,0.026611328125,-0.3893129770992366,-0.09923664122137404,-1.3893129770992367
4.58,0.06396484375,-0.996826171875,0.019287109375,-0.4351145038167939,-0.07633587786259542,-1.4732824427480915
4.59,0.06787109375,-1.0009765625,0.023193359375,-0.6412213740458015,-1.9389312977099236,-1.4427480916030535
4.6,0.06689453125,-1.004150390625,0.02783203125,-0.6717557251908397,-0.26717557251908397,-1.5114503816793894
4.61,0.068603515625,-0.99853515625,0.023193359375,-0.4198473282442748,-0.16793893129770993,-1.4351145038167938
4.62,0.0712890625,-1.0029296875,0.0224609375,-0.44274809160305345,0.06870229007633588,-1.3282442748091603
4.63,0.07177734375,-0.997802734375,0.030029296875,-0.5648854961832062,-0.1450381679389313,-1.3282442748091603
4.64,0.069580078125,-1.00048828125,0.0263671875,-0.32061068702290074,-0.16030534351145037,-1.3435114503816794
4.65,0.07080078125,-0.998779296875,0.0185546875,-0.5648854961832062,0.09923664122137404,-1.3587786259541985
4.66,0.06494140625,-0.985107421875,0.027587890625,-0.5725190839694656,-0.030534351145038167,-1.3969465648854962
4.67,0.065673828125,-1.00244140625,0.02587890625,-0.37404580152671757,0.05343511450381679,-1.282442748091603
4.68,0.062744140625,-0.999755859375,0.01611328125,-0.2824427480916031,-0.11450381679389313,-1.3511450381679388
4.69,0.063232421875,-1.0,0.02880859375,-0.4732824427480916,-0.20610687022900764,-1.450381679389313
4.7,0.06640625,-1.00390625,0.02587890625,-0.5114503816793893,-0.26717557251908397,-1.1526717557251909
4.71,0.072265625,-0.99609375,0.033203125,-0.44274809160305345,-0.0916030534351145,-1.4427480916030535
4.72,0.0673828125,-0.999755859375,0.02490234375,-0.46564885496183206,-0.07633587786259542,-1.3129770992366412
4.73,0.072998046875,-0.98583984375,0.02978515625,-0.4580152671755725,-1.9465648854961832,-1.4427480916030535
4.74,0.075439453125,-0.996337890625,0.03125,-0.48091603053435117,-0.015267175572519083,-1.2290076335877862
4.75,0.0703125,-1.01220703125,0.021728515625,-0.37404580152671757,-0.1450381679389313,-1.5648854961832062
4.76,0.06787109375,-1.003173828125,0.029052734375,-0.5190839694656488,0.061068702290076333,-1.251908396946565
4.77,0.0693359375,-1.004150390625,0.026611328125,-0.26717557251908397,-0.2824427480916031,-1.5648854961832062
4.78,0.067626953125,-0.9990234375,0.029052734375,-0.3053435114503817,0.08396946564885496,-1.3587786259541985
4.79,0.066650390625,-1.00048828125,0.019775390625,-0.33587786259541985,-0.12213740458015267,-1.4198473282442747
4.8,0.071533203125,-0.995849609375,0.028076171875,-0.48091603053435117,0.1984732824427481,-1.3969465648854962
4.81,0.068603515625,-1.00048828125,0.02197265625,-0.5877862595419847,-0.1297709923664122,-1.297709923664122
4.82,0.06591796875,-0.99169921875,0.024169921875,-0.549618320610687,-0.1297709923664122,-1.3053435114503817
4.83,0.072509765625,-1.0029296875,0.02294921875,-0.09923664122137404,-0.1297709923664122,-1.381679389312977
4.84,0.072265625,-1.000244140625,0.024658203125,-0.35877862595419846,-0.04580152671755725,-1.3893129770992367
4.85,0.0654296875,-0.999267578125,0.031005859375,-0.6412213740458015,-0.061068702290076333,-1.2900763358778626
4.86,0.0615234375,-1.003173828125,0.02001953125,-0.2748091603053435,0.10687022900763359,-1.3358778625954197
4.87,0.069580078125,-0.995361328125,0.023193359375,-0.4122137404580153,0.07633587786259542,-1.3282442748091603
4.88,0.0703125,-1.005615234375,0.016845703125,-0.48091603053435117,-0.183206106870229,-1.297709923664122
4.89,0.07177734375,-0.990966796875,0.031005859375,-0.37404580152671757,0.06870229007633588,-1.3740458015267176
4.9,0.06787109375,-0.999755859375,0.026611328125,-0.44274809160305345,0.0,-1.3893129770992367
4.91,0.065185546875,-0.99462890625,0.02587890625,-0.3893129770992366,-0.07633587786259542,-1.3053435114503817
4.92,0.068359375,-0.9990234375,0.02099609375,-0.20610687022900764,-0.015267175572519083,-1.3358778625954197
4.93,0.07470703125,-0.995849609375,0.018310546875,-0.26717557251908397,-0.061068702290076333,-1.4351145038167938
4.94,0.067138671875,-1.0068359375,0.029052734375,-0.40458015267175573,0.030534351145038167,-1.4045801526717556
4.95,0.07177734375,-1.000244140625,0.040283203125,-0.4351145038167939,0.05343511450381679,-1.366412213740458
4.96,0.072509765625,-1.001953125,0.017822265625,-0.5648854961832062,0.022900763358778626,-1.3358778625954197
4.97,0.070068359375,-1.002197265625,0.0224609375,-0.44274809160305345,-0.2748091603053435,-1.3587786259541985
4.98,0.06640625,-0.99755859375,0.0322265625,-0.5267175572519084,0.03816793893129771,-1.4809160305343512
4.99,0.0634765625,-0.994873046875,0.032470703125,-0.4351145038167939,-0.183206106870229,-1.5038167938931297
5.0,0.065185546875,-0.998046875,0.02490234375,-0.3511450381679389,-0.05343511450381679,-1.366412213740458
5.01,0.06787109375,-0.99853515625,0.024169921875,-0.25190839694656486,-0.022900763358778626,-1.3358778625954197
5.02,0.0732421875,-1.01171875,0.0302734375,-0.4732824427480916,-0.07633587786259542,-1.4198473282442747
5.03,0.0654296875,-0.998779296875,0.023193359375,-0.4351145038167939,0.09923664122137404,-1.4122137404580153
5.04,0.076904296875,-1.001220703125,0.023681640625,-0.5954198473282443,-0.06870229007633588,-1.2595419847328244
5.05,0.068359375,-1.002197265625,0.017822265625,-0.5343511450381679,-0.2366412213740458,-1.4961832061068703
5.06,0.071044921875,-0.995849609375,0.031982421875,-0.3893129770992366,-0.183206106870229,-1.4198473282442747
5.07,0.06884765625,-0.994140625,0.02392578125,-0.3511450381679389,1.916030534351145,-1.450381679389313
5.08,0.066650390625,-0.99609375,0.023681640625,-0.366412213740458,-1.9312977099236641,-1.450381679389313
5.09,0.06884765625,-0.986572265625,0.026123046875,-0.46564885496183206,-0.030534351145038167,-1.4045801526717556
5.1,0.0712890625,-0.996337890625,0.02880859375,-0.4351145038167939,0.015267175572519083,-1.5572519083969465
5.11,0.068115234375,-0.98681640625,0.021240234375,-0.5954198473282443,-0.24427480916030533,-1.282442748091603
5.12,0.065673828125,-0.998779296875,0.01904296875,-0.2900763358778626,0.12213740458015267,-1.5114503816793894
5.13,0.064208984375,-1.001220703125,0.03271484375,-0.2824427480916031,-0.183206106870229,-1.4732824427480915
5.14,0.069580078125,-0.998046875,0.03564453125,-0.40458015267175573,-0.17557251908396945,-1.4122137404580153
5.15,0.0625,-0.998046875,0.020263671875,-0.6259541984732825,-0.0916030534351145,-1.4351145038167938
5.16,0.066162109375,-0.99951171875,0.0283203125,-0.6106870229007634,-0.11450381679389313,-1.4580152671755726
5.17,0.07177734375,-0.99951171875,0.0185546875,-0.46564885496183206,-0.04580152671755725,-1.3282442748091603
5.18,0.06591796875,-1.01318359375,0.04052734375,-0.3053435114503817,-0.12213740458015267,-1.3893129770992367
5.19,0.068115234375,-0.999755859375,0.023681640625,-0.40458015267175573,1.9465648854961832,-1.3740458015267176
5.2,0.0634765625,-1.0029296875,0.030029296875,-0.3282442748091603,-0.05343511450381679,-1.3435114503816794
5.21,0.068115234375,-1.002197265625,0.021728515625,-0.2900763358778626,-1.9312977099236641,-1.3740458015267176
5.22,0.066162109375,-1.00146484375,0.017333984375,-0.44274809160305345,0.08396946564885496,-1.297709923664122
5.23,0.06982421875,-0.99951171875,0.028564453125,-0.31297709923664124,-0.11450381679389313,-1.4885496183206106
5.24,0.065673828125,-1.00146484375,0.017822265625,-0.48091603053435117,-0.2595419847328244,-1.5038167938931297
5.25,0.071044921875,-0.985595703125,0.02294921875,-0.6412213740458015,-0.03816793893129771,-1.3282442748091603
5.26,0.066650390625,-1.00146484375,0.015869140625,-0.5648854961832062,0.061068702290076333,-1.4732824427480915
5.27,0.069580078125,-0.99560546875,0.028076171875,-0.549618320610687,0.07633587786259542,-1.3053435114503817
5.28,0.062744140625,-0.9951171875,0.024658203125,-0.21374045801526717,1.9083969465648856,-1.4122137404580153
5.29,0.065673828125,-1.00048828125,0.028564453125,-0.31297709923664124,-0.1297709923664122,-1.1374045801526718
5.3,0.070556640625,-1.002685546875,0.02294921875,-0.3816793893129771,0.0916030534351145,-1.3435114503816794
5.31,0.074462890625,-0.988525390625,0.025634765625,-0.6412213740458015,-1.9312977099236641,-1.3435114503816794
5.32,0.06640625,-1.0009765625,0.0185546875,-0.5572519083969466,-0.1450381679389313,-1.5572519083969465
5.33,0.07275390625,-1.00244140625,0.0283203125,-0.4961832061068702,0.022900763358778626,-1.465648854961832
5.34,0.06689453125,-1.00048828125,0.0185546875,-0.4732824427480916,-0.007633587786259542,-1.251908396946565
5.35,0.06298828125,-1.0009765625,0.028564453125,-0.31297709923664124,-0.06870229007633588,-1.3206106870229009
5.36,0.067138671875,-1.0029296875,0.027099609375,-0.5648854961832062,-0.10687022900763359,-1.4580152671755726
5.37,0.068603515625,-1.0009765625,0.033203125,-0.4122137404580153,-0.09923664122137404,-1.3435114503816794
5.38,0.069580078125,-1.001220703125,0.028076171875,-0.6946564885496184,-0.022900763358778626,-1.4427480916030535
5.39,0.06884765625,-1.0146484375,0.029296875,-0.33587786259541985,-0.11450381679389313,-1.3511450381679388
5.4,0.072265625,-0.99853515625,0.02587890625,-0.4351145038167939,1.9236641221374047,-1.5038167938931297
5.41,0.067626953125,-1.00048828125,0.020751953125,-0.3511450381679389,0.09923664122137404,-1.3740458015267176
5.42,0.070068359375,-1.00048828125,0.02880859375,-0.366412213740458,0.16030534351145037,-1.4732824427480915
5.43,0.0625,-1.0048828125,0.02294921875,-0.3969465648854962,-1.9083969465648856,-1.251908396946565
5.44,0.06982421875,-1.006103515625,0.029052734375,-0.44274809160305345,-0.015267175572519083,-1.4045801526717556
5.45,0.0712890625,-1.00537109375,0.021728515625,-0.31297709923664124,-1.8854961832061068,-1.381679389312977
5.46,0.067626953125,-0.985107421875,0.029052734375,-0.48091603053435117,0.03816793893129771,-1.450381679389313
5.47,0.06884765625,-1.001220703125,0.034912109375,-0.45038167938931295,-1.9312977099236641,-1.16793893129771
5.48,0.0673828125,-1.003173828125,0.025634765625,-0.5267175572519084,-0.04580152671755725,-1.4274809160305344
5.49,0.069091796875,-0.99755859375,0.02880859375,-0.31297709923664124,-0.11450381679389313,-1.16793893129771
5.5,0.069580078125,-1.001220703125,0.02392578125,-0.3282442748091603,-0.26717557251908397,-1.3740458015267176
5.51,0.06689453125,-1.000244140625,0.015869140625,-0.3511450381679389,0.08396946564885496,-1.381679389312977
5.52,0.071533203125,-0.998779296875,0.021484375,-0.2748091603053435,-0.13740458015267176,-1.4198473282442747
5.53,0.0703125,-1.0146484375,0.03076171875,-0.44274809160305345,-1.900763358778626,-1.3358778625954197
5.54,0.068359375,-0.99755859375,0.02734375,-0.648854961832061,-0.15267175572519084,-1.3206106870229009
5.55,0.071044921875,-1.0029296875,0.01513671875,-0.5419847328244275,0.05343511450381679,-1.3587786259541985
5.56,0.064453125,-1.000244140625,0.03125,-0.32061068702290074,-0.13740458015267176,-1.5877862595419847
5.57,0.067626953125,-1.005615234375,0.030517578125,-0.3969465648854962,-0.15267175572519084,-1.2900763358778626
5.58,0.068603515625,-1.00048828125,0.0283203125,-0.3435114503816794,-0.03816793893129771,-1.4274809160305344
5.59,0.07177734375,-1.007568359375,0.0166015625,-0.5343511450381679,0.19083969465648856,-1.3740458015267176
5.6,0.06787109375,-0.99658203125,0.02197265625,-0.4580152671755725,-0.061068702290076333,-1.5038167938931297
5.61,0.067626953125,-0.999267578125,0.0224609375,-0.366412213740458,-0.015267175572519083,-1.6641221374045803
5.62,0.07470703125,-1.0048828125,0.0302734375,-0.48091603053435117,1.9389312977099236,-1.2366412213740459
5.63,0.073486328125,-0.99560546875,0.030029296875,-0.29770992366412213,-0.061068702290076333,-1.450381679389313
5.64,0.068603515625,-1.00048828125,0.022216796875,-0.4580152671755725,-0.1297709923664122,-1.3129770992366412
5.65,0.07373046875,-1.014892578125,0.02392578125,-0.3435114503816794,0.030534351145038167,-1.3511450381679388
5.66,0.069580078125,-0.9853515625,0.026611328125,-0.7175572519083969,0.03816793893129771,-1.549618320610687
5.67,0.078125,-1.000244140625,0.025146484375,-0.45038167938931295,-0.21374045801526717,-1.450381679389313
5.68,0.070556640625,-1.00244140625,0.026611328125,-0.5267175572519084,-0.09923664122137404,-1.3740458015267176
5.69,0.06884765625,-0.997802734375,0.022216796875,-0.4122137404580153,-1.9541984732824427,-1.282442748091603
5.7,0.067626953125,-1.005859375,0.02294921875,-0.44274809160305345,-0.183206106870229,-1.3740458015267176
5.71,0.067626953125,-0.994140625,0.02294921875,-0.48854961832061067,-0.09923664122137404,-1.3129770992366412
5.72,0.063720703125,-0.987060546875,0.0244140625,-0.3511450381679389,-1.9389312977099236,-1.3358778625954197
5.73,0.064453125,-1.00146484375,0.028564453125,-0.8320610687022901,-0.2748091603053435,-1.549618320610687
5.74,0.063232421875,-0.9892578125,0.028564453125,-0.5343511450381679,-0.25190839694656486,-1.2442748091603053
5.75,0.072509765625,-0.999755859375,0.027099609375,-0.45038167938931295,0.061068702290076333,-1.366412213740458
5.76,0.069091796875,-0.996826171875,0.033203125,-0.46564885496183206,0.07633587786259542,-1.3435114503816794
5.77,0.069091796875,-1.001708984375,0.02783203125,-0.29770992366412213,-1.9541984732824427,-1.2900763358778626
5.78,0.068603515625,-0.996337890625,0.030029296875,-0.4122137404580153,-0.03816793893129771,-1.4885496183206106
5.79,0.067138671875,-0.9970703125,0.02734375,-0.48091603053435117,-0.2748091603053435,-1.3969465648854962
5.8,0.0693359375,-1.0126953125,0.0263671875,-0.7022900763358778,-0.015267175572519083,-1.4885496183206106
5.81,0.069580078125,-0.988037109375,0.028564453125,-0.4122137404580153,0.022900763358778626,-1.3587786259541985
5.82,0.07177734375,-1.00146484375,0.02685546875,-0.4351145038167939,0.06870229007633588,-1.2442748091603053
5.83,0.06982421875,-0.99658203125,0.0302734375,-0.3893129770992366,1.9465648854961832,-1.2366412213740459
5.84,0.07080078125,-0.99609375,0.025634765625,-0.6030534351145038,-0.1297709923664122,-1.2671755725190839
5.85,0.072509765625,-1.001708984375,0.021728515625,-0.4351145038167939,-0.07633587786259542,-1.2061068702290076
5.86,0.0634765625,-0.99853515625,0.026611328125,-0.4732824427480916,-0.20610687022900764,-1.4427480916030535
5.87,0.048095703125,-0.998046875,0.044921875,-0.3282442748091603,-0.183206106870229,-1.3053435114503817
5.88,0.07470703125,-0.996337890625,0.024169921875,-0.29770992366412213,-0.15267175572519084,-1.618320610687023
5.89,0.06689453125,-1.002685546875,0.025390625,-0.5419847328244275,-1.9236641221374047,-1.297709923664122
5.9,0.076171875,-1.00341796875,0.02099609375,-0.5648854961832062,-0.06870229007633588,-1.3053435114503817
5.91,0.066162109375,-0.997802734375,0.024658203125,-0.31297709923664124,-0.04580152671755725,-1.4427480916030535
5.92,0.064453125,-0.999267578125,0.026611328125,-0.5877862595419847,0.007633587786259542,-1.2748091603053435
5.93,0.068603515625,-1.0146484375,0.02587890625,-0.366412213740458,-0.26717557251908397,-1.534351145038168
5.94,0.070068359375,-1.001220703125,0.029052734375,-0.5114503816793893,-0.15267175572519084,-1.366412213740458
5.95,0.072265625,-1.00439453125,0.027099609375,-0.5725190839694656,-0.20610687022900764,-1.3511450381679388
5.96,0.066650390625,-1.0146484375,0.03466796875,-0.37404580152671757,0.04580152671755725,-1.5038167938931297
5.97,0.0634765625,-1.000732421875,0.027099609375,-0.35877862595419846,1.8931297709923665,-1.465648854961832
5.98,0.064453125,-0.998291015625,0.030517578125,-0.2748091603053435,-1.900763358778626,-1.3282442748091603
5.99,0.0703125,-0.9970703125,0.028564453125,-0.4732824427480916,0.03816793893129771,-1.4274809160305344
6.0,0.062744140625,-0.997802734375,0.029052734375,-0.5572519083969466,-0.030534351145038167,-1.4580152671755726
6.01,0.07275390625,-0.986328125,0.02294921875,-0.7175572519083969,0.03816793893129771,-1.2900763358778626
6.02,0.05419921875,-1.014404296875,0.02294921875,-0.5648854961832062,0.1297709923664122,-1.3206106870229009
6.03,0.070068359375,-0.999267578125,0.0302734375,-0.29770992366412213,-0.07633587786259542,-1.4198473282442747
6.04,0.0712890625,-1.005859375,0.01904296875,-0.3435114503816794,-0.11450381679389313,-1.3893129770992367
6.05,0.07177734375,-1.00048828125,0.02587890625,-0.4732824427480916,-0.17557251908396945,-1.3053435114503817
6.06,0.072265625,-1.000732421875,0.033447265625,-0.4732824427480916,-0.05343511450381679,-1.1755725190839694
6.07,0.081298828125,-1.001708984375,0.034423828125,-0.44274809160305345,-0.061068702290076333,-1.4122137404580153
6.08,0.065673828125,-0.999755859375,0.024658203125,-0.45038167938931295,0.08396946564885496,-1.3435114503816794
6.09,0.0654296875,-0.99951171875,0.0283203125,-0.5114503816793893,0.06870229007633588,-1.450381679389313
6.1,0.070068359375,-1.0,0.02490234375,-0.5190839694656488,-0.183206106870229,-1.450381679389313
6.11,0.06640625,-1.00390625,0.02880859375,-0.29770992366412213,-0.0916030534351145,-1.2595419847328244
6.12,0.066650390625,-1.0009765625,0.033447265625,-0.48854961832061067,0.05343511450381679,-1.4580152671755726
6.13,0.066650390625,-1.00390625,0.01806640625,-0.4732824427480916,-0.06870229007633588,-1.3511450381679388
6.14,0.069091796875,-1.0126953125,0.01904296875,-0.5267175572519084,-0.26717557251908397,-1.297709923664122
6.15,0.071044921875,-1.005859375,0.045166015625,-0.3816793893129771,-0.022900763358778626,-1.3206106870229009
6.16,0.068115234375,-1.001953125,0.027099609375,-0.5954198473282443,-0.10687022900763359,-1.5725190839694656
6.17,0.06591796875,-1.013671875,0.029052734375,-0.6030534351145038,-0.1450381679389313,-1.5725190839694656
6.18,0.066650390625,-0.9990234375,0.023681640625,-0.45038167938931295,0.03816793893129771,-1.4274809160305344
6.19,0.072021484375,-1.0,0.018310546875,-0.29770992366412213,-0.2824427480916031,-1.3206106870229009
6.2,0.07177734375,-0.998046875,0.026123046875,-0.4961832061068702,-0.1984732824427481,-1.2061068702290076
6.21,0.06689453125,-1.001708984375,0.03076171875,-0.37404580152671757,0.022900763358778626,-1.3740458015267176
6.22,0.066162109375,-1.001708984375,0.018798828125,-0.48091603053435117,0.03816793893129771,-1.2900763358778626
6.23,0.05419921875,-0.995849609375,0.02685546875,-0.6412213740458015,-0.20610687022900764,-1.4122137404580153
6.24,0.072265625,-1.0126953125,0.021728515625,-0.7480916030534351,-0.25190839694656486,-1.3358778625954197
6.25,0.06494140625,-0.99658203125,0.0263671875,-0.4732824427480916,1.8091603053435115,-1.3587786259541985
6.26,0.0693359375,-1.002197265625,0.021728515625,-0.2824427480916031,-1.9389312977099236,-1.3511450381679388
6.27,0.066162109375,-0.99658203125,0.0234375,-0.5190839694656488,-0.12213740458015267,-1.3206106870229009
6.28,0.0693359375,-0.99365234375,0.029296875,-0.37404580152671757,-0.0916030534351145,-1.465648854961832
6.29,0.07275390625,-1.012451171875,0.024658203125,-0.4198473282442748,0.04580152671755725,-1.297709923664122
6.3,0.07666015625,-0.99365234375,0.021728515625,-0.3282442748091603,0.16793893129770993,-1.4580152671755726
6.31,0.072265625,-1.000244140625,0.021728515625,-0.48854961832061067,0.04580152671755725,-1.3511450381679388
6.32,0.0693359375,-0.993896484375,0.030517578125,-0.4198473282442748,0.24427480916030533,-1.2748091603053435
6.33,0.069580078125,-1.0009765625,0.033447265625,-0.5954198473282443,1.8473282442748091,-1.2748091603053435
6.34,0.06640625,-0.998779296875,0.0263671875,-0.7709923664122137,0.15267175572519084,-1.4274809160305344
6.35,0.0712890625,-1.00048828125,0.028076171875,-0.45038167938931295,-0.022900763358778626,-1.4427480916030535
6.36,0.070556640625,-0.998779296875,0.03076171875,-0.2824427480916031,-0.13740458015267176,-1.366412213740458
6.37,0.066650390625,-0.994873046875,0.02783203125,-0.22900763358778625,-0.2595419847328244,-1.5267175572519085
6.38,0.065185546875,-1.003173828125,0.01953125,-0.5038167938931297,0.0,-1.2748091603053435
6.39,0.063720703125,-1.00244140625,0.021728515625,-0.5419847328244275,0.030534351145038167,-1.297709923664122
6.4,0.070556640625,-1.0078125,0.024658203125,-0.35877862595419846,-0.0916030534351145,-1.4198473282442747
6.41,0.0703125,-1.003173828125,0.0224609375,-0.5419847328244275,-0.1450381679389313,-1.2671755725190839
6.42,0.0693359375,-0.998046875,0.027099609375,-0.2595419847328244,-0.04580152671755725,-1.4732824427480915
6.43,0.063720703125,-0.986328125,0.029296875,-0.3435114503816794,-0.2748091603053435,-1.3435114503816794
6.44,0.068603515625,-1.001220703125,0.01611328125,-0.4198473282442748,0.22900763358778625,-1.549618320610687
6.45,0.066650390625,-1.006103515625,0.010009765625,-0.45038167938931295,-0.2824427480916031,-1.3053435114503817
6.46,0.06591796875,-1.00146484375,0.02392578125,-0.48854961832061067,-0.16030534351145037,-1.450381679389313
6.47,0.066650390625,-0.997802734375,0.024658203125,-0.32061068702290074,0.0,-1.3893129770992367
6.48,0.07177734375,-1.001220703125,0.027099609375,-0.2900763358778626,0.12213740458015267,-1.3740458015267176
6.49,0.071533203125,-0.999755859375,0.028564453125,-0.3816793893129771,-0.17557251908396945,-1.3587786259541985
6.5,0.06298828125,-1.0146484375,0.015380859375,-0.46564885496183206,-0.007633587786259542,-1.4809160305343512
6.51,0.068359375,-1.014404296875,0.020751953125,-0.48854961832061067,-0.0916030534351145,-1.297709923664122
6.52,0.072509765625,-1.002685546875,0.032958984375,-0.3893129770992366,-0.35877862595419846,-1.4045801526717556
6.53,0.068359375,-0.996337890625,0.0302734375,-0.37404580152671757,-0.20610687022900764,-1.4274809160305344
6.54,0.0693359375,-0.998291015625,0.0283203125,-0.42748091603053434,-1.9312977099236641,-1.3282442748091603
6.55,0.064697265625,-0.99951171875,0.026611328125,-0.45038167938931295,-1.9465648854961832,-1.3587786259541985
6.56,0.07373046875,-0.99755859375,0.02978515625,-0.4580152671755725,-0.08396946564885496,-1.3740458015267176
6.57,0.072021484375,-0.999755859375,0.017822265625,-0.24427480916030533,-1.9465648854961832,-1.5114503816793894
6.58,0.064697265625,-0.9990234375,0.024658203125,-0.33587786259541985,0.19083969465648856,-1.3893129770992367
6.59,0.06982421875,-0.999755859375,0.024658203125,-0.5877862595419847,-0.1297709923664122,-1.4580152671755726
6.6,0.071044921875,-1.0029296875,0.026611328125,-0.4198473282442748,0.19083969465648856,-1.282442748091603
6.61,0.068603515625,-1.0029296875,0.027099609375,-0.5801526717557252,-1.9541984732824427,-1.2748091603053435
6.62,0.072509765625,-1.00341796875,0.022705078125,-0.5419847328244275,-0.0916030534351145,-1.2595419847328244
6.63,0.0634765625,-0.9990234375,0.02099609375,-0.4122137404580153,-0.0916030534351145,-1.2213740458015268
6.64,0.06787109375,-1.0009765625,0.023681640625,-0.2900763358778626,0.07633587786259542,-1.5572519083969465
6.65,0.069580078125,-1.01416015625,0.0283203125,-0.5801526717557252,-0.20610687022900764,-1.4198473282442747
6.66,0.072998046875,-1.01318359375,0.0361328125,-0.4961832061068702,-0.09923664122137404,-1.3511450381679388
6.67,0.0673828125,-1.004638671875,0.025390625,-0.4122137404580153,0.12213740458015267,-1.450381679389313
6.68,0.067626953125,-1.00048828125,0.029541015625,-0.6793893129770993,0.04580152671755725,-1.5114503816793894
6.69,0.0703125,-1.00146484375,0.022216796875,-0.3511450381679389,0.1297709923664122,-1.3435114503816794
6.7,0.070556640625,-1.00439453125,0.034912109375,-0.37404580152671757,-0.25190839694656486,-1.282442748091603
6.71,0.076904296875,-1.00048828125,0.024169921875,-0.5572519083969466,-0.11450381679389313,-1.3206106870229009
6.72,0.0654296875,-0.994384765625,0.025634765625,-0.48854961832061067,-0.1450381679389313,-1.4045801526717556
6.73,0.071044921875,-0.99951171875,0.0458984375,-0.366412213740458,0.07633587786259542,-1.4351145038167938
6.74,0.067626953125,-1.001953125,0.0263671875,-0.4351145038167939,-0.10687022900763359,-1.4885496183206106
6.75,0.068603515625,-1.00146484375,0.02490234375,-0.46564885496183206,-0.03816793893129771,-1.3435114503816794
6.76,0.070068359375,-0.9970703125,0.02587890625,-0.21374045801526717,0.015267175572519083,-1.5572519083969465
6.77,0.0712890625,-0.99853515625,0.02734375,-0.40458015267175573,-0.06870229007633588,-1.3053435114503817
6.78,0.06982421875,-0.99951171875,0.021484375,-0.5419847328244275,-0.12213740458015267,-1.465648854961832
6.79,0.063232421875,-0.986083984375,0.04150390625,-0.5801526717557252,0.0,-1.4045801526717556
6.8,0.06982421875,-0.9931640625,0.0263671875,-0.5954198473282443,-0.25190839694656486,-1.3282442748091603
6.81,0.072265625,-0.9970703125,0.02099609375,-0.6717557251908397,-0.05343511450381679,-1.549618320610687
6.82,0.072021484375,-1.00390625,0.02099609375,-0.4122137404580153,-0.05343511450381679,-1.2748091603053435
6.83,0.070068359375,-1.00390625,0.029541015625,-0.09923664122137404,-0.17557251908396945,-1.2900763358778626
6.84,0.0693359375,-1.0,0.0302734375,-0.3969465648854962,0.0,-1.3129770992366412
6.85,0.06982421875,-1.01220703125,0.0244140625,-0.46564885496183206,0.030534351145038167,-1.4198473282442747
6.86,0.067138671875,-1.001708984375,0.021728515625,-0.4122137404580153,-1.9083969465648856,-1.381679389312977
6.87,0.072998046875,-1.000732421875,0.01611328125,-0.45038167938931295,0.13740458015267176,-1.297709923664122
6.88,0.072998046875,-0.99658203125,0.0234375,-0.6106870229007634,0.09923664122137404,-1.4809160305343512
6.89,0.0673828125,-1.00244140625,0.032958984375,-0.4198473282442748,-0.10687022900763359,-1.297709923664122
6.9,0.075439453125,-0.998046875,0.022705078125,-0.44274809160305345,-0.16030534351145037,-1.4198473282442747
6.91,0.07080078125,-0.99658203125,0.02783203125,-0.5648854961832062,-0.11450381679389313,-1.4427480916030535
6.92,0.072021484375,-0.998046875,0.0224609375,-0.2900763358778626,-0.07633587786259542,-1.5419847328244274
6.93,0.072509765625,-1.013671875,0.027099609375,-0.4580152671755725,-0.05343511450381679,-1.1526717557251909
6.94,0.071533203125,-1.003662109375,0.0185546875,-0.45038167938931295,1.9465648854961832,-1.4732824427480915
6.95,0.06494140625,-0.998779296875,0.02734375,-0.25190839694656486,0.022900763358778626,-1.4809160305343512
6.96,0.065673828125,-1.0,0.0322265625,-0.3816793893129771,-0.030534351145038167,-1.3969465648854962
6.97,0.068603515625,-1.0029296875,0.022705078125,-0.5572519083969466,0.03816793893129771,-1.3435114503816794
6.98,0.074951171875,-1.00341796875,0.021484375,-0.5343511450381679,-0.16030534351145037,-1.4045801526717556
6.99,0.06689453125,-1.015625,0.028076171875,-0.5801526717557252,-0.07633587786259542,-1.4427480916030535
7.0,0.070556640625,-1.0126953125,0.021484375,-0.5801526717557252,-0.22137404580152673,-1.4732824427480915
7.01,0.066162109375,-0.99658203125,0.0263671875,-0.4961832061068702,0.15267175572519084,-1.4122137404580153
7.02,0.069580078125,-0.995361328125,0.02783203125,-0.42748091603053434,-0.1984732824427481,-1.2290076335877862
7.03,0.066650390625,-0.99609375,0.01953125,-0.4122137404580153,-0.061068702290076333,-1.3282442748091603
7.04,0.069091796875,-1.003662109375,0.031494140625,-0.45038167938931295,-0.0916030534351145,-1.4351145038167938
7.05,0.071044921875,-0.99658203125,0.01806640625,-0.48091603053435117,0.11450381679389313,-1.3740458015267176
7.06,0.070068359375,-1.015625,0.027099609375,-0.25190839694656486,0.11450381679389313,-1.2595419847328244
7.07,0.06982421875,-1.0126953125,0.02734375,-0.5419847328244275,0.08396946564885496,-1.4961832061068703
7.08,0.067138671875,-0.99755859375,0.019287109375,-0.4732824427480916,-0.09923664122137404,-1.381679389312977
7.09,0.069091796875,-1.000244140625,0.017578125,-0.42748091603053434,-0.11450381679389313,-1.297709923664122
7.1,0.068359375,-0.996826171875,0.02099609375,-0.5877862595419847,-0.20610687022900764,-1.3587786259541985
7.11,0.0693359375,-0.996337890625,0.031494140625,-0.48091603053435117,-0.05343511450381679,-1.3740458015267176
7.12,0.066162109375,-0.99951171875,0.029541015625,-0.46564885496183206,-0.2748091603053435,-1.5114503816793894
7.13,0.06640625,-1.014404296875,0.026123046875,-0.5648854961832062,-0.05343511450381679,-1.465648854961832
7.14,0.058837890625,-1.000244140625,0.020263671875,-0.35877862595419846,0.04580152671755725,-1.3206106870229009
7.15,0.065185546875,-1.00146484375,0.040771484375,-0.549618320610687,-0.03816793893129771,-1.3587786259541985
7.16,0.06982421875,-0.999267578125,0.04638671875,-0.3893129770992366,-0.05343511450381679,-1.3511450381679388
7.17,0.06201171875,-0.998046875,0.037353515625,-0.7709923664122137,1.8931297709923665,-1.2900763358778626
7.18,0.072021484375,-0.999755859375,0.026123046875,-0.40458015267175573,-0.12213740458015267,-1.450381679389313
7.19,0.074462890625,-1.00146484375,0.02294921875,-0.4351145038167939,1.8854961832061068,-1.4274809160305344
7.2,0.0703125,-1.00244140625,0.02587890625,-0.29770992366412213,-1.7938931297709924,-1.297709923664122
7.21,0.066650390625,-0.98779296875,0.019287109375,-0.6106870229007634,0.06870229007633588,-1.450381679389313
7.22,0.069580078125,-0.99560546875,0.02734375,-0.42748091603053434,-0.022900763358778626,-1.4045801526717556
7.23,0.07080078125,-0.998046875,0.02197265625,-0.4351145038167939,0.030534351145038167,-1.450381679389313
7.24,0.068603515625,-1.0009765625,0.020263671875,-0.4961832061068702,-0.08396946564885496,-1.3053435114503817
7.25,0.077392578125,-1.00146484375,0.024658203125,-0.31297709923664124,-0.1450381679389313,-1.381679389312977
7.26,0.068359375,-0.999755859375,0.030029296875,-0.44274809160305345,-0.05343511450381679,-1.2366412213740459
7.27,0.06689453125,-1.000732421875,0.023193359375,-0.4732824427480916,-0.007633587786259542,-1.251908396946565
7.28,0.07470703125,-0.999755859375,0.023681640625,-0.5419847328244275,-1.9465648854961832,-1.366412213740458
7.29,0.046875,-1.01416015625,0.0244140625,-0.5725190839694656,-0.06870229007633588,-1.3740458015267176
7.3,0.068603515625,-0.9912109375,0.022705078125,-0.37404580152671757,0.15267175572519084,-1.3435114503816794
7.31,0.072021484375,-0.996826171875,0.025634765625,-0.7633587786259542,-1.9312977099236641,-1.366412213740458
7.32,0.06982421875,-0.99951171875,0.028564453125,-0.4198473282442748,-0.16030534351145037,-1.3129770992366412
7.33,0.07275390625,-0.998291015625,0.03125,-0.42748091603053434,-0.16793893129770993,-1.4580152671755726
7.34,0.07080078125,-0.99755859375,0.028564453125,-0.32061068702290074,-0.0916030534351145,-1.465648854961832
7.35,0.070068359375,-1.00439453125,0.022705078125,-0.5190839694656488,-0.12213740458015267,-1.2900763358778626
7.36,0.07470703125,-1.003173828125,0.024658203125,-0.2748091603053435,-0.16793893129770993,-1.5190839694656488
7.37,0.0654296875,-1.0087890625,0.0263671875,-0.5648854961832062,0.1450381679389313,-1.3435114503816794
7.38,0.07177734375,-1.00244140625,0.025634765625,-0.3969465648854962,0.09923664122137404,-1.297709923664122
7.39,0.06298828125,-0.99658203125,0.0302734375,-0.24427480916030533,-0.022900763358778626,-1.366412213740458
7.4,0.070556640625,-1.000732421875,0.03515625,-0.48854961832061067,-0.08396946564885496,-1.5877862595419847
7.41,0.069580078125,-1.00048828125,0.033935546875,-0.3435114503816794,-0.09923664122137404,-1.2671755725190839
7.42,0.070556640625,-0.988037109375,0.024658203125,-0.3282442748091603,-0.07633587786259542,-1.5954198473282444
7.43,0.0751953125,-1.004150390625,0.02001953125,-0.3816793893129771,-1.9541984732824427,-1.2366412213740459
7.44,0.0673828125,-1.001708984375,0.01953125,-0.22900763358778625,-0.07633587786259542,-1.2366412213740459
7.45,0.070068359375,-1.002685546875,0.026611328125,-0.4198473282442748,-0.05343511450381679,-1.5267175572519085
7.46,0.07080078125,-0.997802734375,0.029052734375,-0.5801526717557252,-0.13740458015267176,-1.2442748091603053
7.47,0.07177734375,-0.99755859375,0.02685546875,-0.5572519083969466,0.05343511450381679,-1.5725190839694656
7.48,0.068359375,-1.006103515625,0.0283203125,-0.46564885496183206,-0.08396946564885496,-1.5267175572519085
7.49,0.06640625,-0.99169921875,0.02734375,-0.4198473282442748,-0.1450381679389313,-1.3282442748091603
7.5,0.067626953125,-0.986083984375,0.026123046875,-0.4122137404580153,0.04580152671755725,-1.4274809160305344
7.51,0.068115234375,-0.99951171875,0.022216796875,-0.5572519083969466,-0.05343511450381679,-1.3740458015267176
7.52,0.06494140625,-1.0048828125,0.023193359375,-0.6259541984732825,-0.0916030534351145,-1.3129770992366412
7.53,0.068603515625,-1.001953125,0.02490234375,-0.48854961832061067,0.04580152671755725,-1.3511450381679388
7.54,0.066650390625,-0.995361328125,0.033203125,-0.6106870229007634,-1.9465648854961832,-1.3282442748091603
7.55,0.06494140625,-1.00341796875,0.019775390625,-0.16030534351145037,0.030534351145038167,-1.4045801526717556
7.56,0.06591796875,-1.01171875,0.020751953125,-0.2900763358778626,-1.8854961832061068,-1.4732824427480915
7.57,0.064697265625,-0.996826171875,0.0302734375,-0.5190839694656488,0.09923664122137404,-1.297709923664122
7.58,0.06787109375,-0.99462890625,0.016845703125,-0.5725190839694656,-1.9312977099236641,-1.4045801526717556
7.59,0.068115234375,-1.002197265625,0.02880859375,-0.5725190839694656,-0.20610687022900764,-1.3282442748091603
7.6,0.066650390625,-1.008056640625,0.02734375,-0.2748091603053435,0.03816793893129771,-1.465648854961832
7.61,0.071044921875,-0.998291015625,0.026611328125,-0.35877862595419846,-0.12213740458015267,-1.4351145038167938
7.62,0.06787109375,-0.99951171875,0.0322265625,-0.4351145038167939,0.08396946564885496,-1.366412213740458
7.63,0.0732421875,-1.000244140625,0.027587890625,-0.5648854961832062,0.007633587786259542,-1.4274809160305344
7.64,0.068603515625,-1.003173828125,0.029052734375,-0.48091603053435117,-0.09923664122137404,-1.381679389312977
7.65,0.069580078125,-1.009521484375,0.018798828125,-0.6412213740458015,0.09923664122137404,-1.2671755725190839
7.66,0.06640625,-0.997314453125,0.024658203125,-0.4122137404580153,-0.08396946564885496,-1.3587786259541985
7.67,0.0673828125,-1.004638671875,0.02197265625,-0.42748091603053434,-0.08396946564885496,-1.4274809160305344
7.68,0.067138671875,-1.000244140625,0.0244140625,-0.22900763358778625,0.030534351145038167,-1.450381679389313
7.69,0.06396484375,-1.005615234375,0.029296875,-0.4580152671755725,-0.31297709923664124,-1.5801526717557253
7.7,0.07275390625,-0.985107421875,0.025634765625,-0.5343511450381679,-0.16030534351145037,-1.2595419847328244
7.71,0.067138671875,-1.0029296875,0.0234375,-0.31297709923664124,0.03816793893129771,-1.3969465648854962
7.72,0.071044921875,-0.9970703125,0.023681640625,-0.5114503816793893,-0.022900763358778626,-1.4580152671755726
7.73,0.075439453125,-0.9970703125,0.02197265625,-0.6335877862595419,0.0,-1.3206106870229009
7.74,0.068603515625,-0.99951171875,0.02392578125,-0.48091603053435117,0.015267175572519083,-1.4045801526717556
7.75,0.069091796875,-1.001953125,0.02001953125,-0.48854961832061067,1.9465648854961832,-1.450381679389313
7.76,0.071044921875,-0.999267578125,0.02685546875,-0.3511450381679389,1.9312977099236641,-1.3969465648854962
7.77,0.0751953125,-1.00830078125,0.02490234375,-0.35877862595419846,-0.04580152671755725,-1.3435114503816794
7.78,0.067138671875,-1.004150390625,0.029541015625,-0.3893129770992366,-1.900763358778626,-1.3282442748091603
7.79,0.07080078125,-1.00439453125,0.04296875,-0.44274809160305345,0.10687022900763359,-1.450381679389313
7.8,0.068359375,-1.000244140625,0.0380859375,-0.6259541984732825,-0.022900763358778626,-1.2671755725190839
7.81,0.066162109375,-1.004150390625,0.01806640625,-0.7022900763358778,-0.15267175572519084,-1.251908396946565
7.82,0.07373046875,-1.002685546875,0.033203125,-0.5419847328244275,-0.03816793893129771,-1.3282442748091603
7.83,0.063232421875,-0.99951171875,0.0322265625,-0.366412213740458,-0.16030534351145037,-1.3282442748091603
7.84,0.06982421875,-0.99951171875,0.0244140625,-0.48091603053435117,-0.11450381679389313,-1.3740458015267176
7.85,0.067138671875,-0.998046875,0.01708984375,-0.3282442748091603,-0.022900763358778626,-1.4122137404580153
7.86,0.064208984375,-1.003662109375,0.025390625,-0.6183206106870229,-1.9312977099236641,-1.4427480916030535
7.87,0.07373046875,-0.997314453125,0.021728515625,-0.5267175572519084,-0.10687022900763359,-1.4961832061068703
7.88,0.06591796875,-0.99609375,0.029296875,-0.44274809160305345,0.11450381679389313,-1.4045801526717556
7.89,0.062744140625,-1.00390625,0.031005859375,-0.4961832061068702,-0.05343511450381679,-1.381679389312977
7.9,0.06640625,-1.001708984375,0.02099609375,-0.48091603053435117,-0.05343511450381679,-1.4274809160305344
7.91,0.069580078125,-1.000732421875,0.029052734375,-0.37404580152671757,-0.05343511450381679,-1.3129770992366412
7.92,0.06640625,-0.9970703125,0.015869140625,-0.22900763358778625,-0.10687022900763359,-1.4122137404580153
7.93,0.069091796875,-1.0048828125,0.02490234375,-0.5725190839694656,0.07633587786259542,-1.381679389312977
7.94,0.069580078125,-0.999755859375,0.025146484375,-0.32061068702290074,-1.8625954198473282,-1.3129770992366412
7.95,0.07470703125,-0.996826171875,0.027587890625,-0.5801526717557252,0.1984732824427481,-1.3893129770992367
7.96,0.0693359375,-0.994873046875,0.021728515625,-0.44274809160305345,0.03816793893129771,-1.465648854961832
7.97,0.060302734375,-1.00390625,0.02685546875,-0.5114503816793893,-0.26717557251908397,-1.5419847328244274
7.98,0.0712890625,-0.986083984375,0.0146484375,-0.2366412213740458,-0.08396946564885496,-1.2213740458015268
7.99,0.073486328125,-0.98876953125,0.024658203125,-0.4198473282442748,-0.030534351145038167,-1.4122137404580153
8.0,0.069091796875,-0.99609375,0.025390625,-0.2824427480916031,-0.05343511450381679,-1.4427480916030535
8.01,0.065673828125,-0.99462890625,0.026611328125,-0.4351145038167939,-0.2595419847328244,-1.3893129770992367
8.02,0.06591796875,-0.9990234375,0.026611328125,-0.7251908396946565,0.0916030534351145,-1.3587786259541985
8.03,0.068359375,-1.00048828125,0.029541015625,-0.42748091603053434,0.030534351145038167,-1.3969465648854962
8.04,0.0625,-0.996826171875,0.027587890625,-0.4198473282442748,1.9465648854961832,-1.4427480916030535
8.05,0.0478515625,-0.996826171875,0.02783203125,-0.366412213740458,-0.26717557251908397,-1.3358778625954197
8.06,0.075927734375,-1.0,0.0205078125,-0.15267175572519084,-0.0916030534351145,-1.3129770992366412
8.07,0.072998046875,-1.003662109375,0.025146484375,-0.44274809160305345,-0.10687022900763359,-1.3893129770992367
8.08,0.073486328125,-0.9951171875,0.025634765625,-0.48854961832061067,-0.007633587786259542,-1.2595419847328244
8.09,0.065185546875,-0.999755859375,0.03271484375,-0.5801526717557252,-0.1297709923664122,-1.3893129770992367
8.1,0.063720703125,-1.0029296875,0.033203125,-0.5114503816793893,-0.10687022900763359,-1.2290076335877862
8.11,0.069091796875,-1.000732421875,0.030517578125,-0.45038167938931295,1.9312977099236641,-1.3969465648854962
8.12,0.065185546875,-0.9990234375,0.025146484375,-0.16793893129770993,-0.07633587786259542,-1.3435114503816794
8.13,0.0654296875,-0.996826171875,0.021240234375,-0.4351145038167939,-0.06870229007633588,-1.4045801526717556
8.14,0.064453125,-0.996337890625,0.025390625,-0.4198473282442748,-1.9312977099236641,-1.450381679389313
8.15,0.065185546875,-1.0146484375,0.030029296875,-0.6412213740458015,-0.10687022900763359,-1.3282442748091603
8.16,0.065673828125,-1.005126953125,0.0263671875,-0.6793893129770993,-0.015267175572519083,-1.282442748091603
8.17,0.06640625,-1.001220703125,0.020751953125,-0.6259541984732825,-0.22137404580152673,-1.381679389312977
8.18,0.0693359375,-0.999755859375,0.025146484375,-0.42748091603053434,-0.16793893129770993,-1.3511450381679388
8.19,0.04931640625,-1.002685546875,0.02001953125,-0.2748091603053435,0.06870229007633588,-1.3206106870229009
8.2,0.07177734375,-0.99951171875,0.022216796875,-0.32061068702290074,-0.03816793893129771,-1.5114503816793894
8.21,0.070556640625,-1.0048828125,0.02734375,-0.40458015267175573,1.8396946564885497,-1.4885496183206106
8.22,0.060302734375,-0.998291015625,0.021728515625,-0.42748091603053434,-0.05343511450381679,-1.3435114503816794
8.23,0.070068359375,-0.99755859375,0.025146484375,-0.3969465648854962,-0.1984732824427481,-1.366412213740458
8.24,0.068359375,-1.002197265625,0.0224609375,-0.4351145038167939,-0.10687022900763359,-1.534351145038168
8.25,0.06689453125,-0.999267578125,0.02490234375,-0.4198473282442748,-0.24427480916030533,-1.3740458015267176
8.26,0.065673828125,-1.0009765625,0.0234375,-0.4732824427480916,1.9083969465648856,-1.2900763358778626
8.27,0.069580078125,-1.00341796875,0.02783203125,-0.35877862595419846,1.9389312977099236,-1.3511450381679388
8.28,0.069580078125,-1.0029296875,0.02880859375,-0.46564885496183206,-0.16793893129770993,-1.465648854961832
8.29,0.06640625,-0.986083984375,0.028076171875,-0.40458015267175573,-1.9083969465648856,-1.4045801526717556
8.3,0.066162109375,-1.0,0.0244140625,-0.3893129770992366,-0.25190839694656486,-1.3435114503816794
8.31,0.070068359375,-0.99755859375,0.035888671875,-0.3053435114503817,0.13740458015267176,-1.3129770992366412
8.32,0.070068359375,-0.9990234375,0.020751953125,-0.35877862595419846,-0.13740458015267176,-1.2366412213740459
8.33,0.0634765625,-1.003662109375,0.021728515625,-0.46564885496183206,-1.8931297709923665,-1.213740458015267
8.34,0.070068359375,-1.01416015625,0.02734375,-0.6259541984732825,1.8625954198473282,-1.3053435114503817
8.35,0.068359375,-0.984619140625,0.041259765625,-0.4580152671755725,0.17557251908396945,-1.4045801526717556
8.36,0.066162109375,-1.000732421875,0.02099609375,-0.37404580152671757,-0.08396946564885496,-1.5190839694656488
8.37,0.067626953125,-1.001220703125,0.016357421875,-0.366412213740458,-0.07633587786259542,-1.3740458015267176
8.38,0.072265625,-1.005126953125,0.027099609375,-0.366412213740458,1.8931297709923665,-1.3206106870229009
8.39,0.068359375,-1.001953125,0.0166015625,-0.6641221374045801,-0.022900763358778626,-1.297709923664122
8.4,0.071044921875,-1.0,0.0234375,-0.4198473282442748,-0.16793893129770993,-1.3511450381679388
8.41,0.072265625,-1.015625,0.02880859375,-0.7022900763358778,-0.030534351145038167,-1.2671755725190839
8.42,0.06787109375,-1.014892578125,0.02685546875,-0.45038167938931295,0.030534351145038167,-1.3053435114503817
8.43,0.06640625,-1.001953125,0.027099609375,-0.3511450381679389,0.007633587786259542,-1.4427480916030535
8.44,0.070068359375,-0.9951171875,0.030517578125,-0.35877862595419846,-0.13740458015267176,-1.4351145038167938
8.45,0.06640625,-0.997314453125,0.01904296875,-0.5190839694656488,-0.2824427480916031,-1.3435114503816794
8.46,0.06982421875,-0.999755859375,0.03125,-0.5572519083969466,1.8702290076335877,-1.4809160305343512
8.47,0.068603515625,-0.997314453125,0.02294921875,-0.3893129770992366,-0.22900763358778625,-1.4351145038167938
8.48,0.0751953125,-1.00244140625,0.023681640625,-0.37404580152671757,-0.022900763358778626,-1.3969465648854962
8.49,0.069091796875,-0.99560546875,0.019775390625,-0.6412213740458015,-0.07633587786259542,-1.4427480916030535
8.5,0.066162109375,-0.98583984375,0.031005859375,-0.16030534351145037,0.17557251908396945,-1.3511450381679388
8.51,0.0673828125,-1.00390625,0.029541015625,-0.42748091603053434,0.030534351145038167,-1.3893129770992367
8.52,0.068603515625,-0.9951171875,0.029296875,-0.44274809160305345,-0.12213740458015267,-1.465648854961832
8.53,0.06884765625,-1.00048828125,0.0302734375,-0.4961832061068702,-0.26717557251908397,-1.2900763358778626
8.54,0.069091796875,-1.0,0.029541015625,-0.5114503816793893,-0.022900763358778626,-1.251908396946565
8.55,0.066162109375,-1.0048828125,0.03466796875,-0.45038167938931295,-0.06870229007633588,-1.5190839694656488
8.56,0.06689453125,-1.004150390625,0.041015625,-0.549618320610687,-0.32061068702290074,-1.3282442748091603
8.57,0.075439453125,-1.00146484375,0.0234375,-0.45038167938931295,-0.05343511450381679,-1.251908396946565
8.58,0.0673828125,-0.99755859375,0.041015625,-0.20610687022900764,-0.022900763358778626,-1.4580152671755726
8.59,0.074951171875,-0.99609375,0.021484375,-0.2900763358778626,0.015267175572519083,-1.4045801526717556
8.6,0.072265625,-1.000732421875,0.030517578125,-0.26717557251908397,-0.10687022900763359,-1.5114503816793894
8.61,0.065673828125,-1.002197265625,0.02587890625,-0.3816793893129771,-0.10687022900763359,-1.2366412213740459
8.62,0.072509765625,-0.989501953125,0.03369140625,-0.5419847328244275,-0.21374045801526717,-1.4045801526717556
8.63,0.0712890625,-0.994873046875,0.018310546875,-0.5190839694656488,0.030534351145038167,-1.465648854961832
8.64,0.06884765625,-0.999267578125,0.030029296875,-0.3969465648854962,-0.06870229007633588,-1.3587786259541985
8.65,0.062255859375,-0.996337890625,0.030029296875,-0.40458015267175573,1.900763358778626,-1.381679389312977
8.66,0.067626953125,-0.99951171875,0.01904296875,-0.5038167938931297,-0.22900763358778625,-1.4809160305343512
8.67,0.0673828125,-1.00537109375,0.031982421875,-0.3435114503816794,-0.1450381679389313,-1.4427480916030535
8.68,0.0712890625,-1.000244140625,0.030517578125,-0.5114503816793893,1.900763358778626,-1.6717557251908397
8.69,0.071044921875,-1.0029296875,0.0263671875,-0.2366412213740458,-0.09923664122137404,-1.4045801526717556
8.7,0.0673828125,-0.99951171875,0.0234375,-0.22137404580152673,-0.3053435114503817,-1.381679389312977
8.71,0.0537109375,-0.99951171875,0.021240234375,-0.5572519083969466,-0.03816793893129771,-1.3358778625954197
8.72,0.0693359375,-1.000732421875,0.01611328125,-0.648854961832061,-0.183206106870229,-1.4580152671755726
8.73,0.07470703125,-1.002197265625,0.01806640625,-0.3511450381679389,-0.22900763358778625,-1.2213740458015268
8.74,0.07275390625,-0.996826171875,0.016357421875,-0.4351145038167939,1.8244274809160306,-1.3511450381679388
8.75,0.0654296875,-1.001708984375,0.02099609375,-0.5648854961832062,-0.16793893129770993,-1.297709923664122
8.76,0.0712890625,-0.995361328125,0.030517578125,-0.35877862595419846,-0.12213740458015267,-1.3206106870229009
8.77,0.07275390625,-0.998046875,0.021484375,-0.4580152671755725,-1.9541984732824427,-1.213740458015267
8.78,0.06787109375,-0.986572265625,0.0185546875,-0.4122137404580153,-0.1450381679389313,-1.4198473282442747
8.79,0.0693359375,-1.005859375,0.0263671875,-0.17557251908396945,-0.06870229007633588,-1.366412213740458
8.8,0.0634765625,-0.999755859375,0.029541015625,-0.5648854961832062,0.10687022900763359,-1.366412213740458
8.81,0.077392578125,-0.998779296875,0.024658203125,-0.6946564885496184,1.9389312977099236,-1.4274809160305344
8.82,0.069580078125,-1.00146484375,0.028076171875,-0.3816793893129771,-0.10687022900763359,-1.450381679389313
8.83,0.065185546875,-1.001708984375,0.03662109375,-0.3969465648854962,-0.04580152671755725,-1.5648854961832062
8.84,0.062744140625,-1.001708984375,0.0166015625,-0.3282442748091603,-0.12213740458015267,-1.4351145038167938
8.85,0.066650390625,-1.000732421875,0.027587890625,-0.2824427480916031,-0.030534351145038167,-1.465648854961832
8.86,0.07177734375,-1.013916015625,0.015869140625,-0.4351145038167939,0.15267175572519084,-1.3587786259541985
8.87,0.064697265625,-0.99951171875,0.01806640625,-0.6793893129770993,-0.1297709923664122,-1.381679389312977
8.88,0.068359375,-1.000244140625,0.025146484375,-0.6183206106870229,-0.030534351145038167,-1.4885496183206106
8.89,0.07177734375,-0.993408203125,0.02685546875,-0.6183206106870229,0.05343511450381679,-1.3435114503816794
8.9,0.070556640625,-1.004150390625,0.0302734375,-0.37404580152671757,-0.10687022900763359,-1.3740458015267176
8.91,0.064453125,-0.984619140625,0.039794921875,-0.42748091603053434,-0.07633587786259542,-1.3435114503816794
8.92,0.064453125,-1.015380859375,0.024658203125,-0.26717557251908397,-0.13740458015267176,-1.3969465648854962
8.93,0.070068359375,-1.014892578125,0.015869140625,-0.366412213740458,1.916030534351145,-1.2671755725190839
8.94,0.07177734375,-0.99609375,0.027587890625,-0.4122137404580153,-0.030534351145038167,-1.4198473282442747
8.95,0.064208984375,-1.00341796875,0.02734375,-0.6183206106870229,-1.9083969465648856,-1.2671755725190839
8.96,0.06884765625,-0.998291015625,0.012451171875,-0.4351145038167939,1.8625954198473282,-1.381679389312977
8.97,0.067626953125,-0.99951171875,0.026123046875,-0.42748091603053434,-0.16793893129770993,-1.3206106870229009
8.98,0.06982421875,-0.998291015625,0.01806640625,-0.45038167938931295,-0.2595419847328244,-1.3282442748091603
8.99,0.0673828125,-1.012939453125,0.0263671875,-0.4198473282442748,-0.1450381679389313,-1.297709923664122
9.0,0.072509765625,-0.996826171875,0.021484375,-0.7099236641221374,-0.183206106870229,-1.4045801526717556
9.01,0.0673828125,-0.99951171875,0.031005859375,-0.2748091603053435,-0.007633587786259542,-1.381679389312977
9.02,0.064208984375,-0.998291015625,0.023681640625,-0.25190839694656486,-0.10687022900763359,-1.5419847328244274
9.03,0.072021484375,-0.9990234375,0.02294921875,-0.5190839694656488,-0.22137404580152673,-1.3358778625954197
9.04,0.07958984375,-0.968994140625,0.02392578125,-0.24427480916030533,-0.1297709923664122,-1.2671755725190839
9.05,0.079345703125,-0.987548828125,0.013671875,-0.5572519083969466,0.07633587786259542,-1.3435114503816794
9.06,0.06103515625,-0.986328125,0.0302734375,-0.46564885496183206,0.015267175572519083,-1.4274809160305344
9.07,0.0712890625,-1.011474609375,0.026123046875,-0.44274809160305345,0.09923664122137404,-1.297709923664122
9.08,0.0693359375,-1.00244140625,0.025390625,-0.5572519083969466,-0.20610687022900764,-1.4809160305343512
9.09,0.0703125,-1.00048828125,0.022705078125,-0.5954198473282443,-0.10687022900763359,-1.2061068702290076
9.1,0.0654296875,-1.001953125,0.025146484375,-0.4580152671755725,-0.17557251908396945,-1.4809160305343512
9.11,0.07421875,-0.999755859375,0.027099609375,-0.3053435114503817,1.916030534351145,-1.4732824427480915
9.12,0.072265625,-0.9951171875,0.02587890625,-0.40458015267175573,0.13740458015267176,-1.3129770992366412
9.13,0.07763671875,-0.9970703125,0.015869140625,-0.31297709923664124,-0.19083969465648856,-1.3740458015267176
9.14,0.06298828125,-0.996826171875,0.015625,-0.5648854961832062,0.022900763358778626,-1.3893129770992367
9.15,0.06005859375,-0.999267578125,0.02392578125,-0.4351145038167939,0.03816793893129771,-1.2671755725190839
9.16,0.069580078125,-0.999755859375,0.02001953125,-0.44274809160305345,0.10687022900763359,-1.251908396946565
9.17,0.060791015625,-1.001953125,0.023681640625,-0.366412213740458,0.06870229007633588,-1.3893129770992367
9.18,0.072021484375,-1.00244140625,0.0234375,-0.2366412213740458,-0.1450381679389313,-1.282442748091603
9.19,0.073486328125,-0.9990234375,0.026611328125,-0.3816793893129771,-0.1984732824427481,-1.4809160305343512
9.2,0.07373046875,-0.985595703125,0.0302734375,-0.24427480916030533,-0.11450381679389313,-1.3129770992366412
9.21,0.073486328125,-0.990234375,0.028076171875,-0.32061068702290074,-0.12213740458015267,-1.4045801526717556
9.22,0.06396484375,-0.99853515625,0.027099609375,-0.3816793893129771,-0.05343511450381679,-1.534351145038168
9.23,0.067626953125,-1.004150390625,0.02392578125,-0.3816793893129771,1.9236641221374047,-1.4961832061068703
9.24,0.06884765625,-0.997314453125,0.018798828125,-0.5877862595419847,-0.061068702290076333,-1.2061068702290076
9.25,0.063720703125,-1.003173828125,0.03173828125,-0.4198473282442748,0.022900763358778626,-1.4580152671755726
9.26,0.063232421875,-0.998046875,0.02294921875,-0.08396946564885496,0.04580152671755725,-1.4732824427480915
9.27,0.069580078125,-1.0078125,0.028076171875,-0.3511450381679389,-0.15267175572519084,-1.2595419847328244
9.28,0.062744140625,-1.0087890625,0.018798828125,-0.37404580152671757,-0.16793893129770993,-1.4580152671755726
9.29,0.070556640625,-0.986572265625,0.02001953125,-0.5572519083969466,-0.10687022900763359,-1.381679389312977
9.3,0.068603515625,-0.99853515625,0.022216796875,-0.46564885496183206,0.007633587786259542,-1.381679389312977
9.31,0.073974609375,-1.000244140625,0.02587890625,-0.4351145038167939,0.08396946564885496,-1.3053435114503817
9.32,0.0693359375,-1.0029296875,0.024658203125,-0.4580152671755725,-0.09923664122137404,-1.4427480916030535
9.33,0.073974609375,-0.994873046875,0.021484375,-0.3435114503816794,-0.10687022900763359,-1.3435114503816794
9.34,0.068603515625,-0.996337890625,0.03173828125,-0.48091603053435117,-0.16793893129770993,-1.1984732824427482
9.35,0.069580078125,-0.999267578125,0.0234375,-0.48091603053435117,-1.8778625954198473,-1.3511450381679388
9.36,0.067626953125,-0.9970703125,0.026123046875,-0.366412213740458,0.03816793893129771,-1.4045801526717556
9.37,0.069580078125,-1.003662109375,0.03076171875,-0.5038167938931297,-0.3435114503816794,-1.3206106870229009
9.38,0.07421875,-0.998046875,0.02880859375,-0.5267175572519084,-0.1984732824427481,-1.3282442748091603
9.39,0.06982421875,-1.000244140625,0.028564453125,-0.4961832061068702,-0.08396946564885496,-1.3206106870229009
9.4,0.04736328125,-0.999755859375,0.029052734375,-0.4351145038167939,-0.06870229007633588,-1.3435114503816794
9.41,0.06787109375,-0.994140625,0.0244140625,-0.3969465648854962,-0.16030534351145037,-1.3893129770992367
9.42,0.07177734375,-0.9970703125,0.022216796875,-0.4580152671755725,-0.25190839694656486,-1.4427480916030535
9.43,0.069580078125,-1.0126953125,0.024658203125,-0.2366412213740458,-0.2595419847328244,-1.3893129770992367
9.44,0.0693359375,-0.99658203125,0.032470703125,-0.5190839694656488,1.9389312977099236,-1.4274809160305344
9.45,0.068359375,-1.004638671875,0.02587890625,-0.4580152671755725,1.916030534351145,-1.4885496183206106
9.46,0.06787109375,-0.99560546875,0.025146484375,-0.5114503816793893,-0.16030534351145037,-1.3435114503816794
9.47,0.07080078125,-1.000732421875,0.033447265625,-0.3511450381679389,-0.06870229007633588,-1.4122137404580153
9.48,0.0673828125,-1.001708984375,0.020263671875,-0.37404580152671757,1.9236641221374047,-1.4045801526717556
9.49,0.06396484375,-0.99609375,0.01708984375,-0.3816793893129771,-0.08396946564885496,-1.213740458015267
9.5,0.072509765625,-0.9970703125,0.046630859375,-0.5648854961832062,0.022900763358778626,-1.3893129770992367
9.51,0.068603515625,-1.0009765625,0.03515625,-0.48091603053435117,-0.061068702290076333,-1.3206106870229009
9.52,0.072998046875,-1.004150390625,0.027099609375,-0.4198473282442748,-0.10687022900763359,-1.3587786259541985
9.53,0.065673828125,-0.992919921875,0.022705078125,-0.5038167938931297,-0.015267175572519083,-1.3206106870229009
9.54,0.065673828125,-0.99658203125,0.032958984375,-0.48854961832061067,-0.16793893129770993,-1.3511450381679388
9.55,0.070556640625,-1.005126953125,0.033447265625,-0.24427480916030533,-0.26717557251908397,-1.3969465648854962
9.56,0.0673828125,-0.98681640625,0.015625,-0.48091603053435117,-0.03816793893129771,-1.3358778625954197
9.57,0.06982421875,-1.0126953125,0.01171875,-0.7099236641221374,0.061068702290076333,-1.2366412213740459
9.58,0.0703125,-0.99853515625,0.0263671875,-0.5190839694656488,-1.9312977099236641,-1.4045801526717556
9.59,0.075439453125,-1.0,0.02880859375,-0.33587786259541985,-0.13740458015267176,-1.282442748091603
9.6,0.072998046875,-0.99951171875,0.01806640625,-0.6030534351145038,0.06870229007633588,-1.5114503816793894
9.61,0.069091796875,-0.99658203125,0.02783203125,-0.26717557251908397,-0.1297709923664122,-1.4122137404580153
9.62,0.06982421875,-1.002197265625,0.027587890625,-0.15267175572519084,-0.07633587786259542,-1.4732824427480915
9.63,0.06689453125,-0.989501953125,0.031494140625,-0.3282442748091603,1.900763358778626,-1.3053435114503817
9.64,0.07080078125,-0.986572265625,0.02685546875,-0.5877862595419847,0.04580152671755725,-1.3969465648854962
9.65,0.074462890625,-1.001220703125,0.0380859375,-0.46564885496183206,-1.9312977099236641,-1.5725190839694656
9.66,0.07080078125,-1.006103515625,0.0263671875,-0.5572519083969466,-0.07633587786259542,-1.4961832061068703
9.67,0.0712890625,-1.004150390625,0.021484375,-0.2366412213740458,-0.05343511450381679,-1.5114503816793894
9.68,0.06982421875,-1.0029296875,0.0283203125,-0.3969465648854962,-0.24427480916030533,-1.5190839694656488
9.69,0.067626953125,-1.01220703125,0.024658203125,-0.4732824427480916,0.06870229007633588,-1.3435114503816794
9.7,0.06787109375,-0.998291015625,0.027099609375,-0.549618320610687,1.9236641221374047,-1.3206106870229009
9.71,0.0703125,-1.007080078125,0.021484375,-0.3893129770992366,-0.022900763358778626,-1.4198473282442747
9.72,0.072509765625,-0.999267578125,0.025634765625,-0.5572519083969466,0.007633587786259542,-1.3129770992366412
9.73,0.07177734375,-0.992919921875,0.02587890625,-0.48091603053435117,-0.08396946564885496,-1.4885496183206106
9.74,0.06982421875,-0.9951171875,0.0302734375,-0.5190839694656488,-0.03816793893129771,-1.381679389312977
9.75,0.070068359375,-1.002197265625,0.024658203125,-0.48854961832061067,0.030534351145038167,-1.4427480916030535
9.76,0.06591796875,-1.004150390625,0.03076171875,-0.37404580152671757,-0.183206106870229,-1.213740458015267
9.77,0.068359375,-0.99462890625,0.016845703125,-0.4580152671755725,-0.22137404580152673,-1.3587786259541985
9.78,0.072998046875,-0.98779296875,0.0283203125,-0.20610687022900764,-0.08396946564885496,-1.2900763358778626
9.79,0.06982421875,-1.00048828125,0.023193359375,-0.2900763358778626,-0.22900763358778625,-1.3129770992366412
9.8,0.066650390625,-0.994384765625,0.035888671875,-0.5343511450381679,-0.3053435114503817,-1.282442748091603
9.81,0.0712890625,-1.00341796875,0.022216796875,-0.3893129770992366,-0.1450381679389313,-1.2748091603053435
9.82,0.072021484375,-0.99560546875,0.03564453125,-0.6412213740458015,0.1297709923664122,-1.2671755725190839
9.83,0.070556640625,-0.998291015625,0.021484375,-0.549618320610687,-0.16030534351145037,-1.3053435114503817
9.84,0.067626953125,-1.0029296875,0.0234375,-0.5877862595419847,0.1297709923664122,-1.3129770992366412
9.85,0.06982421875,-1.014892578125,0.03662109375,-0.6030534351145038,-0.08396946564885496,-1.4045801526717556
9.86,0.067626953125,-1.002197265625,0.02685546875,-0.40458015267175573,-0.07633587786259542,-1.534351145038168
9.87,0.071533203125,-1.001953125,0.02880859375,-0.42748091603053434,-0.10687022900763359,-1.213740458015267
9.88,0.069580078125,-0.996826171875,0.0283203125,-0.5267175572519084,-0.03816793893129771,-1.183206106870229
9.89,0.06787109375,-1.003662109375,0.02880859375,-0.4122137404580153,-0.07633587786259542,-1.4045801526717556
9.9,0.071044921875,-0.984619140625,0.0185546875,-0.5267175572519084,1.9465648854961832,-1.2748091603053435
9.91,0.06787109375,-1.00146484375,0.030029296875,-0.45038167938931295,-0.061068702290076333,-1.534351145038168
9.92,0.06982421875,-1.0068359375,0.02734375,-0.22900763358778625,-0.09923664122137404,-1.366412213740458
9.93,0.070556640625,-1.000244140625,0.029296875,-0.31297709923664124,-0.0916030534351145,-1.4351145038167938
9.94,0.0703125,-0.99853515625,0.024658203125,-0.5877862595419847,1.9236641221374047,-1.282442748091603
9.95,0.06884765625,-1.006591796875,0.02685546875,-0.5267175572519084,-0.0916030534351145,-1.381679389312977
9.96,0.0693359375,-1.001220703125,0.024658203125,-0.29770992366412213,-0.1984732824427481,-1.3587786259541985
9.97,0.067138671875,-0.985595703125,0.032470703125,-0.5572519083969466,-0.08396946564885496,-1.4809160305343512
9.98,0.0654296875,-1.00341796875,0.020263671875,-0.3053435114503817,-0.16793893129770993,-1.5267175572519085
9.99,0.066650390625,-1.001953125,0.029541015625,-0.2366412213740458,0.07633587786259542,-1.4809160305343512
10.0,0.068359375,-1.0009765625,0.020263671875,-0.29770992366412213,-0.030534351145038167,-1.4274809160305344
10.01,0.07275390625,-1.001220703125,0.025146484375,-0.6106870229007634,0.07633587786259542,-1.251908396946565
10.02,0.06982421875,-0.996826171875,0.028564453125,-0.5572519083969466,-0.16030534351145037,-1.3587786259541985
10.03,0.067138671875,-0.999267578125,0.02490234375,-0.48854961832061067,1.8702290076335877,-1.381679389312977
10.04,0.0732421875,-1.012451171875,0.02490234375,-0.6259541984732825,0.07633587786259542,-1.4961832061068703
10.05,0.07275390625,-0.98828125,0.015625,-0.33587786259541985,-0.015267175572519083,-1.251908396946565
10.06,0.063720703125,-0.986083984375,0.023681640625,-0.32061068702290074,0.022900763358778626,-1.4045801526717556
10.07,0.064208984375,-1.0009765625,0.02587890625,-0.3053435114503817,-0.22900763358778625,-1.465648854961832
10.08,0.063232421875,-1.005126953125,0.028564453125,-0.45038167938931295,0.030534351145038167,-1.3282442748091603
10.09,0.072998046875,-1.0,0.033935546875,-0.40458015267175573,-0.04580152671755725,-1.297709923664122
10.1,0.06689453125,-0.999755859375,0.026611328125,-0.5725190839694656,-0.11450381679389313,-1.3587786259541985
10.11,0.06591796875,-1.00048828125,0.02783203125,-0.5572519083969466,-0.22900763358778625,-1.4809160305343512
10.12,0.065673828125,-0.99755859375,0.02734375,-0.4122137404580153,0.0916030534351145,-1.3282442748091603
10.13,0.055419921875,-1.00146484375,0.0185546875,-0.2748091603053435,0.015267175572519083,-1.6259541984732824
10.14,0.068603515625,-1.001220703125,0.0263671875,-0.366412213740458,-0.16030534351145037,-1.3587786259541985
10.15,0.066650390625,-1.001953125,0.03857421875,-0.3282442748091603,-0.17557251908396945,-1.381679389312977
10.16,0.061767578125,-0.994140625,0.01953125,-0.32061068702290074,-0.15267175572519084,-1.4427480916030535
10.17,0.06689453125,-1.0029296875,0.027099609375,-0.5725190839694656,-0.1450381679389313,-1.3969465648854962
10.18,0.071533203125,-1.01416015625,0.01708984375,-0.366412213740458,-0.15267175572519084,-1.4198473282442747
10.19,0.064208984375,-1.003173828125,0.03076171875,-0.5725190839694656,0.08396946564885496,-1.1145038167938932
10.2,0.069091796875,-1.0,0.01806640625,-0.5038167938931297,-0.015267175572519083,-1.4198473282442747
10.21,0.06640625,-1.00390625,0.03564453125,-0.1984732824427481,0.0916030534351145,-1.4274809160305344
10.22,0.070556640625,-0.9990234375,0.031005859375,-0.40458015267175573,-0.16793893129770993,-1.3740458015267176
10.23,0.067626953125,-1.003173828125,0.027099609375,-0.4198473282442748,-0.030534351145038167,-1.3587786259541985
10.24,0.06884765625,-1.00146484375,0.025390625,-0.6793893129770993,-0.03816793893129771,-1.3053435114503817
10.25,0.071044921875,-1.002197265625,0.023193359375,-0.549618320610687,-0.3053435114503817,-1.5114503816793894
10.26,0.069580078125,-0.987060546875,0.02294921875,-0.29770992366412213,-1.9465648854961832,-1.3969465648854962
10.27,0.068603515625,-1.0009765625,0.029296875,-0.366412213740458,1.9465648854961832,-1.3435114503816794
10.28,0.068603515625,-0.999267578125,0.017333984375,-0.4198473282442748,-0.1984732824427481,-1.2900763358778626
10.29,0.064453125,-1.00341796875,0.025634765625,-0.21374045801526717,0.08396946564885496,-1.2900763358778626
10.3,0.065185546875,-1.006103515625,0.026123046875,-0.44274809160305345,-0.04580152671755725,-1.3893129770992367
10.31,0.069580078125,-1.001220703125,0.02685546875,-0.48091603053435117,-0.04580152671755725,-1.3053435114503817
10.32,0.0673828125,-1.0009765625,0.02734375,-0.5267175572519084,-0.183206106870229,-1.3358778625954197
10.33,0.066162109375,-0.993896484375,0.0263671875,-0.48854961832061067,-0.15267175572519084,-1.450381679389313
10.34,0.07421875,-0.9990234375,0.025634765625,-0.5038167938931297,-0.12213740458015267,-1.3053435114503817
10.35,0.069091796875,-1.010498046875,0.02587890625,-0.33587786259541985,-1.9541984732824427,-1.3053435114503817
10.36,0.076416015625,-0.999755859375,0.024169921875,-0.42748091603053434,-0.13740458015267176,-1.4198473282442747
10.37,0.073486328125,-1.00244140625,0.018798828125,-0.3816793893129771,-0.09923664122137404,-1.4351145038167938
10.38,0.0693359375,-0.99658203125,0.026611328125,-0.4198473282442748,-0.06870229007633588,-1.3969465648854962
10.39,0.068603515625,-1.000244140625,0.024658203125,-0.26717557251908397,-0.0916030534351145,-1.251908396946565
10.4,0.069580078125,-1.000732421875,0.0302734375,-0.31297709923664124,-0.12213740458015267,-1.297709923664122
10.41,0.066650390625,-0.9990234375,0.020751953125,-0.44274809160305345,-0.13740458015267176,-1.4122137404580153
10.42,0.07373046875,-0.99951171875,0.0283203125,-0.4351145038167939,-0.183206106870229,-1.4885496183206106
10.43,0.0703125,-1.005615234375,0.01904296875,-0.26717557251908397,-0.12213740458015267,-1.3511450381679388
10.44,0.0712890625,-0.999755859375,0.019287109375,-0.4580152671755725,-0.2824427480916031,-1.3206106870229009
10.45,0.06689453125,-0.994140625,0.01904296875,-0.48854961832061067,-0.04580152671755725,-1.4732824427480915
10.46,0.06689453125,-1.00732421875,0.02783203125,-0.45038167938931295,1.900763358778626,-1.3435114503816794
10.47,0.065185546875,-1.005859375,0.029052734375,-0.6793893129770993,-0.1984732824427481,-1.4045801526717556
10.48,0.06591796875,-0.997802734375,0.0224609375,-0.26717557251908397,-1.9465648854961832,-1.282442748091603
10.49,0.0693359375,-1.005859375,0.027587890625,-0.4198473282442748,-1.9236641221374047,-1.4961832061068703
10.5,0.067626953125,-0.994384765625,0.0302734375,-0.5038167938931297,-1.9541984732824427,-1.465648854961832
10.51,0.068115234375,-1.000732421875,0.027587890625,-0.3282442748091603,0.04580152671755725,-1.0534351145038168
10.52,0.07275390625,-1.00439453125,0.0283203125,-0.3511450381679389,-0.11450381679389313,-1.213740458015267
10.53,0.063232421875,-0.997802734375,0.03076171875,-0.25190839694656486,0.03816793893129771,-1.3587786259541985
10.54,0.071044921875,-1.01416015625,0.02392578125,-0.5572519083969466,1.8854961832061068,-1.366412213740458
10.55,0.06787109375,-0.99755859375,0.01708984375,-0.6641221374045801,-0.183206106870229,-1.3435114503816794
10.56,0.06689453125,-0.985107421875,0.0302734375,-0.5190839694656488,-0.1297709923664122,-1.251908396946565
10.57,0.06787109375,-1.000732421875,0.02734375,-0.3511450381679389,-0.11450381679389313,-1.3587786259541985
10.58,0.0673828125,-0.999267578125,0.017578125,-0.29770992366412213,-0.08396946564885496,-1.3282442748091603
10.59,0.07177734375,-0.995361328125,0.025146484375,-0.3053435114503817,-0.15267175572519084,-1.5114503816793894
10.6,0.072509765625,-0.9990234375,0.017578125,-0.2366412213740458,-0.1984732824427481,-1.3053435114503817
10.61,0.070068359375,-0.99853515625,0.02783203125,-0.46564885496183206,-1.9389312977099236,-1.381679389312977
10.62,0.065185546875,-1.001953125,0.03076171875,-0.3816793893129771,-0.16793893129770993,-1.5038167938931297
10.63,0.068115234375,-1.003662109375,0.029541015625,-0.3282442748091603,0.0,-1.282442748091603
10.64,0.074462890625,-0.99755859375,0.031982421875,-0.5725190839694656,-0.19083969465648856,-1.3282442748091603
10.65,0.065673828125,-0.998046875,0.02685546875,-0.4580152671755725,-0.16030534351145037,-1.5725190839694656
10.66,0.06982421875,-1.002197265625,0.0302734375,-0.48091603053435117,-0.04580152671755725,-1.465648854961832
10.67,0.069580078125,-1.004150390625,0.025634765625,-0.48091603053435117,0.25190839694656486,-1.2671755725190839
10.68,0.064208984375,-0.9853515625,0.02490234375,-0.4732824427480916,0.015267175572519083,-1.4274809160305344
10.69,0.072021484375,-1.014404296875,0.02392578125,-0.6030534351145038,-1.9389312977099236,-1.3282442748091603
10.7,0.068359375,-1.006103515625,0.016357421875,-0.5419847328244275,1.9312977099236641,-1.5648854961832062
10.71,0.06591796875,-1.005615234375,0.029541015625,-0.6335877862595419,-0.10687022900763359,-1.450381679389313
10.72,0.075439453125,-0.994140625,0.0244140625,-0.4351145038167939,-0.10687022900763359,-1.465648854961832
10.73,0.068603515625,-0.99609375,0.026611328125,-0.46564885496183206,-0.12213740458015267,-1.2595419847328244
10.74,0.072021484375,-1.00341796875,0.03369140625,-0.3435114503816794,0.22900763358778625,-1.4122137404580153
10.75,0.07666015625,-1.013916015625,0.0400390625,-0.6259541984732825,0.22137404580152673,-1.3206106870229009
10.76,0.06494140625,-1.01513671875,0.030029296875,-0.5648854961832062,-0.20610687022900764,-1.297709923664122
10.77,0.068359375,-1.00146484375,0.0244140625,-0.48091603053435117,-0.061068702290076333,-1.4427480916030535
10.78,0.06201171875,-1.001708984375,0.02294921875,-0.21374045801526717,-0.015267175572519083,-1.3053435114503817
10.79,0.069091796875,-0.99951171875,0.023681640625,-0.3511450381679389,-0.12213740458015267,-1.2366412213740459
10.8,0.069580078125,-1.0009765625,0.025146484375,-0.46564885496183206,-0.15267175572519084,-1.251908396946565
10.81,0.0693359375,-1.003662109375,0.03466796875,-0.5038167938931297,1.916030534351145,-1.4198473282442747
10.82,0.072509765625,-1.014404296875,0.021484375,-0.3969465648854962,-0.22137404580152673,-1.2748091603053435
10.83,0.06689453125,-1.001220703125,0.032470703125,-0.45038167938931295,-0.0916030534351145,-1.282442748091603
10.84,0.06982421875,-1.00439453125,0.045654296875,-0.5267175572519084,0.05343511450381679,-1.4961832061068703
10.85,0.064208984375,-0.9951171875,0.03271484375,-0.5267175572519084,-0.09923664122137404,-1.4961832061068703
10.86,0.067626953125,-1.00439453125,0.017822265625,-0.3282442748091603,-0.09923664122137404,-1.3282442748091603
10.87,0.066162109375,-1.000244140625,0.03076171875,-0.35877862595419846,-0.12213740458015267,-1.2748091603053435
10.88,0.0703125,-0.997802734375,0.02392578125,-0.5648854961832062,-0.07633587786259542,-1.3435114503816794
10.89,0.0693359375,-0.99169921875,0.025146484375,-0.4732824427480916,-0.20610687022900764,-1.297709923664122
10.9,0.0703125,-0.986083984375,0.02685546875,-0.46564885496183206,-1.9541984732824427,-1.213740458015267
10.91,0.0703125,-1.001953125,0.026611328125,-0.5267175572519084,-0.06870229007633588,-1.3435114503816794
10.92,0.0693359375,-0.99853515625,0.026123046875,-0.3511450381679389,-0.0916030534351145,-1.4122137404580153
10.93,0.072509765625,-0.99853515625,0.0283203125,-0.5877862595419847,-0.26717557251908397,-1.3740458015267176
10.94,0.0693359375,-1.002197265625,0.029052734375,-0.5114503816793893,-0.11450381679389313,-1.4122137404580153
10.95,0.068603515625,-1.00048828125,0.02294921875,-0.5801526717557252,-0.06870229007633588,-1.282442748091603
10.96,0.0732421875,-1.00341796875,0.02783203125,-0.4580152671755725,-0.16030534351145037,-1.4580152671755726
10.97,0.07177734375,-1.01220703125,0.02392578125,-0.3511450381679389,-0.06870229007633588,-1.4045801526717556
10.98,0.066162109375,-0.99462890625,0.028564453125,-0.44274809160305345,0.030534351145038167,-1.366412213740458
10.99,0.06640625,-0.9990234375,0.0302734375,-0.2595419847328244,-0.015267175572519083,-1.2748091603053435
11.0,0.068359375,-0.9921875,0.024658203125,-0.4351145038167939,0.022900763358778626,-1.450381679389313
11.01,0.0751953125,-1.000244140625,0.015380859375,-0.4198473282442748,-0.05343511450381679,-1.3511450381679388
11.02,0.06396484375,-1.0029296875,0.0283203125,-0.22137404580152673,0.09923664122137404,-1.5267175572519085
11.03,0.068603515625,-0.99609375,0.02734375,-0.33587786259541985,-1.9465648854961832,-1.2748091603053435
11.04,0.064208984375,-1.00732421875,0.02783203125,-0.6564885496183206,0.09923664122137404,-1.4198473282442747
11.05,0.0712890625,-0.998779296875,0.0224609375,-0.4198473282442748,0.04580152671755725,-1.3740458015267176
11.06,0.07080078125,-1.001953125,0.0166015625,-0.5114503816793893,1.9465648854961832,-1.2900763358778626
