Time(s),AccX,AccY,AccZ,GyrX,GyrY,GyrZ
0.0,0.088134765625,-0.939697265625,0.1533203125,-2.595419847328244,15.603053435114504,12.549618320610687
0.01,0.125732421875,-0.934814453125,0.146728515625,-3.6564885496183206,16.0,14.679389312977099
0.02,0.14208984375,-0.943359375,0.135986328125,-4.8396946564885495,16.17557251908397,15.335877862595419
0.03,0.136962890625,-0.977294921875,0.15234375,-7.083969465648855,13.053435114503817,14.618320610687023
0.04,0.152099609375,-1.015625,0.145263671875,-8.51908396946565,11.114503816793894,13.557251908396946
0.05,0.1435546875,-1.072265625,0.1455078125,-8.045801526717558,14.748091603053435,12.709923664122137
0.06,0.128662109375,-1.11083984375,0.16552734375,-6.4961832061068705,15.374045801526718,11.664122137404581
0.07,0.1123046875,-1.13720703125,0.15625,-5.061068702290076,13.51908396946565,11.648854961832061
0.08,0.131591796875,-1.164306640625,0.181396484375,-4.1679389312977095,4.755725190839694,6.740458015267175
0.09,0.1533203125,-1.18994140625,0.18603515625,-2.2290076335877864,0.6259541984732825,3.4198473282442747
0.1,0.14453125,-1.230712890625,0.219482421875,6.938931297709924,-3.6259541984732824,-0.6946564885496184
0.11,0.12548828125,-1.207275390625,0.230224609375,18.793893129770993,-6.0534351145038165,-2.9923664122137406
0.12,0.116455078125,-1.143798828125,0.240966796875,24.916030534351144,-5.267175572519084,-3.122137404580153
0.13,0.10302734375,-1.062255859375,0.24267578125,21.916030534351144,-4.2748091603053435,-2.2748091603053435
0.14,0.09423828125,-1.017822265625,0.22119140625,16.83206106870229,-7.114503816793893,-2.145038167938931
0.15,0.117919921875,-1.01611328125,0.1962890625,16.610687022900763,-8.236641221374045,-1.8702290076335877
0.16,0.1298828125,-1.023193359375,0.164794921875,21.374045801526716,-8.48091603053435,-1.534351145038168
0.17,0.14453125,-1.027587890625,0.175537109375,26.549618320610687,-9.259541984732824,-1.4809160305343512
0.18,0.146728515625,-1.01708984375,0.1943359375,29.46564885496183,-9.908396946564885,-1.4809160305343512
0.19,0.1494140625,-1.00341796875,0.216552734375,29.641221374045802,-9.900763358778626,-0.03816793893129771
0.2,0.150146484375,-1.013916015625,0.2109375,28.84732824427481,-8.877862595419847,-2.786259541984733
0.21,0.126220703125,-0.990478515625,0.2275390625,26.3206106870229,-8.083969465648854,-3.3740458015267176
0.22,0.11865234375,-0.958740234375,0.223388671875,23.793893129770993,-7.442748091603053,-3.572519083969466
0.23,0.1220703125,-0.95361328125,0.224609375,23.908396946564885,-8.061068702290076,-3.732824427480916
0.24,0.102294921875,-0.947021484375,0.20947265625,25.458015267175572,-9.106870229007633,-4.068702290076335
0.25,0.111328125,-0.94775390625,0.223876953125,25.709923664122137,-10.557251908396946,-4.366412213740458
0.26,0.138671875,-0.962646484375,0.234619140625,25.03053435114504,-12.526717557251908,-5.1603053435114505
0.27,0.124755859375,-0.978759765625,0.235107421875,23.282442748091604,-13.49618320610687,-5.3893129770992365
0.28,0.126220703125,-0.98828125,0.238525390625,20.732824427480917,-12.16030534351145,-5.1603053435114505
0.29,0.11376953125,-0.99560546875,0.23046875,18.259541984732824,-11.022900763358779,-4.580152671755725
0.3,0.11279296875,-1.01318359375,0.223876953125,19.099236641221374,-10.572519083969466,-3.3969465648854964
0.31,0.095703125,-1.0224609375,0.21044921875,23.83969465648855,-9.946564885496183,-2.0839694656488548
0.32,0.138916015625,-1.01123046875,0.22265625,28.374045801526716,-8.801526717557252,-1.381679389312977
0.33,0.13037109375,-0.990478515625,0.23193359375,29.572519083969464,-7.557251908396947,-0.7633587786259542
0.34,0.125244140625,-0.982421875,0.2470703125,27.625954198473284,-6.190839694656488,-0.5038167938931297
0.35,0.122314453125,-0.95068359375,0.26123046875,23.83206106870229,-5.9541984732824424,-0.22137404580152673
0.36,0.115234375,-0.94970703125,0.24658203125,21.290076335877863,-5.7251908396946565,-0.19083969465648856
0.37,0.12255859375,-0.95556640625,0.244384765625,20.66412213740458,-5.595419847328245,-0.48854961832061067
0.38,0.1240234375,-0.953857421875,0.25,20.80916030534351,-5.694656488549619,-1.16793893129771
0.39,0.132080078125,-0.93896484375,0.262939453125,19.748091603053435,-6.106870229007634,-2.16793893129771
0.4,0.12841796875,-0.982421875,0.27587890625,19.00763358778626,-6.580152671755725,-3.053435114503817
0.41,0.12890625,-0.9697265625,0.293212890625,18.72519083969466,-8.145038167938932,-2.015267175572519
0.42,0.11474609375,-0.997802734375,0.29443359375,18.96946564885496,-8.610687022900763,-5.8396946564885495
0.43,0.108642578125,-1.001708984375,0.298828125,19.14503816793893,-8.396946564885496,-5.786259541984733
0.44,0.11572265625,-1.002685546875,0.28173828125,19.610687022900763,-6.923664122137405,-3.2519083969465647
0.45,0.112548828125,-1.000732421875,0.266845703125,20.16793893129771,-6.442748091603053,-2.877862595419847
0.46,0.124755859375,-0.998046875,0.257080078125,22.259541984732824,-5.351145038167939,-1.7328244274809161
0.47,0.130859375,-0.9921875,0.263671875,25.770992366412212,-5.038167938931298,-0.9847328244274809
0.48,0.135498046875,-0.978759765625,0.30224609375,29.244274809160306,-4.129770992366412,-0.6641221374045801
0.49,0.138916015625,-0.963623046875,0.33154296875,29.770992366412212,-3.6793893129770994,-0.4351145038167939
0.5,0.1015625,-0.95947265625,0.310302734375,30.251908396946565,-16.66412213740458,-1.8244274809160306
0.51,0.16259765625,-0.980712890625,0.31982421875,32.69465648854962,-12.511450381679388,-1.4732824427480915
0.52,0.17431640625,-0.966552734375,0.39013671875,34.58015267175573,1.8396946564885497,-0.4351145038167939
0.53,0.13818359375,-0.950439453125,0.45556640625,29.404580152671755,1.297709923664122,-0.16793893129770993
0.54,0.097412109375,-0.958740234375,0.47705078125,20.061068702290076,-4.870229007633588,-0.5419847328244275
0.55,0.094482421875,-1.010009765625,0.367431640625,19.587786259541986,-4.549618320610687,0.37404580152671757
0.56,0.13427734375,-0.99365234375,0.3369140625,22.27480916030534,-0.4580152671755725,0.9007633587786259
0.57,0.108154296875,-0.97998046875,0.29931640625,18.358778625954198,-3.6106870229007635,0.5648854961832062
0.58,0.121826171875,-0.9794921875,0.28271484375,18.458015267175572,-3.66412213740458,1.0305343511450382
0.59,0.12841796875,-0.993408203125,0.263916015625,24.427480916030536,-2.49618320610687,1.8015267175572518
0.6,0.1279296875,-0.978515625,0.2841796875,30.9618320610687,-1.9770992366412214,2.030534351145038
0.61,0.12109375,-0.948974609375,0.3251953125,32.900763358778626,-1.900763358778626,2.1526717557251906
0.62,0.123779296875,-0.937255859375,0.332763671875,32.06106870229008,-2.6564885496183206,2.0076335877862594
0.63,0.124267578125,-0.923095703125,0.357421875,29.137404580152673,-2.8931297709923665,2.0229007633587788
0.64,0.119873046875,-0.930908203125,0.36474609375,27.366412213740457,-3.5114503816793894,2.2595419847328246
0.65,0.124267578125,-0.935546875,0.370361328125,26.557251908396946,-3.030534351145038,2.6717557251908395
0.66,0.12353515625,-0.962890625,0.353515625,27.17557251908397,-3.1068702290076335,3.145038167938931
0.67,0.115478515625,-0.9501953125,0.348876953125,27.374045801526716,-2.969465648854962,3.50381679389313
0.68,0.13525390625,-0.966552734375,0.343017578125,30.595419847328245,-2.450381679389313,3.5801526717557253
0.69,0.12841796875,-0.945556640625,0.345458984375,31.068702290076335,-2.49618320610687,1.9541984732824427
0.7,0.135009765625,-0.948974609375,0.3681640625,31.83969465648855,-1.8702290076335877,4.0534351145038165
0.71,0.12353515625,-0.9365234375,0.377685546875,33.06106870229008,-0.8549618320610687,4.564885496183206
0.72,0.12353515625,-0.931396484375,0.416015625,33.7557251908397,-0.29770992366412213,4.9541984732824424
0.73,0.1259765625,-0.919921875,0.44140625,32.55725190839695,0.19083969465648856,5.251908396946565
0.74,0.122802734375,-0.929931640625,0.467529296875,29.51145038167939,0.6183206106870229,5.412213740458015
0.75,0.107177734375,-0.910400390625,0.49560546875,26.366412213740457,0.5267175572519084,5.206106870229007
0.76,0.094482421875,-0.925048828125,0.475341796875,23.068702290076335,0.030534351145038167,5.137404580152672
0.77,0.078369140625,-0.916259765625,0.456787109375,20.267175572519083,-1.4732824427480915,5.015267175572519
0.78,0.07177734375,-0.9091796875,0.451171875,17.6793893129771,-2.4427480916030535,4.587786259541985
0.79,0.071533203125,-0.9091796875,0.4267578125,15.946564885496183,-2.801526717557252,4.519083969465649
0.8,0.073486328125,-0.890380859375,0.404541015625,13.717557251908397,-3.2061068702290076,4.297709923664122
0.81,0.083984375,-0.891845703125,0.384033203125,9.946564885496183,-4.137404580152672,3.9923664122137406
0.82,0.11669921875,-0.889892578125,0.354248046875,7.694656488549619,-4.0458015267175576,3.49618320610687
0.83,0.136474609375,-0.904296875,0.347412109375,7.8396946564885495,-3.236641221374046,3.1526717557251906
0.84,0.161865234375,-0.891845703125,0.34716796875,8.534351145038167,-1.8015267175572518,2.931297709923664
0.85,0.174560546875,-0.9072265625,0.360107421875,8.488549618320612,-0.3435114503816794,2.33587786259542
0.86,0.177001953125,-0.906982421875,0.3935546875,7.374045801526718,0.8015267175572519,1.5572519083969465
0.87,0.1708984375,-0.930908203125,0.412109375,7.145038167938932,1.2671755725190839,1.1755725190839694
0.88,0.15087890625,-0.92724609375,0.43701171875,7.793893129770993,1.5114503816793894,0.5114503816793893
0.89,0.127685546875,-0.935546875,0.47021484375,1.6946564885496183,2.900763358778626,-0.29770992366412213
0.9,0.1357421875,-0.969970703125,0.462158203125,2.122137404580153,3.2061068702290076,-0.7786259541984732
0.91,0.109619140625,-0.986572265625,0.442138671875,3.49618320610687,3.2900763358778624,-1.2366412213740459
0.92,0.09326171875,-0.969482421875,0.43408203125,3.633587786259542,2.8473282442748094,-1.4045801526717556
0.93,0.077392578125,-0.966552734375,0.43603515625,3.8091603053435112,2.4427480916030535,-0.916030534351145
0.94,0.07275390625,-0.95361328125,0.423095703125,6.1603053435114505,2.045801526717557,-0.2366412213740458
0.95,0.064697265625,-0.93505859375,0.4345703125,8.274809160305344,1.2595419847328244,0.4732824427480916
0.96,0.06689453125,-0.904296875,0.468017578125,8.16793893129771,0.35877862595419846,1.3893129770992367
0.97,0.07177734375,-0.899658203125,0.478759765625,5.229007633587786,-0.6564885496183206,1.6717557251908397
0.98,0.0693359375,-0.88818359375,0.493896484375,1.6564885496183206,-2.16793893129771,2.519083969465649
0.99,0.070068359375,-0.8974609375,0.494140625,-0.0916030534351145,-3.099236641221374,2.786259541984733
1.0,0.070556640625,-0.9150390625,0.49169921875,-4.0534351145038165,-3.6106870229007635,2.6030534351145036
1.01,0.07177734375,-0.91552734375,0.458740234375,-5.152671755725191,-4.770992366412214,2.1755725190839694
1.02,0.07763671875,-0.9169921875,0.43310546875,-4.038167938931298,-5.412213740458015,1.8015267175572518
1.03,0.08837890625,-0.916748046875,0.41650390625,-2.351145038167939,-6.114503816793893,1.618320610687023
1.04,0.078857421875,-0.918212890625,0.4111328125,0.2748091603053435,-5.847328244274809,1.7786259541984732
1.05,0.09619140625,-0.93359375,0.421875,2.2519083969465647,-5.938931297709924,1.5114503816793894
1.06,0.106689453125,-0.93115234375,0.464111328125,3.282442748091603,-5.7251908396946565,1.5572519083969465
1.07,0.111572265625,-0.936279296875,0.475341796875,3.0381679389312977,-5.366412213740458,1.2061068702290076
1.08,0.116455078125,-0.927001953125,0.487548828125,2.053435114503817,-5.091603053435114,0.7633587786259542
1.09,0.1171875,-0.927978515625,0.490234375,0.7709923664122137,-4.519083969465649,0.5419847328244275
1.1,0.112548828125,-0.9267578125,0.488525390625,-0.6793893129770993,-4.534351145038168,0.10687022900763359
1.11,0.117431640625,-0.927978515625,0.480224609375,-1.0687022900763359,-3.9770992366412212,-0.22900763358778625
1.12,0.114013671875,-0.9375,0.471435546875,-1.2290076335877862,-3.9160305343511452,-0.48091603053435117
1.13,0.112548828125,-0.92919921875,0.462158203125,-0.9847328244274809,-3.1908396946564888,-0.6106870229007634
1.14,0.107666015625,-0.91259765625,0.47021484375,-0.7862595419847328,-2.572519083969466,-0.5267175572519084
1.15,0.113037109375,-0.91943359375,0.46533203125,-1.2671755725190839,-2.114503816793893,-0.7786259541984732
1.16,0.115966796875,-0.923828125,0.462158203125,-1.4427480916030535,-1.7251908396946565,-1.0458015267175573
1.17,0.111328125,-0.919677734375,0.468017578125,-1.83206106870229,-1.3053435114503817,-1.2595419847328244
1.18,0.113037109375,-0.921630859375,0.473876953125,-1.6412213740458015,-1.0305343511450382,-1.3893129770992367
1.19,0.112060546875,-0.9189453125,0.483154296875,-1.5877862595419847,-0.9923664122137404,-1.5572519083969465
1.2,0.10205078125,-0.918701171875,0.492919921875,-2.0610687022900764,-1.2900763358778626,-1.4580152671755726
1.21,0.099609375,-0.913330078125,0.49462890625,-2.5343511450381677,-1.099236641221374,-1.7251908396946565
1.22,0.0966796875,-0.91162109375,0.5029296875,-3.3893129770992365,-1.015267175572519,-1.7938931297709924
1.23,0.094970703125,-0.91064453125,0.504638671875,-4.442748091603053,-1.5114503816793894,-1.8931297709923665
1.24,0.092041015625,-0.922119140625,0.493408203125,-4.931297709923665,-1.7786259541984732,-2.2213740458015265
1.25,0.097412109375,-0.921875,0.469970703125,-4.6183206106870225,-2.282442748091603,-2.4580152671755724
1.26,0.107177734375,-0.92529296875,0.470947265625,-3.3282442748091605,-2.030534351145038,-2.16793893129771
1.27,0.100830078125,-0.923095703125,0.46142578125,-2.7099236641221376,-2.427480916030534,-2.068702290076336
1.28,0.106689453125,-0.9248046875,0.480224609375,-1.5114503816793894,-2.015267175572519,-1.8549618320610688
1.29,0.107177734375,-0.933837890625,0.489013671875,-0.8931297709923665,-2.1297709923664123,-1.5954198473282444
1.3,0.098876953125,-0.92724609375,0.501708984375,-0.8702290076335878,-2.3740458015267176,-1.2213740458015268
1.31,0.09228515625,-0.932373046875,0.499267578125,-0.9847328244274809,-2.2519083969465647,-1.1603053435114503
1.32,0.0908203125,-0.927490234375,0.496337890625,-1.5114503816793894,-2.5801526717557253,-1.0916030534351144
1.33,0.081298828125,-0.93310546875,0.474365234375,-2.236641221374046,-2.4580152671755724,-1.2213740458015268
1.34,0.094482421875,-0.9326171875,0.468017578125,-2.068702290076336,-2.1526717557251906,-1.2748091603053435
1.35,0.113525390625,-0.932373046875,0.438232421875,-0.45038167938931295,-1.3969465648854962,-1.4045801526717556
1.36,0.1201171875,-0.928955078125,0.438232421875,2.2442748091603053,-0.9541984732824428,-1.618320610687023
1.37,0.121337890625,-0.92431640625,0.466064453125,4.0458015267175576,-0.5267175572519084,-1.5190839694656488
1.38,0.126220703125,-0.9228515625,0.47265625,5.00763358778626,-1.9465648854961832,-1.5419847328244274
1.39,0.121337890625,-0.923095703125,0.481689453125,4.114503816793893,0.10687022900763359,-1.5954198473282444
1.4,0.119140625,-0.92236328125,0.490966796875,2.053435114503817,0.22137404580152673,-1.6946564885496183
1.41,0.1240234375,-0.919677734375,0.46826171875,0.8778625954198473,-1.2061068702290076,-1.3740458015267176
1.42,0.1171875,-0.929443359375,0.459228515625,1.5648854961832062,1.4732824427480915,-1.5267175572519085
1.43,0.1103515625,-0.935546875,0.457763671875,1.6106870229007633,0.3053435114503817,-1.5648854961832062
1.44,0.114990234375,-0.931640625,0.453369140625,1.4427480916030535,1.0076335877862594,-1.2595419847328244
1.45,0.11279296875,-0.931884765625,0.462646484375,0.916030534351145,0.732824427480916,-1.2748091603053435
1.46,0.111328125,-0.92822265625,0.45068359375,0.1450381679389313,0.8396946564885496,-1.3435114503816794
1.47,0.10498046875,-0.917724609375,0.462158203125,2.8396946564885495,1.1526717557251909,-1.5038167938931297
1.48,0.103759765625,-0.92041015625,0.459716796875,2.8473282442748094,1.251908396946565,-1.1755725190839694
1.49,0.119384765625,-0.909423828125,0.46337890625,2.549618320610687,1.015267175572519,-0.916030534351145
1.5,0.093994140625,-0.91357421875,0.4658203125,1.8702290076335877,1.5877862595419847,-0.5572519083969466
1.51,0.0966796875,-0.924072265625,0.4765625,1.9618320610687023,1.282442748091603,-0.6106870229007634
1.52,0.097412109375,-0.919921875,0.495361328125,0.8702290076335878,-0.5725190839694656,-0.5877862595419847
1.53,0.10498046875,-0.920166015625,0.46923828125,1.0610687022900764,0.6641221374045801,-0.37404580152671757
1.54,0.08935546875,-0.9248046875,0.474365234375,-0.25190839694656486,-1.1755725190839694,-0.6870229007633588
1.55,0.091552734375,-0.916748046875,0.4765625,-1.4961832061068703,-1.816793893129771,-0.7022900763358778
1.56,0.095947265625,-0.92236328125,0.48388671875,-2.946564885496183,-1.5572519083969465,-0.7862595419847328
1.57,0.100341796875,-0.92529296875,0.4794921875,-3.2290076335877864,-1.8854961832061068,-0.7709923664122137
1.58,0.105712890625,-0.93212890625,0.46533203125,-2.946564885496183,-2.183206106870229,-0.8778625954198473
1.59,0.10888671875,-0.92919921875,0.4658203125,-3.8702290076335877,-1.7557251908396947,-0.9083969465648855
1.6,0.119140625,-0.930419921875,0.46630859375,-1.5725190839694656,-0.015267175572519083,-0.8778625954198473
1.61,0.115234375,-0.927490234375,0.461669921875,-0.7709923664122137,-1.6641221374045803,-0.8625954198473282
1.62,0.112060546875,-0.932861328125,0.474853515625,0.061068702290076333,-1.0534351145038168,-0.9923664122137404
1.63,0.104248046875,-0.936279296875,0.484375,0.648854961832061,-1.083969465648855,-1.0305343511450382
1.64,0.104248046875,-0.9169921875,0.490478515625,-0.12213740458015267,-0.5267175572519084,-0.916030534351145
1.65,0.094970703125,-0.917724609375,0.48779296875,-1.3587786259541985,-1.1068702290076335,-1.4351145038167938
1.66,0.094970703125,-0.92529296875,0.498291015625,-2.145038167938931,-0.9923664122137404,-1.6030534351145038
1.67,0.104736328125,-0.918212890625,0.4853515625,-2.633587786259542,-1.381679389312977,-1.6793893129770991
1.68,0.11328125,-0.924560546875,0.470703125,-3.198473282442748,-0.7862595419847328,-1.786259541984733
1.69,0.117431640625,-0.924560546875,0.46533203125,-2.946564885496183,-0.6106870229007634,-1.748091603053435
1.7,0.118408203125,-0.9248046875,0.47119140625,-2.145038167938931,-0.16793893129770993,-1.633587786259542
1.71,0.119384765625,-0.920654296875,0.480224609375,-1.4580152671755726,0.29770992366412213,-1.5190839694656488
1.72,0.112060546875,-0.916015625,0.482666015625,-2.0610687022900764,0.3053435114503817,-1.7709923664122138
1.73,0.1201171875,-0.912841796875,0.483154296875,-2.435114503816794,0.22137404580152673,-1.816793893129771
1.74,0.111572265625,-0.905029296875,0.48388671875,-2.8473282442748094,0.45038167938931295,-1.465648854961832
1.75,0.10400390625,-0.918212890625,0.483642578125,-3.053435114503817,0.007633587786259542,-1.6488549618320612
1.76,0.099609375,-0.916015625,0.474609375,-3.3893129770992365,-0.09923664122137404,-1.6030534351145038
1.77,0.0986328125,-0.926025390625,0.48291015625,-3.633587786259542,-0.2900763358778626,-1.5801526717557253
1.78,0.103759765625,-0.927490234375,0.456787109375,-3.1526717557251906,-0.9312977099236641,-1.6641221374045803
1.79,0.102783203125,-0.93505859375,0.466064453125,-2.1603053435114505,-0.3893129770992366,-1.465648854961832
1.8,0.10107421875,-0.930419921875,0.466552734375,-1.3893129770992367,-0.37404580152671757,-1.3206106870229009
1.81,0.10107421875,-0.924072265625,0.472412109375,-1.3282442748091603,-0.8778625954198473,-1.2061068702290076
1.82,0.110107421875,-0.921142578125,0.485107421875,-1.366412213740458,-0.3816793893129771,-1.0076335877862594
1.83,0.115478515625,-0.922119140625,0.485107421875,-2.045801526717557,-0.35877862595419846,-0.9236641221374046
1.84,0.1181640625,-0.92041015625,0.491455078125,-2.801526717557252,-0.022900763358778626,-1.0610687022900764
1.85,0.12109375,-0.924072265625,0.478759765625,-3.0916030534351147,-0.05343511450381679,-1.099236641221374
1.86,0.11572265625,-0.92236328125,0.464599609375,-2.9923664122137406,0.030534351145038167,-1.015267175572519
1.87,0.115478515625,-0.937255859375,0.4658203125,-2.801526717557252,0.26717557251908397,-1.1145038167938932
1.88,0.11181640625,-0.922607421875,0.453125,-2.3206106870229006,0.4122137404580153,-1.2671755725190839
1.89,0.107666015625,-0.921630859375,0.462646484375,-1.9541984732824427,0.42748091603053434,-1.5267175572519085
1.9,0.111328125,-0.924560546875,0.471923828125,-1.1908396946564885,0.46564885496183206,-1.6641221374045803
1.91,0.110107421875,-0.927734375,0.4794921875,-0.8320610687022901,0.4351145038167939,-1.549618320610687
1.92,0.0986328125,-0.9228515625,0.486083984375,-1.0458015267175573,0.6259541984732825,-1.6259541984732824
1.93,0.093994140625,-0.924560546875,0.48876953125,-1.6717557251908397,-0.061068702290076333,-1.7404580152671756
1.94,0.10791015625,-0.921142578125,0.4814453125,-2.6412213740458017,0.03816793893129771,-1.9465648854961832
1.95,0.106689453125,-0.92333984375,0.484130859375,-2.366412213740458,-0.1450381679389313,-2.0229007633587788
1.96,0.108154296875,-0.928955078125,0.457275390625,-1.6564885496183206,0.07633587786259542,-1.7633587786259541
1.97,0.11669921875,-0.919921875,0.45751953125,-0.35877862595419846,-1.9312977099236641,-1.9389312977099236
1.98,0.111572265625,-0.924072265625,0.46044921875,-0.1984732824427481,0.1984732824427481,-1.8015267175572518
1.99,0.109375,-0.925537109375,0.465087890625,0.25190839694656486,0.3511450381679389,-1.8854961832061068
2.0,0.09765625,-0.92529296875,0.476318359375,0.44274809160305345,0.6259541984732825,-1.9465648854961832
2.01,0.11328125,-0.923828125,0.479248046875,0.6946564885496184,0.8473282442748091,-1.7786259541984732
2.02,0.107666015625,-0.9228515625,0.47802734375,0.3816793893129771,0.7175572519083969,-1.786259541984733
2.03,0.1083984375,-0.92236328125,0.47998046875,-0.1450381679389313,0.9083969465648855,-3.854961832061069
2.04,0.1044921875,-0.91455078125,0.47509765625,-0.33587786259541985,0.8320610687022901,-1.9541984732824427
2.05,0.106689453125,-0.92919921875,0.470947265625,-0.6564885496183206,0.8931297709923665,-1.7786259541984732
2.06,0.100830078125,-0.9267578125,0.4755859375,-0.9923664122137404,0.5114503816793893,-1.8549618320610688
2.07,0.107421875,-0.928466796875,0.4716796875,-0.26717557251908397,0.25190839694656486,-1.6641221374045803
2.08,0.09765625,-0.934814453125,0.474853515625,0.6641221374045801,0.31297709923664124,-1.450381679389313
2.09,0.111328125,-0.918701171875,0.48388671875,0.916030534351145,0.46564885496183206,-1.2671755725190839
2.1,0.108642578125,-0.91845703125,0.486083984375,0.8854961832061069,0.2900763358778626,-1.16793893129771
2.11,0.1142578125,-0.91259765625,0.4765625,-0.3053435114503817,0.3282442748091603,-1.3740458015267176
2.12,0.10888671875,-0.91943359375,0.47802734375,-0.9541984732824428,0.5648854961832062,-1.4351145038167938
2.13,0.10498046875,-0.9189453125,0.4765625,-1.1145038167938932,0.4732824427480916,-1.6259541984732824
2.14,0.105224609375,-0.92822265625,0.471435546875,-0.6335877862595419,0.4961832061068702,-1.6946564885496183
2.15,0.11181640625,-0.91845703125,0.457763671875,0.1450381679389313,0.2748091603053435,-1.786259541984733
2.16,0.10498046875,-0.91650390625,0.471435546875,0.16793893129770993,0.40458015267175573,-1.702290076335878
2.17,0.1083984375,-0.91796875,0.47802734375,0.10687022900763359,0.19083969465648856,-1.717557251908397
2.18,0.107177734375,-0.917724609375,0.47998046875,-0.31297709923664124,-0.16030534351145037,-1.6793893129770991
2.19,0.115966796875,-0.91650390625,0.479736328125,-0.4351145038167939,-0.06870229007633588,-1.5648854961832062
2.2,0.123779296875,-0.923828125,0.482421875,-0.5801526717557252,0.03816793893129771,-1.5267175572519085
2.21,0.113525390625,-0.93701171875,0.494384765625,-0.9923664122137404,0.07633587786259542,-1.4885496183206106
2.22,0.096435546875,-0.9287109375,0.492431640625,-1.549618320610687,-0.1450381679389313,-1.5190839694656488
2.23,0.10791015625,-0.925048828125,0.486572265625,-2.595419847328244,-0.22900763358778625,-1.465648854961832
2.24,0.113037109375,-0.927734375,0.485595703125,-2.9389312977099236,-0.32061068702290074,-1.5572519083969465
2.25,0.113037109375,-0.928466796875,0.477294921875,-2.6564885496183206,-0.183206106870229,-1.450381679389313
2.26,0.118408203125,-0.9267578125,0.4775390625,-2.2290076335877864,-0.16793893129770993,-1.16793893129771
2.27,0.12109375,-0.918701171875,0.478515625,-1.7251908396946565,0.06870229007633588,-0.8015267175572519
2.28,0.11474609375,-0.906494140625,0.47412109375,-1.3129770992366412,-0.015267175572519083,-0.816793893129771
2.29,0.115234375,-0.916748046875,0.481201171875,-1.1984732824427482,-0.3511450381679389,-0.8702290076335878
2.3,0.112060546875,-0.919677734375,0.48681640625,-1.251908396946565,-0.6793893129770993,-0.8091603053435115
2.31,0.104736328125,-0.919189453125,0.4833984375,-1.0916030534351144,-0.5267175572519084,-0.7862595419847328
2.32,0.109619140625,-0.916015625,0.474609375,-1.3435114503816794,-0.9236641221374046,-0.9083969465648855
2.33,0.10888671875,-0.92236328125,0.481689453125,-1.4427480916030535,-0.9770992366412213,-0.8702290076335878
2.34,0.106201171875,-0.9287109375,0.477783203125,-1.1068702290076335,-1.1374045801526718,-1.0534351145038168
2.35,0.109130859375,-0.92236328125,0.472900390625,-0.5343511450381679,-1.083969465648855,-0.8778625954198473
2.36,0.114990234375,-0.924560546875,0.470458984375,1.9236641221374047,-1.0229007633587786,-0.8702290076335878
2.37,0.112060546875,-0.935302734375,0.45947265625,0.5038167938931297,-1.1755725190839694,-0.6259541984732825
2.38,0.117919921875,-0.92431640625,0.481689453125,0.9083969465648855,-1.1755725190839694,-0.7404580152671756
2.39,0.1201171875,-0.922607421875,0.48583984375,0.8778625954198473,-1.0458015267175573,-0.7938931297709924
2.4,0.115966796875,-0.917724609375,0.475341796875,0.24427480916030533,-1.083969465648855,-0.8396946564885496
2.41,0.112060546875,-0.921142578125,0.48193359375,-0.8625954198473282,-1.4045801526717556,-0.9236641221374046
2.42,0.115234375,-0.923583984375,0.48193359375,-1.450381679389313,-1.4427480916030535,-0.6335877862595419
2.43,0.122314453125,-0.9248046875,0.476318359375,-1.0534351145038168,-1.083969465648855,-0.3053435114503817
2.44,0.1201171875,-0.92724609375,0.482177734375,0.2900763358778626,-0.5038167938931297,-0.4198473282442748
2.45,0.1201171875,-0.925048828125,0.477783203125,1.5725190839694656,-0.13740458015267176,-0.3282442748091603
2.46,0.11669921875,-0.919189453125,0.489501953125,1.4885496183206106,-0.3511450381679389,-0.46564885496183206
2.47,0.116943359375,-0.91796875,0.47998046875,1.0,-0.7938931297709924,-1.0610687022900764
2.48,0.115966796875,-0.916015625,0.489013671875,0.33587786259541985,-0.0916030534351145,-1.0
2.49,0.10693359375,-0.91748046875,0.480712890625,0.4198473282442748,0.08396946564885496,-1.2213740458015268
2.5,0.09912109375,-0.92138671875,0.4765625,0.12213740458015267,1.8549618320610688,-1.2900763358778626
2.51,0.10107421875,-0.923828125,0.480712890625,-0.4122137404580153,-0.2595419847328244,-1.633587786259542
2.52,0.111328125,-0.926025390625,0.486328125,-0.1984732824427481,-0.11450381679389313,-1.5419847328244274
2.53,0.116943359375,-0.91845703125,0.475341796875,0.12213740458015267,0.12213740458015267,-1.549618320610687
2.54,0.112548828125,-0.924072265625,0.480224609375,1.0534351145038168,0.46564885496183206,-1.6259541984732824
2.55,0.112548828125,-0.920166015625,0.4814453125,1.4351145038167938,0.4580152671755725,-1.7557251908396947
2.56,0.109619140625,-0.915283203125,0.482666015625,1.0458015267175573,0.732824427480916,-1.83206106870229
2.57,0.11279296875,-0.91796875,0.496826171875,0.17557251908396945,0.9465648854961832,-3.8396946564885495
2.58,0.11474609375,-0.92529296875,0.471923828125,0.1984732824427481,1.282442748091603,-2.145038167938931
2.59,0.11474609375,-0.92626953125,0.480224609375,0.6412213740458015,1.183206106870229,-2.1755725190839694
2.6,0.11474609375,-0.91943359375,0.47998046875,0.8015267175572519,1.3206106870229009,-2.3435114503816794
2.61,0.115234375,-0.921630859375,0.48583984375,0.8931297709923665,1.4961832061068703,-2.1374045801526718
2.62,0.10888671875,-0.9228515625,0.47705078125,0.8854961832061069,1.7251908396946565,-2.0763358778625953
2.63,0.111328125,-0.9228515625,0.479736328125,0.9083969465648855,2.4427480916030535,-1.8091603053435115
2.64,0.11083984375,-0.91650390625,0.470947265625,0.9923664122137404,2.763358778625954,-1.4885496183206106
2.65,0.1142578125,-0.921875,0.47998046875,1.0458015267175573,3.1297709923664123,-1.1450381679389312
2.66,0.122802734375,-0.9287109375,0.46923828125,1.1297709923664123,3.183206106870229,-1.3969465648854962
2.67,0.108642578125,-0.932861328125,0.486572265625,0.7022900763358778,3.6793893129770994,-1.5725190839694656
2.68,0.10400390625,-0.926025390625,0.486328125,0.1297709923664122,3.6946564885496183,-1.6717557251908397
2.69,0.107177734375,-0.92919921875,0.47412109375,-0.22900763358778625,3.50381679389313,-1.9236641221374047
2.7,0.10546875,-0.931640625,0.47265625,-1.9312977099236641,3.4122137404580153,-2.122137404580153
2.71,0.101318359375,-0.931396484375,0.474609375,0.8015267175572519,3.9236641221374047,-2.1603053435114505
2.72,0.09912109375,-0.93212890625,0.466064453125,1.633587786259542,3.984732824427481,-2.030534351145038
2.73,0.099853515625,-0.932373046875,0.477783203125,1.4427480916030535,5.816793893129771,-1.816793893129771
2.74,0.09912109375,-0.92724609375,0.478515625,0.8473282442748091,1.9770992366412214,-1.6717557251908397
2.75,0.093505859375,-0.931640625,0.47802734375,0.17557251908396945,4.106870229007634,-1.8091603053435115
2.76,0.095947265625,-0.92822265625,0.47314453125,-0.20610687022900764,4.00763358778626,-0.007633587786259542
2.77,0.098876953125,-0.92724609375,0.47314453125,0.07633587786259542,3.7022900763358777,-2.030534351145038
2.78,0.090576171875,-0.9326171875,0.470947265625,0.5190839694656488,3.1297709923664123,-2.404580152671756
2.79,0.088134765625,-0.922119140625,0.482177734375,0.6793893129770993,2.7099236641221376,-2.4580152671755724
2.8,0.078369140625,-0.928955078125,0.46435546875,0.6412213740458015,2.122137404580153,-2.946564885496183
2.81,0.07470703125,-0.92041015625,0.48046875,0.8549618320610687,1.2366412213740459,-3.053435114503817
2.82,0.0693359375,-0.91845703125,0.479736328125,-0.05343511450381679,0.8473282442748091,-3.114503816793893
2.83,0.081298828125,-0.920654296875,0.472412109375,-0.4961832061068702,0.015267175572519083,-3.1603053435114505
2.84,0.08740234375,-0.9189453125,0.472412109375,-0.5572519083969466,1.8625954198473282,-3.0
2.85,0.083984375,-0.92724609375,0.47314453125,-0.8244274809160306,-0.17557251908396945,-3.2900763358778624
2.86,0.09716796875,-0.911865234375,0.474365234375,-0.6641221374045801,-0.17557251908396945,-3.480916030534351
2.87,0.09423828125,-0.929443359375,0.47119140625,-1.099236641221374,-0.33587786259541985,-3.877862595419847
2.88,0.09912109375,-0.92333984375,0.470703125,-0.9923664122137404,-0.5190839694656488,-4.206106870229007
2.89,0.101318359375,-0.92578125,0.499267578125,-1.1984732824427482,-0.8625954198473282,-4.213740458015267
2.9,0.103759765625,-0.930419921875,0.486328125,-1.083969465648855,-0.7633587786259542,-4.541984732824427
2.91,0.10205078125,-0.927734375,0.494873046875,-0.9389312977099237,-0.7938931297709924,-4.641221374045801
2.92,0.110595703125,-0.93115234375,0.4951171875,-0.9847328244274809,-0.7022900763358778,-4.770992366412214
2.93,0.09423828125,-0.92529296875,0.491455078125,-0.4961832061068702,-0.15267175572519084,-4.702290076335878
2.94,0.12255859375,-0.937255859375,0.492431640625,0.03816793893129771,-0.20610687022900764,-4.870229007633588
2.95,0.1201171875,-0.933349609375,0.49560546875,0.4122137404580153,-0.16030534351145037,-4.900763358778626
2.96,0.117919921875,-0.912109375,0.488525390625,0.0916030534351145,0.40458015267175573,-4.893129770992366
2.97,0.11279296875,-0.912841796875,0.4931640625,-0.15267175572519084,0.9465648854961832,-4.625954198473282
2.98,0.108154296875,-0.921630859375,0.480712890625,-0.4580152671755725,1.7099236641221374,-4.526717557251908
2.99,0.107421875,-0.916748046875,0.49267578125,-1.099236641221374,2.0076335877862594,-4.541984732824427
3.0,0.12158203125,-0.918212890625,0.4892578125,-0.5343511450381679,2.2900763358778624,-4.450381679389313
3.01,0.1103515625,-0.918212890625,0.49951171875,-0.40458015267175573,3.053435114503817,-4.67175572519084
3.02,0.14013671875,-0.919921875,0.4912109375,-0.21374045801526717,3.1068702290076335,-4.625954198473282
3.03,0.122314453125,-0.906982421875,0.486572265625,-0.16793893129770993,3.50381679389313,-4.625954198473282
3.04,0.129150390625,-0.919921875,0.471435546875,-0.3053435114503817,4.229007633587786,-4.564885496183206
3.05,0.114990234375,-0.92822265625,0.475341796875,0.0916030534351145,4.061068702290076,-4.541984732824427
3.06,0.115966796875,-0.92724609375,0.48583984375,0.6335877862595419,4.366412213740458,-4.793893129770993
3.07,0.101806640625,-0.92529296875,0.490966796875,0.7633587786259542,3.717557251908397,-5.099236641221374
3.08,0.09619140625,-0.92333984375,0.493408203125,0.6106870229007634,3.564885496183206,-4.885496183206107
3.09,0.090087890625,-0.92041015625,0.488037109375,0.4351145038167939,2.7557251908396947,-4.984732824427481
3.1,0.090576171875,-0.916259765625,0.4970703125,0.25190839694656486,2.0076335877862594,-4.99236641221374
3.11,0.097900390625,-0.91015625,0.486572265625,0.44274809160305345,1.702290076335878,-4.4961832061068705
3.12,0.099609375,-0.90673828125,0.482421875,0.3282442748091603,0.9541984732824428,-4.206106870229007
3.13,0.099609375,-0.907470703125,0.496337890625,-0.061068702290076333,0.9694656488549618,-4.038167938931298
3.14,0.10400390625,-0.905517578125,0.484619140625,-0.015267175572519083,1.2366412213740459,-3.6717557251908395
3.15,0.098876953125,-0.9091796875,0.487060546875,-0.3053435114503817,1.6717557251908397,-3.7251908396946565
3.16,0.1171875,-0.903076171875,0.497314453125,-0.9541984732824428,1.7557251908396947,-3.435114503816794
3.17,0.14013671875,-0.909912109375,0.49658203125,-1.1297709923664123,1.7786259541984732,-3.763358778625954
3.18,0.12548828125,-0.913330078125,0.502197265625,-1.1068702290076335,0.030534351145038167,-3.6717557251908395
3.19,0.11181640625,-0.91455078125,0.50732421875,-1.2671755725190839,0.9694656488549618,-3.816793893129771
3.2,0.111572265625,-0.91015625,0.5078125,-1.8473282442748091,0.6564885496183206,-3.7480916030534353
3.21,0.1142578125,-0.918212890625,0.5,-1.7557251908396947,0.4198473282442748,-3.763358778625954
3.22,0.116943359375,-0.916259765625,0.49560546875,-1.534351145038168,1.7251908396946565,-3.6106870229007635
3.23,0.127685546875,-0.918701171875,0.50390625,-0.7786259541984732,-0.007633587786259542,-3.8473282442748094
3.24,0.125,-0.915771484375,0.504638671875,-1.900763358778626,-0.2748091603053435,-3.3587786259541983
3.25,0.130859375,-0.91455078125,0.49462890625,-1.8473282442748091,-0.7862595419847328,-3.267175572519084
3.26,0.12939453125,-0.91650390625,0.4833984375,-1.083969465648855,0.10687022900763359,-2.763358778625954
3.27,0.134521484375,-0.91064453125,0.4794921875,-0.9083969465648855,1.0458015267175573,-2.282442748091603
3.28,0.140380859375,-0.90576171875,0.482421875,-1.5038167938931297,1.9389312977099236,-2.0
3.29,0.133056640625,-0.9111328125,0.48876953125,-1.8396946564885497,1.7328244274809161,-2.114503816793893
3.3,0.151611328125,-0.908447265625,0.486572265625,-1.6641221374045803,2.1908396946564888,-2.3282442748091605
3.31,0.125244140625,-0.919921875,0.501220703125,-1.7557251908396947,3.2595419847328246,-2.3969465648854964
3.32,0.128173828125,-0.910888671875,0.498046875,-2.450381679389313,2.816793893129771,-2.549618320610687
3.33,0.130859375,-0.912353515625,0.500244140625,-3.114503816793893,2.2519083969465647,-2.8625954198473282
3.34,0.12353515625,-0.919189453125,0.4892578125,-3.435114503816794,1.9083969465648856,-2.480916030534351
3.35,0.127197265625,-0.91259765625,0.488037109375,-2.969465648854962,1.8396946564885497,-2.2595419847328246
3.36,0.126708984375,-0.907470703125,0.487060546875,-2.66412213740458,2.030534351145038,-2.114503816793893
3.37,0.11328125,-0.90966796875,0.492431640625,-2.5801526717557253,3.8702290076335877,-1.9694656488549618
3.38,0.114501953125,-0.89990234375,0.49169921875,-2.236641221374046,1.4122137404580153,-1.8625954198473282
3.39,0.112548828125,-0.891845703125,0.511474609375,-2.6793893129770994,1.1221374045801527,-0.030534351145038167
3.4,0.1142578125,-0.921875,0.483642578125,-3.198473282442748,0.44274809160305345,-3.9083969465648853
3.41,0.107177734375,-0.9228515625,0.4619140625,-3.16793893129771,0.37404580152671757,-2.114503816793893
3.42,0.115478515625,-0.9228515625,0.45654296875,-2.5114503816793894,0.13740458015267176,-2.068702290076336
3.43,0.123046875,-0.91015625,0.474365234375,-2.351145038167939,0.7404580152671756,-0.030534351145038167
3.44,0.104248046875,-0.91796875,0.484130859375,-2.5343511450381677,0.4122137404580153,-1.8931297709923665
3.45,0.1015625,-0.91015625,0.484130859375,-2.6946564885496183,-0.9007633587786259,-2.0076335877862594
3.46,0.09912109375,-0.892822265625,0.470458984375,-2.954198473282443,-1.702290076335878,-2.381679389312977
3.47,0.10498046875,-0.91162109375,0.4755859375,-3.1603053435114505,-2.595419847328244,-2.2900763358778624
3.48,0.098876953125,-0.91455078125,0.479248046875,-3.5877862595419847,-3.450381679389313,-2.4732824427480917
3.49,0.093505859375,-0.919189453125,0.454833984375,-4.114503816793893,-3.8473282442748094,-2.5343511450381677
3.5,0.099609375,-0.92626953125,0.464111328125,-4.259541984732825,-4.198473282442748,-2.5572519083969465
3.51,0.096923828125,-0.931884765625,0.46533203125,-4.175572519083969,-4.213740458015267,-3.1068702290076335
3.52,0.11376953125,-0.93310546875,0.456298828125,-5.145038167938932,-3.9923664122137406,-3.648854961832061
3.53,0.109619140625,-0.927734375,0.46826171875,-5.412213740458015,-5.770992366412214,-4.557251908396947
3.54,0.135009765625,-0.919921875,0.48291015625,-6.106870229007634,-3.687022900763359,-4.969465648854962
3.55,0.145751953125,-0.922607421875,0.499267578125,-6.229007633587786,-3.5419847328244276,-5.343511450381679
3.56,0.15771484375,-0.919189453125,0.47509765625,-6.396946564885496,-3.4122137404580153,-5.763358778625954
3.57,0.15283203125,-0.911376953125,0.487060546875,-6.190839694656488,-3.0763358778625953,-6.099236641221374
3.58,0.155029296875,-0.908447265625,0.47314453125,-7.267175572519084,-2.50381679389313,-6.175572519083969
3.59,0.1552734375,-0.912841796875,0.467041015625,-7.679389312977099,-1.7938931297709924,-6.480916030534351
3.6,0.14990234375,-0.912841796875,0.45703125,-6.4961832061068705,-1.2595419847328244,-6.854961832061068
3.61,0.14306640625,-0.912353515625,0.4658203125,-6.0534351145038165,-1.366412213740458,-7.213740458015267
3.62,0.13330078125,-0.917724609375,0.46240234375,-6.595419847328245,-1.4885496183206106,-7.374045801526718
3.63,0.12744140625,-0.922607421875,0.466796875,-7.038167938931298,-2.183206106870229,-7.122137404580153
3.64,0.135498046875,-0.9228515625,0.466064453125,-6.9465648854961835,-2.3206106870229006,-6.99236641221374
3.65,0.13427734375,-0.92529296875,0.465087890625,-6.404580152671755,-2.450381679389313,-6.740458015267175
3.66,0.14013671875,-0.913818359375,0.471923828125,-6.213740458015267,-3.83206106870229,-6.702290076335878
3.67,0.136474609375,-0.911376953125,0.4736328125,-6.099236641221374,-4.259541984732825,-6.648854961832061
3.68,0.135009765625,-0.916748046875,0.463134765625,-6.221374045801527,-4.00763358778626,-6.267175572519084
3.69,0.13330078125,-0.92041015625,0.46142578125,-6.015267175572519,-3.8396946564885495,-6.068702290076335
3.7,0.131591796875,-0.924072265625,0.449462890625,-5.511450381679389,-5.396946564885496,-5.564885496183206
3.71,0.135498046875,-0.92431640625,0.446533203125,-4.32824427480916,-3.2748091603053435,-4.916030534351145
3.72,0.12744140625,-0.929443359375,0.451171875,-4.694656488549619,-4.473282442748092,-3.946564885496183
3.73,0.134033203125,-0.933837890625,0.449462890625,-5.396946564885496,-4.633587786259542,-3.1603053435114505
3.74,0.139892578125,-0.9384765625,0.452880859375,-4.900763358778626,-3.9770992366412212,-2.427480916030534
3.75,0.130615234375,-0.9404296875,0.459716796875,-4.3893129770992365,-4.740458015267175,-2.015267175572519
3.76,0.12841796875,-0.9365234375,0.45751953125,-3.8473282442748094,-4.885496183206107,-1.7938931297709924
3.77,0.136962890625,-0.93603515625,0.45947265625,-4.0,-5.030534351145038,-0.7862595419847328
3.78,0.145751953125,-0.943115234375,0.480224609375,-4.5038167938931295,-4.893129770992366,0.0916030534351145
3.79,0.151611328125,-0.951416015625,0.464599609375,-4.419847328244275,-4.038167938931298,1.366412213740458
3.8,0.164306640625,-0.941162109375,0.465576171875,-4.412213740458015,-2.4427480916030535,2.6030534351145036
3.81,0.18701171875,-0.94189453125,0.457763671875,-4.419847328244275,-0.8549618320610687,3.49618320610687
3.82,0.17578125,-0.927001953125,0.4521484375,-4.526717557251908,-0.366412213740458,3.877862595419847
3.83,0.197265625,-0.913330078125,0.43798828125,-4.938931297709924,0.7709923664122137,3.2519083969465647
3.84,0.193359375,-0.8974609375,0.43603515625,-4.900763358778626,1.2671755725190839,2.595419847328244
3.85,0.184326171875,-0.88037109375,0.4189453125,-5.152671755725191,1.9541984732824427,1.7557251908396947
3.86,0.17431640625,-0.884765625,0.419921875,-5.66412213740458,1.8702290076335877,1.3129770992366412
3.87,0.1669921875,-0.8740234375,0.4189453125,-6.938931297709924,2.2290076335877864,1.0381679389312977
3.88,0.163330078125,-0.885986328125,0.423828125,-7.931297709923665,2.6030534351145036,1.0305343511450382
3.89,0.165283203125,-0.90625,0.429931640625,-8.564885496183207,2.66412213740458,0.6564885496183206
3.9,0.18701171875,-0.924072265625,0.4521484375,-8.32824427480916,1.6946564885496183,0.9007633587786259
3.91,0.173583984375,-0.945068359375,0.4453125,-7.893129770992366,1.083969465648855,1.0687022900763359
3.92,0.162109375,-0.953857421875,0.45556640625,-9.740458015267176,-0.015267175572519083,1.1603053435114503
3.93,0.15576171875,-0.970703125,0.465087890625,-7.854961832061068,-1.4809160305343512,1.5725190839694656
3.94,0.146728515625,-0.965576171875,0.466064453125,-7.961832061068702,-2.3969465648854964,2.572519083969466
3.95,0.141845703125,-0.962890625,0.465087890625,-8.221374045801527,-4.374045801526718,3.3587786259541983
3.96,0.147216796875,-0.94091796875,0.426025390625,-7.374045801526718,-6.3816793893129775,4.106870229007634
3.97,0.163330078125,-0.950927734375,0.4150390625,-6.5038167938931295,-7.67175572519084,4.740458015267175
3.98,0.173095703125,-0.934814453125,0.40380859375,-5.8396946564885495,-8.961832061068701,5.3816793893129775
3.99,0.21875,-0.930419921875,0.38623046875,-5.580152671755725,-8.50381679389313,6.183206106870229
4.0,0.249267578125,-0.944091796875,0.379150390625,-5.343511450381679,-6.00763358778626,7.129770992366412
4.01,0.290283203125,-0.9375,0.38818359375,-5.3816793893129775,-4.00763358778626,8.17557251908397
4.02,0.317626953125,-0.956298828125,0.391845703125,-5.580152671755725,-0.7938931297709924,8.793893129770993
4.03,0.32958984375,-0.98291015625,0.40185546875,-5.083969465648855,1.7938931297709924,8.305343511450381
4.04,0.343505859375,-1.01220703125,0.41259765625,-4.572519083969466,2.687022900763359,6.549618320610687
4.05,0.326171875,-1.002197265625,0.4267578125,-4.267175572519084,2.068702290076336,3.66412213740458
4.06,0.31494140625,-1.02392578125,0.448974609375,-2.1603053435114505,4.641221374045801,1.1297709923664123
4.07,0.290283203125,-1.0283203125,0.463623046875,-0.8549618320610687,3.9770992366412212,-0.5114503816793893
4.08,0.284423828125,-1.022705078125,0.483642578125,0.13740458015267176,5.702290076335878,-0.7633587786259542
4.09,0.281982421875,-1.025390625,0.4697265625,1.3740458015267176,6.022900763358779,-0.05343511450381679
4.1,0.26611328125,-1.013671875,0.457275390625,3.49618320610687,6.885496183206107,1.0687022900763359
4.11,0.27685546875,-0.997314453125,0.435302734375,6.3816793893129775,8.633587786259541,2.2595419847328246
4.12,0.25439453125,-0.970458984375,0.448486328125,9.244274809160306,10.183206106870228,3.564885496183206
4.13,0.241943359375,-0.943603515625,0.44140625,10.259541984732824,11.717557251908397,4.938931297709924
4.14,0.240234375,-0.925537109375,0.455078125,10.84732824427481,11.793893129770993,6.244274809160306
4.15,0.255615234375,-0.89599609375,0.47216796875,10.572519083969466,15.83969465648855,7.290076335877862
4.16,0.27099609375,-0.868408203125,0.48095703125,9.770992366412214,19.083969465648856,8.17557251908397
4.17,0.273193359375,-0.82861328125,0.466796875,8.641221374045802,22.129770992366414,9.259541984732824
4.18,0.295166015625,-0.790771484375,0.457763671875,6.824427480916031,24.595419847328245,10.366412213740459
4.19,0.285888671875,-0.7509765625,0.431396484375,5.137404580152672,27.045801526717558,11.603053435114504
4.2,0.296142578125,-0.740478515625,0.39892578125,2.7404580152671754,27.702290076335878,12.045801526717558
4.21,0.315185546875,-0.73046875,0.38037109375,1.9770992366412214,26.977099236641223,12.106870229007633
4.22,0.34423828125,-0.764892578125,0.328369140625,1.2748091603053435,28.717557251908396,13.954198473282442
4.23,0.30859375,-0.7724609375,0.28759765625,1.16793893129771,35.05343511450382,18.0
4.24,0.241455078125,-0.77587890625,0.263916015625,1.5190839694656488,33.778625954198475,21.83969465648855
4.25,0.23193359375,-0.791748046875,0.251953125,2.6106870229007635,33.38167938931298,25.33587786259542
4.26,0.222900390625,-0.782470703125,0.251220703125,5.709923664122138,42.23664122137404,27.793893129770993
4.27,0.26806640625,-0.800048828125,0.317626953125,5.755725190839694,46.79389312977099,26.954198473282442
4.28,0.263916015625,-0.9228515625,0.462890625,4.0,41.89312977099237,22.770992366412212
4.29,0.15576171875,-1.17919921875,0.6474609375,4.137404580152672,45.80152671755725,16.47328244274809
4.3,-0.109619140625,-1.469970703125,0.814453125,4.900763358778626,40.38167938931298,7.236641221374046
4.31,-0.37060546875,-1.571044921875,0.8876953125,1.8931297709923665,30.954198473282442,-0.7175572519083969
4.32,-0.472900390625,-1.406005859375,0.732177734375,0.48854961832061067,13.541984732824428,-0.8931297709923665
4.33,-0.355712890625,-1.081298828125,0.50927734375,5.648854961832061,1.8396946564885497,3.595419847328244
4.34,-0.1357421875,-0.959716796875,0.317138671875,8.885496183206106,-7.603053435114504,4.862595419847328
4.35,0.028564453125,-0.894287109375,0.2158203125,12.755725190839694,-12.229007633587786,5.595419847328245
4.36,0.087890625,-0.864990234375,0.23779296875,14.694656488549619,-12.274809160305344,6.0534351145038165
4.37,0.091552734375,-0.8447265625,0.35986328125,9.86259541984733,-12.091603053435115,7.793893129770993
4.38,0.091064453125,-0.838623046875,0.412841796875,3.633587786259542,-11.854961832061068,4.541984732824427
4.39,0.07421875,-0.826416015625,0.425048828125,2.8625954198473282,-10.297709923664122,3.1908396946564888
4.4,0.06201171875,-0.8388671875,0.40771484375,5.442748091603053,-9.099236641221374,2.2061068702290076
4.41,0.02880859375,-0.8623046875,0.399658203125,4.625954198473282,-8.076335877862595,1.0610687022900764
4.42,0.002197265625,-0.906494140625,0.431884765625,2.33587786259542,-8.259541984732824,-0.17557251908396945
4.43,0.02099609375,-0.9345703125,0.47607421875,1.5801526717557253,-7.916030534351145,-0.549618320610687
4.44,0.01123046875,-0.9169921875,0.52490234375,1.2671755725190839,-8.076335877862595,0.007633587786259542
4.45,0.00537109375,-0.889892578125,0.552734375,-0.37404580152671757,-9.229007633587786,0.2900763358778626
4.46,0.01025390625,-0.86767578125,0.54736328125,-2.5801526717557253,-10.068702290076336,0.08396946564885496
4.47,0.013916015625,-0.858154296875,0.513916015625,-4.213740458015267,-10.442748091603054,-0.9847328244274809
4.48,0.000732421875,-0.857421875,0.489013671875,-5.320610687022901,-10.274809160305344,-2.0763358778625953
4.49,0.0205078125,-0.8466796875,0.488037109375,-6.312977099236641,-10.381679389312977,-3.015267175572519
4.5,0.01953125,-0.841552734375,0.48193359375,-8.267175572519085,-10.977099236641221,-3.2977099236641223
4.51,0.02880859375,-0.842041015625,0.48193359375,-10.076335877862595,-11.412213740458014,-3.236641221374046
4.52,0.024658203125,-0.86376953125,0.46826171875,-12.114503816793894,-11.83206106870229,-2.114503816793893
4.53,0.007080078125,-0.891357421875,0.447509765625,-15.16030534351145,-11.13740458015267,-0.19083969465648856
4.54,-0.00927734375,-0.91357421875,0.447021484375,-18.0381679389313,-10.65648854961832,2.366412213740458
4.55,-0.01318359375,-0.90771484375,0.46240234375,-19.519083969465647,-8.389312977099237,4.8396946564885495
4.56,-0.029541015625,-0.906982421875,0.468994140625,-19.198473282442748,-6.9465648854961835,6.931297709923665
4.57,-0.024169921875,-0.882080078125,0.47509765625,-18.450381679389313,-6.3893129770992365,7.770992366412214
4.58,-0.01513671875,-0.886962890625,0.47998046875,-18.72519083969466,-6.099236641221374,7.755725190839694
4.59,-0.0009765625,-0.900146484375,0.458984375,-17.977099236641223,-5.206106870229007,6.931297709923665
4.6,0.01708984375,-0.93310546875,0.4658203125,-16.68702290076336,-3.435114503816794,4.9465648854961835
4.61,0.03759765625,-0.953369140625,0.477294921875,-15.709923664122137,-3.015267175572519,2.2061068702290076
4.62,0.048095703125,-0.978271484375,0.477783203125,-14.442748091603054,-1.8931297709923665,-0.7251908396946565
4.63,0.04833984375,-0.9697265625,0.478759765625,-13.396946564885496,-0.4961832061068702,-3.5801526717557253
4.64,0.049072265625,-0.9775390625,0.45947265625,-12.511450381679388,0.22137404580152673,-6.145038167938932
4.65,0.02392578125,-0.969970703125,0.446044921875,-11.98473282442748,1.1450381679389312,-6.66412213740458
4.66,0.00244140625,-0.963134765625,0.442626953125,-10.687022900763358,1.0687022900763359,-6.557251908396947
4.67,-0.01904296875,-0.9736328125,0.448974609375,-10.198473282442748,1.0458015267175573,-5.198473282442748
4.68,-0.0400390625,-0.9609375,0.4482421875,-11.664122137404581,0.7404580152671756,-3.2748091603053435
4.69,-0.055908203125,-0.95263671875,0.45947265625,-8.900763358778626,-0.061068702290076333,-0.8549618320610687
4.7,-0.060791015625,-0.950439453125,0.454345703125,-7.740458015267175,-0.8625954198473282,1.2366412213740459
4.71,-0.0185546875,-0.951416015625,0.447265625,-7.106870229007634,-1.5114503816793894,3.0763358778625953
4.72,-0.019775390625,-0.93017578125,0.429931640625,-7.450381679389313,-2.3435114503816794,4.015267175572519
4.73,-0.022216796875,-0.935791015625,0.403076171875,-7.7251908396946565,-2.8244274809160306,4.404580152671755
4.74,-0.020263671875,-0.927001953125,0.385498046875,-7.404580152671755,-3.3053435114503817,3.312977099236641
4.75,-0.021240234375,-0.933349609375,0.377685546875,-6.221374045801527,-4.3816793893129775,1.3740458015267176
4.76,-0.03955078125,-0.9423828125,0.385986328125,-5.083969465648855,-5.106870229007634,-1.4351145038167938
4.77,-0.069580078125,-0.97412109375,0.4033203125,-3.763358778625954,-6.793893129770993,-3.8473282442748094
4.78,-0.076171875,-0.998046875,0.419677734375,-2.4198473282442747,-7.534351145038168,-5.022900763358779
4.79,-0.07861328125,-1.02734375,0.44091796875,-0.549618320610687,-7.763358778625954,-4.732824427480916
4.8,-0.067138671875,-1.030029296875,0.453125,0.8549618320610687,-7.030534351145038,-3.16793893129771
4.81,-0.04345703125,-1.029541015625,0.4599609375,2.1374045801526718,-6.4961832061068705,-1.9694656488549618
4.82,-0.00439453125,-0.99609375,0.453369140625,3.7557251908396947,-4.564885496183206,-1.0534351145038168
4.83,0.005615234375,-0.955810546875,0.468994140625,4.572519083969466,-1.083969465648855,-0.7022900763358778
4.84,-0.01220703125,-0.907958984375,0.451171875,3.5267175572519083,-2.6564885496183206,-0.5419847328244275
4.85,0.0087890625,-0.900634765625,0.4130859375,4.267175572519084,-0.9618320610687023,-0.9389312977099237
4.86,-0.002197265625,-0.896728515625,0.396240234375,4.473282442748092,-0.2824427480916031,-1.6030534351145038
4.87,-0.00732421875,-0.8994140625,0.4072265625,4.251908396946565,-0.6717557251908397,-2.4427480916030535
4.88,-0.003662109375,-0.90185546875,0.397705078125,4.312977099236641,-0.5114503816793893,-3.427480916030534
4.89,0.00439453125,-0.928955078125,0.397216796875,4.687022900763359,-0.7633587786259542,-5.190839694656488
4.9,0.01513671875,-0.941650390625,0.39599609375,5.9465648854961835,-0.3893129770992366,-6.900763358778626
4.91,-0.017578125,-0.9326171875,0.39404296875,5.961832061068702,-2.6259541984732824,-7.916030534351145
4.92,-0.04443359375,-0.931884765625,0.375,5.015267175572519,-4.809160305343512,-9.01526717557252
4.93,-0.053955078125,-0.9423828125,0.41259765625,7.67175572519084,-5.488549618320611,-9.183206106870228
4.94,-0.0791015625,-0.95703125,0.4560546875,9.709923664122137,-7.763358778625954,-9.534351145038167
4.95,-0.099609375,-0.95068359375,0.4697265625,7.1679389312977095,-12.091603053435115,-9.595419847328245
4.96,-0.095703125,-0.947998046875,0.455078125,3.0381679389312977,-14.954198473282442,-8.977099236641221
4.97,-0.067138671875,-0.95166015625,0.448974609375,3.0763358778625953,-16.977099236641223,-8.0
4.98,-0.06103515625,-0.92822265625,0.45166015625,4.557251908396947,-18.0,-6.763358778625954
4.99,-0.036376953125,-0.91943359375,0.454345703125,4.3816793893129775,-18.244274809160306,-6.251908396946565
5.0,-0.0341796875,-0.9326171875,0.4619140625,3.633587786259542,-19.870229007633586,-6.740458015267175
5.01,-0.060302734375,-0.9560546875,0.465087890625,3.8396946564885495,-21.15267175572519,-7.465648854961832
5.02,-0.055419921875,-0.947998046875,0.448486328125,2.786259541984733,-22.68702290076336,-8.244274809160306
5.03,-0.037109375,-0.948974609375,0.442626953125,1.5725190839694656,-25.31297709923664,-10.0
5.04,-0.015869140625,-0.934326171875,0.423583984375,2.122137404580153,-25.671755725190838,-12.80916030534351
5.05,0.00732421875,-0.903076171875,0.400634765625,3.2442748091603053,-25.84732824427481,-15.923664122137405
5.06,0.037353515625,-0.886962890625,0.39453125,4.00763358778626,-26.47328244274809,-18.564885496183205
5.07,0.033203125,-0.881103515625,0.3955078125,12.076335877862595,-27.3206106870229,-20.61832061068702
5.08,-0.0029296875,-0.861083984375,0.370361328125,14.687022900763358,-28.099236641221374,-22.083969465648856
5.09,-0.07958984375,-0.810791015625,0.3427734375,10.931297709923664,-34.11450381679389,-23.46564885496183
5.1,-0.146728515625,-0.79541015625,0.298583984375,6.656488549618321,-41.93893129770992,-23.61832061068702
5.11,-0.175537109375,-0.804443359375,0.291259765625,5.297709923664122,-45.33587786259542,-22.015267175572518
5.12,-0.1767578125,-0.86669921875,0.341064453125,6.717557251908397,-47.50381679389313,-19.389312977099237
5.13,-0.139892578125,-0.94970703125,0.4169921875,7.366412213740458,-52.49618320610687,-15.297709923664122
5.14,-0.00634765625,-1.0205078125,0.46533203125,4.137404580152672,-54.54961832061068,-11.664122137404581
5.15,0.075927734375,-1.06201171875,0.471923828125,1.4198473282442747,-55.458015267175576,-5.557251908396947
5.16,0.1494140625,-1.03759765625,0.47509765625,4.236641221374046,-54.86259541984733,2.213740458015267
5.17,0.263671875,-1.045654296875,0.47705078125,8.320610687022901,-46.48091603053435,7.320610687022901
5.18,0.406005859375,-1.120361328125,0.50537109375,3.984732824427481,-34.3206106870229,9.267175572519085
5.19,0.510009765625,-1.203125,0.5322265625,-5.824427480916031,-28.19083969465649,9.366412213740459
5.2,0.559814453125,-1.24951171875,0.52880859375,-3.0381679389312977,-22.061068702290076,8.900763358778626
5.21,0.555419921875,-1.219482421875,0.535400390625,5.961832061068702,-9.145038167938932,7.3893129770992365
5.22,0.4970703125,-1.165771484375,0.534912109375,10.488549618320612,3.5572519083969465,4.175572519083969
5.23,0.369384765625,-1.0654296875,0.491943359375,7.748091603053435,5.816793893129771,-0.4580152671755725
5.24,0.300537109375,-1.021484375,0.4296875,6.236641221374046,2.763358778625954,-4.702290076335878
5.25,0.25537109375,-0.9248046875,0.330810546875,5.755725190839694,-1.6412213740458015,-9.374045801526718
5.26,0.189697265625,-0.9462890625,0.341064453125,17.557251908396946,3.66412213740458,-9.625954198473282
5.27,0.138916015625,-0.89794921875,0.35791015625,21.6793893129771,-2.6259541984732824,-10.49618320610687
5.28,0.1640625,-0.84326171875,0.386474609375,15.916030534351146,-1.3587786259541985,-9.618320610687023
5.29,0.138916015625,-0.856689453125,0.397705078125,10.221374045801527,-6.374045801526718,-8.068702290076336
5.3,0.169677734375,-0.860595703125,0.40380859375,11.893129770992367,-7.786259541984733,-5.908396946564886
5.31,0.201416015625,-0.846923828125,0.413330078125,12.725190839694656,-1.2671755725190839,-3.3435114503816794
5.32,0.2158203125,-0.817138671875,0.448974609375,9.435114503816793,0.45038167938931295,-2.2061068702290076
5.33,0.2421875,-0.79443359375,0.452880859375,5.076335877862595,4.343511450381679,-1.282442748091603
5.34,0.228515625,-0.802978515625,0.448974609375,3.213740458015267,5.480916030534351,-1.0763358778625953
5.35,0.23095703125,-0.825439453125,0.454833984375,3.1068702290076335,7.6106870229007635,-1.1526717557251909
5.36,0.218994140625,-0.840576171875,0.4453125,2.183206106870229,14.969465648854962,-0.37404580152671757
5.37,0.19921875,-0.8681640625,0.455078125,2.885496183206107,19.366412213740457,1.083969465648855
5.38,0.1904296875,-0.878173828125,0.487060546875,0.5954198473282443,16.541984732824428,2.053435114503817
5.39,0.185791015625,-0.890869140625,0.49267578125,-4.0458015267175576,14.618320610687023,3.0381679389312977
5.4,0.211181640625,-0.918701171875,0.474853515625,-5.152671755725191,25.72519083969466,4.595419847328245
5.41,0.231201171875,-0.9423828125,0.462646484375,-2.427480916030534,35.97709923664122,4.748091603053435
5.42,0.17138671875,-0.944091796875,0.5048828125,-4.267175572519084,24.358778625954198,3.3435114503816794
5.43,0.164306640625,-0.90966796875,0.5009765625,-7.8396946564885495,16.9618320610687,1.2061068702290076
5.44,0.217041015625,-0.927978515625,0.49169921875,-12.801526717557252,22.53435114503817,-0.32061068702290074
5.45,0.149169921875,-0.928955078125,0.505126953125,-11.412213740458014,22.610687022900763,-1.916030534351145
5.46,0.10986328125,-0.915771484375,0.521484375,-12.206106870229007,18.30534351145038,-4.145038167938932
5.47,0.090087890625,-0.91015625,0.510009765625,-12.86259541984733,16.396946564885496,-5.816793893129771
5.48,0.07470703125,-0.90478515625,0.500732421875,-11.564885496183207,14.541984732824428,-7.6106870229007635
5.49,0.0625,-0.898681640625,0.496826171875,-10.98473282442748,11.916030534351146,-8.572519083969466
5.5,0.050537109375,-0.90380859375,0.499755859375,-10.84732824427481,9.374045801526718,-8.473282442748092
5.51,0.046142578125,-0.90185546875,0.499755859375,-10.312977099236642,7.0458015267175576,-7.67175572519084
5.52,0.03955078125,-0.865478515625,0.51513671875,-10.442748091603054,3.427480916030534,-6.473282442748092
5.53,0.055908203125,-0.852294921875,0.49169921875,-9.618320610687023,0.5343511450381679,-5.259541984732825
5.54,0.0654296875,-0.845703125,0.483154296875,-8.793893129770993,-1.1755725190839694,-3.717557251908397
5.55,0.085205078125,-0.851318359375,0.48388671875,-8.633587786259541,1.3969465648854962,-2.6030534351145036
5.56,0.0927734375,-0.850830078125,0.469970703125,-8.045801526717558,-4.809160305343512,-2.267175572519084
5.57,0.1064453125,-0.86572265625,0.46826171875,-9.389312977099237,-5.267175572519084,-1.4961832061068703
5.58,0.116455078125,-0.843994140625,0.474365234375,-9.725190839694656,-5.076335877862595,-0.7633587786259542
5.59,0.12890625,-0.869140625,0.48095703125,-9.725190839694656,-5.1679389312977095,-0.33587786259541985
5.6,0.13427734375,-0.87744140625,0.48974609375,-9.13740458015267,-4.702290076335878,-0.05343511450381679
5.61,0.137451171875,-0.88232421875,0.494384765625,-7.908396946564886,-4.786259541984733,1.1374045801526718
5.62,0.148681640625,-0.890380859375,0.48046875,-7.473282442748092,-5.916030534351145,2.618320610687023
5.63,0.153564453125,-0.894775390625,0.47705078125,-6.305343511450381,-9.511450381679388,4.923664122137405
5.64,0.163818359375,-0.89990234375,0.504638671875,-4.793893129770993,-10.618320610687023,6.061068702290076
5.65,0.1884765625,-0.91748046875,0.5400390625,-5.526717557251908,-1.2671755725190839,11.465648854961833
5.66,0.16015625,-0.9462890625,0.5322265625,-1.5190839694656488,-8.32824427480916,13.221374045801527
5.67,0.2509765625,-0.96240234375,0.533447265625,1.534351145038168,-7.526717557251908,13.740458015267176
5.68,0.324951171875,-0.992431640625,0.5390625,4.480916030534351,-3.7709923664122136,13.82442748091603
5.69,0.3623046875,-1.013916015625,0.565185546875,6.038167938931298,-2.198473282442748,11.374045801526718
5.7,0.37841796875,-1.0546875,0.58984375,6.297709923664122,-0.7099236641221374,7.282442748091603
5.71,0.329345703125,-1.095703125,0.615966796875,6.351145038167939,1.1755725190839694,2.984732824427481
5.72,0.30908203125,-1.075439453125,0.611328125,5.587786259541985,1.4809160305343512,-0.549618320610687
5.73,0.266357421875,-1.000244140625,0.577392578125,5.129770992366412,1.7404580152671756,-2.312977099236641
5.74,0.2822265625,-0.90576171875,0.509521484375,4.1679389312977095,3.2977099236641223,-3.183206106870229
5.75,0.2822265625,-0.810791015625,0.49951171875,3.4427480916030535,4.297709923664122,-3.3206106870229006
5.76,0.28076171875,-0.786376953125,0.470458984375,2.6106870229007635,4.526717557251908,-2.7022900763358777
5.77,0.278076171875,-0.79296875,0.456298828125,4.603053435114504,6.66412213740458,-0.9847328244274809
5.78,0.283203125,-0.81103515625,0.442626953125,9.49618320610687,8.526717557251908,1.083969465648855
5.79,0.281982421875,-0.814208984375,0.4091796875,12.50381679389313,10.992366412213741,4.038167938931298
5.8,0.339111328125,-0.832763671875,0.374755859375,12.870229007633588,14.244274809160306,7.366412213740458
5.81,0.343994140625,-0.83544921875,0.3447265625,11.473282442748092,16.916030534351144,10.396946564885496
5.82,0.341064453125,-0.826171875,0.344970703125,9.145038167938932,19.908396946564885,12.954198473282442
5.83,0.3408203125,-0.802490234375,0.36328125,7.2748091603053435,24.083969465648856,14.98473282442748
5.84,0.342529296875,-0.77880859375,0.359375,4.145038167938932,27.297709923664122,15.816793893129772
5.85,0.352783203125,-0.771240234375,0.35888671875,1.0458015267175573,30.763358778625953,16.213740458015266
5.86,0.37158203125,-0.750732421875,0.352783203125,-1.8091603053435115,36.0763358778626,16.6793893129771
5.87,0.37841796875,-0.72705078125,0.352783203125,-8.625954198473282,40.33587786259542,17.259541984732824
5.88,0.376953125,-0.722412109375,0.3564453125,-14.931297709923664,42.01526717557252,18.96946564885496
5.89,0.412109375,-0.73486328125,0.338134765625,-16.47328244274809,48.05343511450382,22.671755725190838
5.9,0.400390625,-0.74853515625,0.3330078125,-16.450381679389313,57.099236641221374,25.419847328244273
5.91,0.3505859375,-0.788330078125,0.3115234375,-16.31297709923664,63.43511450381679,30.87786259541985
5.92,0.260986328125,-0.895263671875,0.32763671875,-14.038167938931299,64.16030534351145,30.72519083969466
5.93,0.137939453125,-1.09033203125,0.394775390625,-10.145038167938932,60.62595419847328,24.30534351145038
5.94,-0.059326171875,-1.3505859375,0.510009765625,-8.801526717557252,45.81679389312977,13.900763358778626
5.95,-0.218017578125,-1.5029296875,0.57958984375,-6.9541984732824424,34.778625954198475,8.01526717557252
5.96,-0.28955078125,-1.392333984375,0.701171875,3.480916030534351,31.85496183206107,8.923664122137405
5.97,-0.26953125,-1.24072265625,0.698974609375,13.50381679389313,28.114503816793892,8.061068702290076
5.98,-0.176513671875,-1.244140625,0.5859375,8.580152671755725,20.9618320610687,5.0458015267175576
5.99,-0.192138671875,-1.161376953125,0.470458984375,2.83206106870229,12.641221374045802,3.4885496183206106
6.0,-0.175048828125,-1.0361328125,0.36865234375,2.66412213740458,6.4961832061068705,3.5572519083969465
6.01,-0.106689453125,-0.94921875,0.320556640625,7.396946564885496,2.2213740458015265,3.2977099236641223
6.02,-0.00537109375,-0.876708984375,0.31689453125,10.625954198473282,-1.1374045801526718,3.114503816793893
6.03,0.03662109375,-0.849853515625,0.36376953125,6.641221374045801,-1.381679389312977,2.1755725190839694
6.04,0.04833984375,-0.844482421875,0.35888671875,1.5648854961832062,-1.5038167938931297,0.8854961832061069
6.05,0.0419921875,-0.859130859375,0.36083984375,2.6030534351145036,-4.061068702290076,-1.5114503816793894
6.06,0.042724609375,-0.841796875,0.400634765625,4.473282442748092,-4.33587786259542,-3.595419847328244
6.07,0.007080078125,-0.82177734375,0.445556640625,1.9618320610687023,-3.7786259541984735,-5.2748091603053435
6.08,-0.057861328125,-0.814453125,0.49560546875,-0.6946564885496184,-5.534351145038168,-5.00763358778626
6.09,-0.123291015625,-0.855224609375,0.5068359375,-3.1297709923664123,-8.488549618320612,-4.633587786259542
6.1,-0.134765625,-0.88671875,0.522705078125,-6.351145038167939,-10.427480916030534,-4.229007633587786
6.11,-0.10595703125,-0.943359375,0.544189453125,-9.458015267175572,-11.732824427480915,-3.7251908396946565
6.12,-0.056640625,-0.95263671875,0.54443359375,-10.900763358778626,-10.473282442748092,-2.5572519083969465
6.13,-0.01953125,-0.92919921875,0.537109375,-12.091603053435115,-8.587786259541986,-1.1068702290076335
6.14,0.005859375,-0.91015625,0.508056640625,-12.84732824427481,-6.7251908396946565,-0.2748091603053435
6.15,0.00341796875,-0.8916015625,0.47802734375,-11.83969465648855,-5.435114503816794,0.0916030534351145
6.16,-0.01318359375,-0.9169921875,0.482177734375,-11.129770992366412,-4.114503816793893,-0.31297709923664124
6.17,-0.031005859375,-0.912841796875,0.456298828125,-10.870229007633588,-4.526717557251908,-1.4885496183206106
6.18,-0.029541015625,-0.930908203125,0.490966796875,-10.50381679389313,-4.648854961832061,-3.114503816793893
6.19,-0.027587890625,-0.96142578125,0.508056640625,-10.007633587786259,-3.7404580152671754,-4.351145038167939
6.2,-0.05517578125,-0.9736328125,0.5087890625,-7.969465648854962,-3.66412213740458,-4.770992366412214
6.21,-0.09375,-0.965087890625,0.5126953125,-7.801526717557252,-1.0534351145038168,-4.145038167938932
6.22,-0.1533203125,-0.954345703125,0.498291015625,-6.8320610687022905,-6.068702290076335,-3.7557251908396947
6.23,-0.1630859375,-0.93896484375,0.4736328125,-6.572519083969466,-8.580152671755725,-3.0
6.24,-0.180908203125,-0.95263671875,0.4736328125,-6.961832061068702,-13.465648854961833,-2.6259541984732824
6.25,-0.174560546875,-0.93212890625,0.458740234375,-8.0,-16.47328244274809,-2.3435114503816794
6.26,-0.161865234375,-0.932861328125,0.477294921875,-7.885496183206107,-19.389312977099237,-1.6259541984732824
6.27,-0.134521484375,-0.93798828125,0.47216796875,-7.541984732824427,-19.16030534351145,-0.549618320610687
6.28,-0.09765625,-0.94970703125,0.458740234375,-6.595419847328245,-17.923664122137403,1.1297709923664123
6.29,-0.07275390625,-0.960693359375,0.48583984375,-5.625954198473282,-14.259541984732824,2.549618320610687
6.3,-0.03759765625,-0.966796875,0.491943359375,-4.366412213740458,-11.030534351145038,4.6106870229007635
6.31,-0.0185546875,-0.981201171875,0.49609375,-2.030534351145038,-9.65648854961832,5.801526717557252
6.32,0.01025390625,-0.96337890625,0.504150390625,0.7633587786259542,-4.99236641221374,6.8320610687022905
6.33,0.042236328125,-0.935302734375,0.48779296875,2.2900763358778624,-2.8625954198473282,6.916030534351145
6.34,0.048095703125,-0.904052734375,0.4658203125,3.877862595419847,-1.4045801526717556,6.00763358778626
6.35,0.03564453125,-0.88623046875,0.4404296875,1.2748091603053435,-0.7480916030534351,4.717557251908397
6.36,0.02734375,-0.861083984375,0.4228515625,1.4274809160305344,0.5877862595419847,3.236641221374046
6.37,0.009521484375,-0.857177734375,0.425537109375,1.5725190839694656,1.3358778625954197,1.3893129770992367
6.38,-0.02734375,-0.867431640625,0.4384765625,0.08396946564885496,2.2061068702290076,0.030534351145038167
6.39,-0.017578125,-0.879638671875,0.440673828125,-1.4961832061068703,2.267175572519084,-1.3740458015267176
6.4,-0.049560546875,-0.8818359375,0.44775390625,-2.267175572519084,2.763358778625954,-2.3893129770992365
6.41,-0.059326171875,-0.87939453125,0.43310546875,-3.0763358778625953,2.450381679389313,-3.450381679389313
6.42,-0.057861328125,-0.881591796875,0.4189453125,-3.5572519083969465,1.5114503816793894,-4.847328244274809
6.43,-0.0625,-0.88916015625,0.413818359375,-4.488549618320611,-0.16793893129770993,-6.549618320610687
6.44,-0.064208984375,-0.898681640625,0.4130859375,-4.847328244274809,-2.6946564885496183,-8.16030534351145
6.45,-0.09326171875,-0.912353515625,0.412841796875,-4.6183206106870225,-5.198473282442748,-9.038167938931299
6.46,-0.106689453125,-0.926025390625,0.430419921875,-3.732824427480916,-7.541984732824427,-9.297709923664122
6.47,-0.1083984375,-0.9482421875,0.429443359375,-2.33587786259542,-8.664122137404581,-8.916030534351146
6.48,-0.11767578125,-0.90966796875,0.428466796875,-5.190839694656488,-11.755725190839694,-8.725190839694656
6.49,-0.107177734375,-0.9296875,0.41259765625,-5.0,-7.900763358778626,-7.244274809160306
6.5,-0.1171875,-0.934326171875,0.373779296875,1.4427480916030535,-13.618320610687023,-7.7251908396946565
6.51,-0.093505859375,-0.88525390625,0.390625,1.7633587786259541,-13.648854961832061,-5.442748091603053
6.52,-0.06640625,-0.88818359375,0.37255859375,-5.427480916030534,-16.557251908396946,-5.534351145038168
6.53,-0.06201171875,-0.923583984375,0.37353515625,-1.534351145038168,-17.290076335877863,-6.0
6.54,-0.04541015625,-0.94921875,0.388916015625,1.9465648854961832,-19.31297709923664,-6.900763358778626
6.55,-0.043212890625,-0.923583984375,0.393310546875,-1.702290076335878,-20.259541984732824,-9.129770992366412
6.56,-0.051513671875,-0.934326171875,0.372802734375,-3.213740458015267,-21.87786259541985,-11.351145038167939
6.57,-0.02783203125,-0.93896484375,0.366455078125,-2.7938931297709924,-21.114503816793892,-13.938931297709924
6.58,-0.045166015625,-0.9443359375,0.333740234375,-2.8244274809160306,-26.022900763358777,-16.740458015267176
6.59,-0.029541015625,-0.95166015625,0.327880859375,-2.9083969465648853,-27.587786259541986,-18.702290076335878
6.6,-0.01953125,-0.957763671875,0.345947265625,-2.3053435114503817,-29.85496183206107,-20.519083969465647
6.61,-0.03515625,-0.988037109375,0.3603515625,-2.7251908396946565,-31.18320610687023,-21.244274809160306
6.62,-0.0576171875,-1.013671875,0.356689453125,-3.351145038167939,-33.9236641221374,-21.114503816793892
6.63,-0.07763671875,-1.01123046875,0.3447265625,-1.5725190839694656,-33.74045801526717,-19.6793893129771
6.64,-0.082275390625,-0.984619140625,0.3505859375,-0.1984732824427481,-35.33587786259542,-18.53435114503817
6.65,-0.056396484375,-0.927734375,0.331298828125,-0.16793893129770993,-40.3587786259542,-18.900763358778626
6.66,-0.045654296875,-0.886474609375,0.32421875,-2.5801526717557253,-41.79389312977099,-19.068702290076335
6.67,-0.068115234375,-0.88037109375,0.2802734375,-3.877862595419847,-48.69465648854962,-19.061068702290076
6.68,-0.090576171875,-0.877685546875,0.25634765625,-1.9770992366412214,-50.88549618320611,-19.748091603053435
6.69,-0.129150390625,-0.876708984375,0.296875,1.748091603053435,-57.01526717557252,-19.946564885496183
6.7,-0.117431640625,-0.844970703125,0.328125,2.053435114503817,-58.595419847328245,-18.595419847328245
6.71,-0.072509765625,-0.869873046875,0.362060546875,0.9312977099236641,-62.091603053435115,-15.145038167938932
6.72,0.103759765625,-0.94140625,0.37109375,1.450381679389313,-62.68702290076336,-9.450381679389313
6.73,0.295166015625,-1.047119140625,0.410888671875,0.816793893129771,-54.57251908396947,-2.3893129770992365
6.74,0.37451171875,-1.154296875,0.498779296875,-2.6106870229007635,-43.11450381679389,3.786259541984733
6.75,0.453369140625,-1.2607421875,0.573974609375,-4.198473282442748,-33.63358778625954,8.083969465648854
6.76,0.69189453125,-1.360107421875,0.679443359375,-2.9618320610687023,-16.480916030534353,10.793893129770993
6.77,0.86083984375,-1.349365234375,0.7333984375,0.08396946564885496,-1.2442748091603053,8.893129770992367
6.78,0.858642578125,-1.207763671875,0.715576171875,-5.679389312977099,14.16793893129771,2.4656488549618323
6.79,0.655517578125,-1.089111328125,0.56103515625,-1.5267175572519085,26.053435114503817,-5.198473282442748
6.8,0.41455078125,-1.013916015625,0.41845703125,5.435114503816794,29.48854961832061,-13.129770992366412
6.81,0.2490234375,-0.9765625,0.362060546875,9.19083969465649,26.66412213740458,-20.610687022900763
6.82,0.083984375,-0.94580078125,0.364013671875,9.541984732824428,20.015267175572518,-24.946564885496183
6.83,-0.022216796875,-0.913818359375,0.37744140625,7.534351145038168,13.068702290076336,-25.03053435114504
6.84,-0.072509765625,-0.90478515625,0.36181640625,8.374045801526718,7.755725190839694,-22.091603053435115
6.85,-0.060791015625,-0.87939453125,0.378173828125,11.595419847328245,2.2595419847328246,-17.12213740458015
6.86,-0.014404296875,-0.85009765625,0.372802734375,12.648854961832061,-0.8854961832061069,-11.84732824427481
6.87,0.042724609375,-0.837646484375,0.40283203125,10.687022900763358,-1.816793893129771,-6.900763358778626
6.88,0.100830078125,-0.846435546875,0.428466796875,7.732824427480916,-3.2900763358778624,-2.900763358778626
6.89,0.14794921875,-0.847900390625,0.480224609375,7.068702290076335,-2.351145038167939,-1.8473282442748091
6.9,0.172607421875,-0.842041015625,0.49853515625,7.984732824427481,-0.10687022900763359,1.5038167938931297
6.91,0.214111328125,-0.8232421875,0.544921875,7.877862595419847,2.648854961832061,1.4961832061068703
6.92,0.22607421875,-0.806640625,0.52197265625,6.5038167938931295,3.9160305343511452,0.9618320610687023
6.93,0.233154296875,-0.79638671875,0.51806640625,6.122137404580153,5.473282442748092,0.33587786259541985
6.94,0.228759765625,-0.81103515625,0.5,6.061068702290076,7.030534351145038,-0.007633587786259542
6.95,0.23779296875,-0.824951171875,0.507568359375,4.870229007633588,8.549618320610687,1.9236641221374047
6.96,0.248046875,-0.85498046875,0.531982421875,2.2900763358778624,10.541984732824428,0.10687022900763359
6.97,0.269287109375,-0.865966796875,0.551513671875,-0.3435114503816794,12.366412213740459,0.0916030534351145
6.98,0.281005859375,-0.863037109375,0.5693359375,-2.0763358778625953,15.15267175572519,0.4198473282442748
6.99,0.2666015625,-0.835693359375,0.572021484375,-4.129770992366412,17.19083969465649,-0.31297709923664124
7.0,0.235107421875,-0.8056640625,0.544189453125,-6.458015267175573,18.290076335877863,-1.4274809160305344
7.01,0.196044921875,-0.7880859375,0.511962890625,-8.282442748091603,18.69465648854962,-2.7786259541984735
7.02,0.152587890625,-0.78515625,0.50341796875,-7.9465648854961835,16.763358778625953,-4.541984732824427
7.03,0.109619140625,-0.801025390625,0.52978515625,-11.83206106870229,17.50381679389313,-4.870229007633588
7.04,0.1162109375,-0.845703125,0.568115234375,-12.030534351145038,13.877862595419847,-4.534351145038168
7.05,0.1552734375,-0.89892578125,0.619873046875,-11.603053435114504,14.709923664122137,-3.877862595419847
7.06,0.1689453125,-0.932861328125,0.609375,-14.16030534351145,15.396946564885496,-2.8625954198473282
7.07,0.16259765625,-0.96240234375,0.57421875,-15.603053435114504,17.572519083969464,-1.900763358778626
7.08,0.166748046875,-0.954833984375,0.535888671875,-14.49618320610687,14.618320610687023,-1.4045801526717556
7.09,0.17041015625,-0.929443359375,0.502685546875,-12.885496183206106,13.450381679389313,-1.5648854961832062
7.1,0.182373046875,-0.8818359375,0.490966796875,-11.80916030534351,13.419847328244275,-1.7251908396946565
7.11,0.186767578125,-0.86083984375,0.4775390625,-11.526717557251908,13.648854961832061,-2.2061068702290076
7.12,0.183349609375,-0.86767578125,0.465087890625,-10.816793893129772,11.305343511450381,-2.519083969465649
7.13,0.17138671875,-0.869140625,0.442626953125,-8.687022900763358,10.213740458015268,-2.969465648854962
7.14,0.153076171875,-0.87744140625,0.45556640625,-7.290076335877862,11.702290076335878,-2.595419847328244
7.15,0.139404296875,-0.893310546875,0.466064453125,-6.183206106870229,10.358778625954198,-0.8549618320610687
7.16,0.15283203125,-0.91357421875,0.474609375,-5.488549618320611,11.679389312977099,1.3511450381679388
7.17,0.198486328125,-0.919677734375,0.476318359375,-6.564885496183206,8.450381679389313,3.4198473282442747
7.18,0.2109375,-0.924072265625,0.47998046875,-6.236641221374046,8.038167938931299,5.458015267175573
7.19,0.195556640625,-0.93798828125,0.499755859375,-6.687022900763359,7.938931297709924,5.893129770992366
7.2,0.158203125,-0.9677734375,0.4794921875,-4.893129770992366,5.068702290076335,10.221374045801527
7.21,0.15087890625,-0.986083984375,0.48291015625,-4.33587786259542,3.816793893129771,12.022900763358779
7.22,0.1748046875,-1.033935546875,0.49609375,-3.213740458015267,1.0458015267175573,13.572519083969466
7.23,0.196044921875,-1.08203125,0.510009765625,-1.465648854961832,-0.4351145038167939,9.229007633587786
7.24,0.195556640625,-1.11328125,0.53466796875,1.7557251908396947,-1.702290076335878,6.6183206106870225
7.25,0.189697265625,-1.10107421875,0.52783203125,3.068702290076336,-1.5877862595419847,4.687022900763359
7.26,0.202392578125,-1.052978515625,0.4775390625,2.7404580152671754,-0.6183206106870229,3.183206106870229
7.27,0.22802734375,-0.97265625,0.44384765625,3.4580152671755724,0.5725190839694656,1.8931297709923665
7.28,0.228759765625,-0.90478515625,0.414794921875,3.480916030534351,-1.3893129770992367,-0.4198473282442748
7.29,0.2392578125,-0.900146484375,0.3935546875,3.053435114503817,-2.3587786259541983,-1.786259541984733
7.3,0.21923828125,-0.911865234375,0.400146484375,3.3282442748091605,-2.6793893129770994,-1.6641221374045803
7.31,0.2099609375,-0.906005859375,0.4052734375,4.137404580152672,-4.32824427480916,-0.5038167938931297
7.32,0.2109375,-0.89404296875,0.380615234375,4.8320610687022905,-3.213740458015267,1.6870229007633588
7.33,0.21826171875,-0.890625,0.353759765625,6.061068702290076,-1.3969465648854962,4.931297709923665
7.34,0.211669921875,-0.86669921875,0.337158203125,6.6106870229007635,0.5267175572519084,8.045801526717558
7.35,0.240234375,-0.835693359375,0.340576171875,5.572519083969466,2.732824427480916,10.86259541984733
7.36,0.272216796875,-0.832275390625,0.32373046875,4.6106870229007635,6.862595419847328,12.938931297709924
7.37,0.29150390625,-0.8447265625,0.31591796875,4.656488549618321,9.419847328244275,14.396946564885496
7.38,0.30712890625,-0.85009765625,0.30810546875,5.183206106870229,13.16030534351145,15.458015267175572
7.39,0.3212890625,-0.849609375,0.318359375,4.00763358778626,16.290076335877863,16.572519083969464
7.4,0.315185546875,-0.83642578125,0.29931640625,2.4732824427480917,21.045801526717558,17.587786259541986
7.41,0.296875,-0.817138671875,0.32470703125,0.24427480916030533,24.49618320610687,18.740458015267176
7.42,0.327392578125,-0.829833984375,0.30029296875,-4.5038167938931295,27.633587786259543,20.14503816793893
7.43,0.34326171875,-0.8310546875,0.302978515625,-7.687022900763359,32.17557251908397,22.557251908396946
7.44,0.348876953125,-0.849609375,0.307861328125,-9.816793893129772,34.99236641221374,25.259541984732824
7.45,0.332763671875,-0.855712890625,0.3056640625,-14.0,39.725190839694655,27.50381679389313
7.46,0.292236328125,-0.843017578125,0.304443359375,-13.86259541984733,43.16030534351145,29.572519083969464
7.47,0.265869140625,-0.797607421875,0.2802734375,-13.80916030534351,44.48091603053435,32.16030534351145
7.48,0.26806640625,-0.747314453125,0.26220703125,-17.297709923664122,48.83206106870229,35.916030534351144
7.49,0.27294921875,-0.676513671875,0.23583984375,-17.977099236641223,53.49618320610687,40.13740458015267
7.5,0.267578125,-0.626220703125,0.213134765625,-19.923664122137403,56.76335877862596,44.44274809160305
7.51,0.266357421875,-0.641845703125,0.1943359375,-23.03053435114504,63.969465648854964,47.54961832061068
7.52,0.238525390625,-0.77783203125,0.27099609375,-23.81679389312977,68.85496183206106,45.83969465648855
7.53,0.128662109375,-1.08203125,0.4677734375,-20.96946564885496,63.29770992366412,35.23664122137404
7.54,-0.07275390625,-1.533203125,0.684814453125,-11.587786259541986,43.274809160305345,18.82442748091603
7.55,-0.443115234375,-2.0,0.883056640625,0.5801526717557252,33.030534351145036,0.16793893129770993
7.56,-0.89013671875,-2.0,1.055908203125,-0.07633587786259542,13.633587786259541,-8.511450381679388
7.57,-0.87646484375,-1.60400390625,0.92236328125,14.351145038167939,-1.6641221374045803,-5.877862595419847
7.58,-0.462646484375,-1.134765625,0.5244140625,13.358778625954198,-3.9770992366412212,-2.5801526717557253
7.59,-0.156982421875,-0.7568359375,0.274169921875,7.427480916030534,0.3816793893129771,1.3358778625954197
7.6,-0.033203125,-0.640380859375,0.206298828125,15.366412213740459,-15.610687022900763,2.6106870229007635
7.61,0.09326171875,-0.741943359375,0.197021484375,19.221374045801525,-33.13740458015267,1.015267175572519
7.62,0.202880859375,-0.8203125,0.335693359375,14.114503816793894,-45.969465648854964,-4.068702290076335
7.63,0.386474609375,-0.93408203125,0.4033203125,8.618320610687023,-19.14503816793893,-8.86259541984733
7.64,0.201171875,-0.990966796875,0.479248046875,4.938931297709924,-15.908396946564885,-13.442748091603054
7.65,0.123291015625,-1.020263671875,0.43359375,10.603053435114504,-11.748091603053435,-15.442748091603054
7.66,0.0546875,-0.95361328125,0.432861328125,19.14503816793893,-6.251908396946565,-15.129770992366412
7.67,-0.03076171875,-0.88427734375,0.46728515625,17.61832061068702,-5.534351145038168,-14.900763358778626
7.68,-0.093505859375,-0.853271484375,0.495361328125,10.641221374045802,-5.984732824427481,-14.236641221374045
7.69,-0.099609375,-0.873779296875,0.5166015625,5.862595419847328,-6.061068702290076,-13.717557251908397
7.7,-0.101318359375,-0.907958984375,0.55908203125,5.4961832061068705,-7.442748091603053,-13.358778625954198
7.71,-0.07421875,-0.9189453125,0.601318359375,5.763358778625954,-7.259541984732825,-12.770992366412214
7.72,-0.05615234375,-0.92431640625,0.612548828125,2.6412213740458017,-5.312977099236641,-12.450381679389313
7.73,-0.04150390625,-0.912353515625,0.5888671875,-0.8549618320610687,-1.381679389312977,-11.49618320610687
7.74,-0.057373046875,-0.874267578125,0.528076171875,-0.007633587786259542,1.3435114503816794,-9.17557251908397
7.75,-0.07373046875,-0.828857421875,0.475830078125,-2.4885496183206106,3.885496183206107,-6.198473282442748
7.76,-0.066162109375,-0.799560546875,0.4482421875,-4.099236641221374,3.9618320610687023,-4.0458015267175576
7.77,-0.0537109375,-0.80078125,0.441650390625,-3.9389312977099236,5.656488549618321,-2.946564885496183
7.78,-0.02099609375,-0.829833984375,0.431396484375,-6.099236641221374,6.854961832061068,-2.954198473282443
7.79,-0.027587890625,-0.864501953125,0.46240234375,-6.633587786259542,7.748091603053435,-3.519083969465649
7.8,-0.06591796875,-0.88916015625,0.48095703125,-8.740458015267176,4.580152671755725,-4.305343511450381
7.81,-0.1142578125,-0.901123046875,0.484619140625,-9.755725190839694,2.732824427480916,-4.587786259541985
7.82,-0.16552734375,-0.915771484375,0.470458984375,-9.65648854961832,0.9312977099236641,-3.5114503816793894
7.83,-0.204833984375,-0.91259765625,0.47314453125,-9.969465648854962,-2.717557251908397,-1.7328244274809161
7.84,-0.2255859375,-0.91748046875,0.47607421875,-10.526717557251908,-6.679389312977099,-0.6106870229007634
7.85,-0.205322265625,-0.916748046875,0.479248046875,-10.664122137404581,-9.564885496183207,0.17557251908396945
7.86,-0.172607421875,-0.91455078125,0.463134765625,-10.732824427480915,-11.206106870229007,0.2366412213740458
7.87,-0.124755859375,-0.927001953125,0.456787109375,-10.595419847328245,-11.732824427480915,-0.030534351145038167
7.88,-0.085205078125,-0.9375,0.457763671875,-9.82442748091603,-11.061068702290076,-0.11450381679389313
7.89,-0.0439453125,-0.9541015625,0.46533203125,-8.404580152671755,-10.01526717557252,-0.2595419847328244
7.9,-0.028564453125,-0.959228515625,0.464111328125,-7.251908396946565,-7.977099236641221,-0.10687022900763359
7.91,0.00048828125,-0.947265625,0.471923828125,-6.511450381679389,-6.1603053435114505,-0.40458015267175573
7.92,-0.005126953125,-0.924560546875,0.467529296875,-5.343511450381679,-4.748091603053435,-0.40458015267175573
7.93,-0.021240234375,-0.937255859375,0.44384765625,-4.351145038167939,-3.030534351145038,-0.1297709923664122
7.94,-0.02685546875,-0.91015625,0.45263671875,-3.564885496183206,-2.351145038167939,0.35877862595419846
7.95,-0.0224609375,-0.89794921875,0.44482421875,-3.687022900763359,-1.702290076335878,1.015267175572519
7.96,-0.015869140625,-0.88916015625,0.439697265625,-3.2442748091603053,-0.9312977099236641,1.8549618320610688
7.97,-0.008056640625,-0.86865234375,0.421630859375,-3.030534351145038,0.13740458015267176,2.312977099236641
7.98,-0.004638671875,-0.869140625,0.419921875,-1.9923664122137406,1.3435114503816794,2.1068702290076335
7.99,-0.011474609375,-0.869873046875,0.408935546875,-4.977099236641221,2.6564885496183206,1.0229007633587786
8.0,-0.010498046875,-0.889892578125,0.432373046875,-5.793893129770993,2.83206106870229,-0.48854961832061067
8.01,-0.0244140625,-0.89697265625,0.4150390625,-6.2748091603053435,3.5114503816793894,-2.1908396946564888
8.02,-0.0341796875,-0.914794921875,0.4228515625,-6.465648854961832,2.030534351145038,-1.9694656488549618
8.03,-0.037841796875,-0.940673828125,0.4091796875,-6.862595419847328,3.6564885496183206,-5.572519083969466
8.04,-0.052734375,-0.953125,0.403076171875,-7.809160305343512,2.7480916030534353,-7.137404580152672
8.05,-0.0615234375,-0.966064453125,0.39599609375,-5.114503816793893,1.5801526717557253,-8.587786259541986
8.06,-0.06005859375,-0.983642578125,0.403564453125,-4.404580152671755,0.03816793893129771,-9.534351145038167
8.07,-0.0771484375,-0.96484375,0.397705078125,-3.549618320610687,-1.4580152671755726,-10.145038167938932
8.08,-0.0771484375,-0.964599609375,0.403564453125,-3.236641221374046,-3.4122137404580153,-9.778625954198473
8.09,-0.07080078125,-0.96044921875,0.412353515625,-2.900763358778626,-5.366412213740458,-8.664122137404581
8.1,-0.06787109375,-0.956298828125,0.408447265625,-1.8473282442748091,-6.587786259541985,-7.755725190839694
8.11,-0.0703125,-0.966552734375,0.407958984375,-1.8931297709923665,-8.786259541984732,-6.961832061068702
8.12,-0.077880859375,-0.989990234375,0.386474609375,-0.8015267175572519,-9.954198473282442,-6.366412213740458
8.13,-0.058837890625,-1.009521484375,0.375,-0.19083969465648856,-9.84732824427481,-6.122137404580153
8.14,-0.052978515625,-1.001708984375,0.381103515625,0.7404580152671756,-13.450381679389313,-6.862595419847328
8.15,-0.048583984375,-0.99853515625,0.385498046875,1.5038167938931297,-15.038167938931299,-5.870229007633588
8.16,-0.045166015625,-0.977783203125,0.4033203125,2.9618320610687023,-16.015267175572518,-8.65648854961832
8.17,-0.05615234375,-0.96630859375,0.39794921875,3.83206106870229,-17.267175572519083,-11.717557251908397
8.18,-0.056640625,-0.94482421875,0.3896484375,4.641221374045801,-18.870229007633586,-10.32824427480916
8.19,-0.053466796875,-0.941162109375,0.370849609375,3.954198473282443,-19.984732824427482,-10.778625954198473
8.2,-0.044677734375,-0.9365234375,0.3740234375,6.679389312977099,-18.549618320610687,-10.816793893129772
8.21,-0.060302734375,-0.912841796875,0.333740234375,8.122137404580153,-21.35114503816794,-10.534351145038167
8.22,-0.03271484375,-0.89794921875,0.317626953125,8.274809160305344,-20.27480916030534,-10.435114503816793
8.23,-0.043701171875,-0.86767578125,0.3173828125,8.32824427480916,-20.83206106870229,-10.648854961832061
8.24,-0.0341796875,-0.864990234375,0.32958984375,6.427480916030534,-21.236641221374047,-10.488549618320612
8.25,-0.0205078125,-0.88037109375,0.32177734375,6.129770992366412,-25.389312977099237,-10.580152671755725
8.26,-0.019287109375,-0.88427734375,0.313720703125,5.465648854961832,-22.977099236641223,-10.458015267175572
8.27,-0.04638671875,-0.892333984375,0.302978515625,4.221374045801527,-24.213740458015266,-10.274809160305344
8.28,-0.041748046875,-0.878173828125,0.29443359375,2.1068702290076335,-25.64885496183206,-10.885496183206106
8.29,-0.03955078125,-0.856201171875,0.255615234375,1.8244274809160306,-25.916030534351144,-12.610687022900763
8.3,-0.021484375,-0.851318359375,0.219970703125,1.083969465648855,-26.51145038167939,-15.549618320610687
8.31,-0.003173828125,-0.841064453125,0.226806640625,-0.7022900763358778,-28.244274809160306,-19.12213740458015
8.32,-0.004638671875,-0.844482421875,0.2421875,-4.450381679389313,-31.755725190839694,-23.091603053435115
8.33,-0.009765625,-0.8515625,0.24462890625,-6.816793893129771,-35.038167938931295,-25.793893129770993
8.34,-0.0576171875,-0.869140625,0.251953125,-8.083969465648854,-38.29770992366412,-27.19083969465649
8.35,-0.080078125,-0.866455078125,0.241455078125,-9.076335877862595,-41.51145038167939,-26.595419847328245
8.36,-0.077392578125,-0.875244140625,0.236083984375,-10.67175572519084,-43.7557251908397,-24.221374045801525
8.37,-0.063720703125,-0.907958984375,0.296142578125,-11.198473282442748,-46.900763358778626,-19.045801526717558
8.38,0.03857421875,-0.973876953125,0.3486328125,-11.16793893129771,-48.396946564885496,-9.961832061068701
8.39,0.201904296875,-1.06640625,0.438232421875,-12.572519083969466,-42.54961832061068,1.015267175572519
8.4,0.32421875,-1.232666015625,0.580078125,-14.65648854961832,-29.931297709923665,12.297709923664122
8.41,0.453369140625,-1.38916015625,0.731689453125,-17.221374045801525,-14.045801526717558,20.931297709923665
8.42,0.64697265625,-1.48486328125,0.807861328125,-15.351145038167939,-1.2900763358778626,23.801526717557252
8.43,0.832275390625,-1.46337890625,0.803955078125,-13.618320610687023,18.374045801526716,19.862595419847327
8.44,0.83251953125,-1.269775390625,0.648193359375,-7.511450381679389,32.29770992366412,6.770992366412214
8.45,0.565185546875,-1.079833984375,0.468017578125,-1.6946564885496183,37.19083969465649,-5.931297709923665
8.46,0.2509765625,-1.07568359375,0.332763671875,4.473282442748092,32.85496183206107,-17.954198473282442
8.47,0.07763671875,-1.0791015625,0.314453125,11.259541984732824,25.870229007633586,-28.061068702290076
8.48,-0.058837890625,-1.0673828125,0.3369140625,11.045801526717558,19.213740458015266,-31.801526717557252
8.49,-0.16015625,-1.04443359375,0.3876953125,6.198473282442748,6.129770992366412,-30.229007633587788
8.5,-0.174560546875,-1.01611328125,0.417724609375,7.419847328244275,-0.6412213740458015,-24.984732824427482
8.51,-0.160400390625,-0.974365234375,0.440185546875,11.16793893129771,-7.015267175572519,-21.427480916030536
8.52,-0.10791015625,-0.93701171875,0.442626953125,11.488549618320612,-10.961832061068701,-13.748091603053435
8.53,-0.010498046875,-0.90966796875,0.43212890625,10.572519083969466,-14.129770992366412,-9.13740458015267
8.54,0.0830078125,-0.900390625,0.43115234375,10.465648854961833,-15.076335877862595,-4.770992366412214
8.55,0.178466796875,-0.88818359375,0.455810546875,10.045801526717558,-12.572519083969466,-0.7938931297709924
8.56,0.207275390625,-0.8984375,0.4765625,9.450381679389313,-7.9465648854961835,1.8091603053435115
8.57,0.248291015625,-0.916259765625,0.49462890625,7.213740458015267,-4.458015267175573,2.519083969465649
8.58,0.265625,-0.898681640625,0.488037109375,5.9465648854961835,0.37404580152671757,1.282442748091603
8.59,0.274658203125,-0.885009765625,0.4658203125,4.229007633587786,2.0763358778625953,-1.366412213740458
8.6,0.2724609375,-0.874755859375,0.45654296875,3.885496183206107,7.297709923664122,-4.419847328244275
8.61,0.2587890625,-0.86962890625,0.447998046875,-0.3053435114503817,9.17557251908397,-6.885496183206107
8.62,0.24169921875,-0.859619140625,0.455810546875,-1.251908396946565,8.625954198473282,-8.198473282442748
8.63,0.21337890625,-0.87060546875,0.47265625,-2.687022900763359,9.442748091603054,-8.335877862595419
8.64,0.179443359375,-0.84423828125,0.50634765625,-4.244274809160306,7.847328244274809,-8.312977099236642
8.65,0.163330078125,-0.84130859375,0.519775390625,-5.603053435114504,6.351145038167939,-7.374045801526718
8.66,0.140869140625,-0.841552734375,0.5078125,-5.534351145038168,5.786259541984733,-6.312977099236641
8.67,0.1298828125,-0.832275390625,0.50146484375,-4.3816793893129775,5.549618320610687,-5.0458015267175576
8.68,0.13916015625,-0.8046875,0.49609375,-5.862595419847328,3.946564885496183,-3.801526717557252
8.69,0.14501953125,-0.795654296875,0.493408203125,-4.709923664122138,4.534351145038168,-2.7709923664122136
8.7,0.157958984375,-0.801513671875,0.480224609375,-2.786259541984733,4.145038167938932,-1.9770992366412214
8.71,0.17431640625,-0.82373046875,0.496826171875,-3.2900763358778624,4.6106870229007635,-1.1755725190839694
8.72,0.19873046875,-0.830078125,0.4990234375,-3.618320610687023,5.549618320610687,-0.6106870229007634
8.73,0.223876953125,-0.8828125,0.493896484375,-4.9465648854961835,7.6183206106870225,-0.2900763358778626
8.74,0.243408203125,-0.90966796875,0.488037109375,-3.969465648854962,9.045801526717558,-0.10687022900763359
8.75,0.240234375,-0.916015625,0.48876953125,-6.412213740458015,10.17557251908397,-0.11450381679389313
8.76,0.246826171875,-0.932373046875,0.4951171875,-6.32824427480916,11.13740458015267,-0.7251908396946565
8.77,0.23779296875,-0.94287109375,0.50048828125,-5.450381679389313,11.564885496183207,-1.9389312977099236
8.78,0.22265625,-0.960693359375,0.489990234375,-2.801526717557252,11.442748091603054,-3.480916030534351
8.79,0.20654296875,-0.964599609375,0.4951171875,-0.9618320610687023,10.48091603053435,-5.076335877862595
8.8,0.18603515625,-0.96240234375,0.49658203125,0.4198473282442748,9.251908396946565,-5.809160305343512
8.81,0.178955078125,-0.94873046875,0.462158203125,1.2900763358778626,8.16030534351145,-6.061068702290076
8.82,0.17041015625,-0.935791015625,0.448974609375,1.6106870229007633,7.625954198473282,-5.190839694656488
8.83,0.171875,-0.917724609375,0.444580078125,1.5725190839694656,7.114503816793893,-5.862595419847328
8.84,0.18701171875,-0.906982421875,0.4453125,1.6412213740458015,6.648854961832061,-1.8091603053435115
8.85,0.179931640625,-0.9169921875,0.454345703125,1.8091603053435115,5.870229007633588,0.5725190839694656
8.86,0.18310546875,-0.9365234375,0.46337890625,2.4580152671755724,5.923664122137405,2.50381679389313
8.87,0.180908203125,-0.947265625,0.45166015625,3.015267175572519,5.267175572519084,4.3816793893129775
8.88,0.189208984375,-0.952392578125,0.432373046875,3.8244274809160306,6.00763358778626,6.030534351145038
8.89,0.19482421875,-0.947509765625,0.424072265625,3.8091603053435112,6.190839694656488,6.931297709923665
8.9,0.20263671875,-0.939208984375,0.412109375,4.404580152671755,6.2748091603053435,7.5038167938931295
8.91,0.216552734375,-0.93017578125,0.4111328125,5.244274809160306,6.908396946564886,7.755725190839694
8.92,0.231201171875,-0.915771484375,0.411376953125,5.8396946564885495,7.854961832061068,8.045801526717558
8.93,0.2412109375,-0.921875,0.39599609375,5.641221374045801,9.610687022900763,8.694656488549619
8.94,0.255126953125,-0.907958984375,0.40234375,5.465648854961832,10.526717557251908,8.98473282442748
8.95,0.2568359375,-0.904296875,0.393310546875,5.526717557251908,11.534351145038167,9.19083969465649
8.96,0.254150390625,-0.914306640625,0.390625,6.267175572519084,12.16030534351145,9.221374045801527
8.97,0.260498046875,-0.91943359375,0.399169921875,6.625954198473282,13.450381679389313,9.0
8.98,0.2587890625,-0.9306640625,0.397705078125,6.580152671755725,14.793893129770993,8.923664122137405
8.99,0.25439453125,-0.927001953125,0.388671875,6.343511450381679,16.16793893129771,8.923664122137405
9.0,0.2568359375,-0.919921875,0.389892578125,6.6183206106870225,15.679389312977099,9.282442748091603
9.01,0.259765625,-0.896728515625,0.36181640625,6.091603053435114,18.48854961832061,9.244274809160306
9.02,0.271728515625,-0.8837890625,0.347900390625,4.221374045801527,19.38167938931298,9.625954198473282
9.03,0.25244140625,-0.880126953125,0.33740234375,3.312977099236641,19.900763358778626,10.297709923664122
9.04,0.256103515625,-0.88916015625,0.354248046875,2.1297709923664123,22.374045801526716,10.587786259541986
9.05,0.223876953125,-0.86767578125,0.35205078125,0.4732824427480916,20.51145038167939,11.15267175572519
9.06,0.223388671875,-0.872314453125,0.337646484375,0.1297709923664122,21.572519083969464,12.65648854961832
9.07,0.20361328125,-0.862060546875,0.334716796875,-0.15267175572519084,21.068702290076335,14.183206106870228
9.08,0.232177734375,-0.864013671875,0.315673828125,-1.8244274809160306,22.259541984732824,16.076335877862597
9.09,0.217041015625,-0.868896484375,0.327880859375,-3.4656488549618323,22.572519083969464,15.65648854961832
9.1,0.207275390625,-0.862060546875,0.323974609375,-4.885496183206107,23.297709923664122,19.82442748091603
9.11,0.201171875,-0.8466796875,0.332763671875,-7.633587786259542,25.633587786259543,21.938931297709924
9.12,0.186279296875,-0.834716796875,0.32275390625,-11.099236641221374,27.3206106870229,23.96946564885496
9.13,0.20947265625,-0.83740234375,0.29443359375,-12.900763358778626,29.64885496183206,25.580152671755727
9.14,0.238525390625,-0.78662109375,0.274658203125,-16.801526717557252,31.885496183206108,26.061068702290076
9.15,0.272216796875,-0.77685546875,0.242431640625,-18.12213740458015,34.14503816793893,27.099236641221374
9.16,0.320068359375,-0.776611328125,0.237060546875,-17.045801526717558,37.221374045801525,27.603053435114504
9.17,0.342041015625,-0.8046875,0.296875,-18.129770992366414,39.12213740458015,25.64885496183206
9.18,0.35791015625,-0.952880859375,0.404052734375,-16.557251908396946,38.55725190839695,20.3206106870229
9.19,0.293212890625,-1.17138671875,0.675048828125,-7.969465648854962,38.38931297709924,9.870229007633588
9.2,0.100341796875,-1.46923828125,0.902587890625,6.351145038167939,31.106870229007633,-6.801526717557252
9.21,-0.370361328125,-1.624267578125,0.98974609375,4.770992366412214,26.282442748091604,-20.129770992366414
9.22,-0.80419921875,-1.53759765625,0.9208984375,-14.076335877862595,0.32061068702290074,-25.870229007633586
9.23,-0.701416015625,-1.11279296875,0.548583984375,-10.320610687022901,1.1068702290076335,-17.625954198473284
9.24,-0.4208984375,-0.666259765625,0.242919921875,2.8702290076335877,1.099236641221374,-3.0839694656488548
9.25,-0.10791015625,-0.489013671875,0.211669921875,8.694656488549619,4.396946564885496,4.152671755725191
9.26,0.066650390625,-0.59521484375,0.193115234375,3.6030534351145036,-12.022900763358779,7.061068702290076
9.27,0.23486328125,-0.77392578125,0.24365234375,-6.7251908396946565,-15.923664122137405,8.282442748091603
9.28,0.35498046875,-0.9091796875,0.335205078125,-10.106870229007633,-1.9694656488549618,9.213740458015268
9.29,0.280517578125,-1.04150390625,0.44091796875,-4.656488549618321,-1.0305343511450382,6.519083969465649
9.3,0.239013671875,-1.159423828125,0.47998046875,0.916030534351145,4.641221374045801,1.3511450381679388
9.31,0.138427734375,-1.24658203125,0.494873046875,1.0458015267175573,9.473282442748092,-4.419847328244275
9.32,0.019775390625,-1.213623046875,0.49560546875,2.5267175572519083,7.473282442748092,-8.450381679389313
9.33,-0.076904296875,-1.146484375,0.541259765625,0.7557251908396947,4.511450381679389,-10.49618320610687
9.34,-0.116455078125,-1.056884765625,0.603271484375,2.4427480916030535,3.66412213740458,-10.267175572519085
9.35,-0.103759765625,-0.98974609375,0.65869140625,3.7557251908396947,4.152671755725191,-8.893129770992367
9.36,-0.07861328125,-0.9638671875,0.686767578125,3.931297709923664,4.198473282442748,-7.564885496183206
9.37,-0.0517578125,-0.96240234375,0.665771484375,4.076335877862595,4.267175572519084,-7.427480916030534
9.38,-0.027099609375,-0.949951171875,0.634765625,4.1603053435114505,5.221374045801527,-7.900763358778626
9.39,-0.018798828125,-0.91455078125,0.564697265625,1.4732824427480915,6.343511450381679,-7.908396946564886
9.4,-0.02587890625,-0.87841796875,0.538330078125,-3.0,9.885496183206106,-6.900763358778626
9.41,-0.037353515625,-0.883056640625,0.489013671875,-5.091603053435114,10.282442748091603,-5.572519083969466
9.42,-0.018310546875,-0.888671875,0.486083984375,-1.6717557251908397,9.702290076335878,-4.396946564885496
9.43,-0.02587890625,-0.881103515625,0.500244140625,0.4198473282442748,9.48091603053435,-4.175572519083969
9.44,-0.055419921875,-0.8701171875,0.53564453125,1.2748091603053435,7.374045801526718,-4.442748091603053
9.45,-0.093017578125,-0.86181640625,0.516357421875,0.9312977099236641,6.511450381679389,-4.511450381679389
9.46,-0.15380859375,-0.8759765625,0.50341796875,2.969465648854962,3.4198473282442747,-4.267175572519084
9.47,-0.184326171875,-0.871826171875,0.494384765625,5.656488549618321,-1.213740458015267,-3.7099236641221376
9.48,-0.214599609375,-0.878662109375,0.518310546875,5.709923664122138,-6.984732824427481,-3.687022900763359
9.49,-0.219482421875,-0.878662109375,0.5166015625,4.66412213740458,-12.511450381679388,-4.0
9.5,-0.196044921875,-0.880859375,0.53564453125,3.954198473282443,-16.38167938931298,-4.473282442748092
9.51,-0.194091796875,-0.860107421875,0.51806640625,2.114503816793893,-19.15267175572519,-4.519083969465649
9.52,-0.12158203125,-0.875,0.500244140625,0.9236641221374046,-20.045801526717558,-3.7786259541984735
9.53,-0.057861328125,-0.888671875,0.499267578125,-0.22137404580152673,-20.66412213740458,-2.312977099236641
9.54,-0.011962890625,-0.900146484375,0.4970703125,-0.9312977099236641,-17.793893129770993,-1.1450381679389312
9.55,0.006103515625,-0.91796875,0.487060546875,-0.7938931297709924,-15.068702290076336,-0.3053435114503817
9.56,0.01904296875,-0.9091796875,0.454345703125,0.7938931297709924,-10.770992366412214,-0.22900763358778625
9.57,0.018310546875,-0.929443359375,0.436279296875,2.7404580152671754,-9.732824427480915,-0.8625954198473282
9.58,-0.00439453125,-0.91748046875,0.447998046875,2.7251908396946565,-5.793893129770993,-1.8854961832061068
9.59,0.001953125,-0.927490234375,0.428955078125,3.7786259541984735,-3.8396946564885495,-3.0610687022900764
9.6,0.0,-0.91943359375,0.451171875,5.083969465648855,-2.9160305343511452,-3.8931297709923665
9.61,-0.022216796875,-0.909423828125,0.462890625,4.717557251908397,-2.648854961832061,-4.587786259541985
9.62,-0.050048828125,-0.877197265625,0.460205078125,3.50381679389313,-2.282442748091603,-4.465648854961832
9.63,-0.062255859375,-0.851318359375,0.457275390625,2.3969465648854964,-2.763358778625954,-3.8702290076335877
9.64,-0.074462890625,-0.837646484375,0.435546875,1.297709923664122,-3.16793893129771,-1.9770992366412214
9.65,-0.055908203125,-0.85791015625,0.427001953125,-0.31297709923664124,-3.183206106870229,-0.2366412213740458
9.66,-0.036865234375,-0.83056640625,0.421875,-2.3282442748091605,-3.0916030534351147,0.9847328244274809
9.67,-0.041015625,-0.829345703125,0.42041015625,-3.6793893129770994,-2.8091603053435112,1.7251908396946565
9.68,-0.038330078125,-0.84130859375,0.3798828125,-4.305343511450381,-2.801526717557252,2.2519083969465647
9.69,-0.03955078125,-0.8564453125,0.359130859375,-4.603053435114504,-2.183206106870229,2.1297709923664123
9.7,-0.021240234375,-0.8837890625,0.353515625,-5.297709923664122,-2.5801526717557253,1.6488549618320612
9.71,-0.0087890625,-0.91259765625,0.363037109375,-5.068702290076335,-3.366412213740458,1.8854961832061068
9.72,-0.001708984375,-0.958984375,0.4150390625,-4.244274809160306,-4.519083969465649,-2.2595419847328246
9.73,-0.0224609375,-0.98779296875,0.447509765625,-3.885496183206107,-5.717557251908397,-5.5038167938931295
9.74,-0.037841796875,-1.004150390625,0.45263671875,-3.4122137404580153,-6.641221374045801,-8.091603053435115
9.75,-0.054931640625,-1.021484375,0.447509765625,-2.1297709923664123,-9.17557251908397,-9.687022900763358
9.76,-0.0517578125,-1.00390625,0.42724609375,-1.0687022900763359,-11.038167938931299,-10.374045801526718
9.77,-0.06689453125,-0.987548828125,0.435791015625,-0.37404580152671757,-12.679389312977099,-10.183206106870228
9.78,-0.0498046875,-0.980224609375,0.423095703125,-0.06870229007633588,-14.061068702290076,-8.648854961832061
9.79,-0.031982421875,-0.964599609375,0.411865234375,1.083969465648855,-14.068702290076336,-7.366412213740458
9.8,-0.01953125,-0.952880859375,0.416259765625,1.984732824427481,-13.15267175572519,-5.885496183206107
9.81,-0.0234375,-0.916748046875,0.399658203125,1.1603053435114503,-13.114503816793894,-4.7251908396946565
9.82,0.00537109375,-0.8994140625,0.361572265625,0.648854961832061,-11.687022900763358,-3.2519083969465647
9.83,0.02197265625,-0.882080078125,0.331298828125,0.5114503816793893,-11.32824427480916,-2.3206106870229006
9.84,0.0576171875,-0.881103515625,0.322509765625,0.32061068702290074,-10.15267175572519,-2.5801526717557253
9.85,0.081787109375,-0.906494140625,0.34326171875,1.1374045801526718,-10.549618320610687,-5.213740458015267
9.86,0.068603515625,-0.94384765625,0.36572265625,2.2519083969465647,-11.183206106870228,-9.34351145038168
9.87,0.02490234375,-0.981689453125,0.3984375,2.786259541984733,-10.534351145038167,-14.022900763358779
9.88,-0.02197265625,-0.97998046875,0.37939453125,2.2213740458015265,-10.732824427480915,-17.19083969465649
9.89,-0.052001953125,-0.9560546875,0.35693359375,1.8473282442748091,-12.633587786259541,-18.916030534351144
9.9,-0.068115234375,-0.9326171875,0.327392578125,1.5877862595419847,-14.702290076335878,-19.251908396946565
9.91,-0.07763671875,-0.912109375,0.333740234375,1.2671755725190839,-17.870229007633586,-18.389312977099237
9.92,-0.0498046875,-0.892822265625,0.34619140625,1.015267175572519,-19.297709923664122,-17.022900763358777
9.93,-0.04248046875,-0.878173828125,0.331787109375,1.1145038167938932,-21.641221374045802,-15.488549618320612
9.94,-0.027587890625,-0.88330078125,0.350830078125,1.4274809160305344,-22.66412213740458,-13.427480916030534
9.95,-0.028564453125,-0.871826171875,0.315185546875,1.2290076335877862,-23.610687022900763,-10.916030534351146
9.96,-0.037353515625,-0.866943359375,0.3427734375,2.3969465648854964,-25.198473282442748,-8.450381679389313
9.97,-0.029296875,-0.89306640625,0.32373046875,5.038167938931298,-26.977099236641223,-7.251908396946565
9.98,-0.024658203125,-0.94873046875,0.30615234375,9.213740458015268,-27.091603053435115,-7.419847328244275
9.99,-0.0595703125,-0.99365234375,0.29296875,9.610687022900763,-28.603053435114504,-9.465648854961833
10.0,-0.049072265625,-1.00390625,0.26513671875,7.564885496183206,-32.152671755725194,-12.076335877862595
10.01,-0.022216796875,-0.9609375,0.242431640625,6.297709923664122,-33.274809160305345,-14.419847328244275
10.02,-0.0009765625,-0.88671875,0.223876953125,5.656488549618321,-38.35114503816794,-15.931297709923664
10.03,-0.00830078125,-0.873291015625,0.260498046875,2.687022900763359,-40.7557251908397,-16.786259541984734
10.04,0.002197265625,-0.88720703125,0.25537109375,3.2519083969465647,-39.85496183206107,-15.908396946564885
10.05,-0.03515625,-0.90234375,0.303955078125,3.4885496183206106,-42.49618320610687,-14.030534351145038
10.06,-0.009521484375,-0.9423828125,0.342529296875,1.6641221374045803,-44.25954198473283,-9.946564885496183
10.07,0.089111328125,-1.003173828125,0.38818359375,-0.45038167938931295,-44.01526717557252,-2.9160305343511452
10.08,0.20703125,-1.060546875,0.4599609375,-2.0916030534351147,-38.786259541984734,5.427480916030534
10.09,0.2734375,-1.154052734375,0.612060546875,-5.480916030534351,-28.17557251908397,11.755725190839694
10.1,0.404541015625,-1.341552734375,0.768798828125,-4.33587786259542,-17.27480916030534,22.30534351145038
10.11,0.544677734375,-1.528076171875,0.878662109375,3.6564885496183206,-9.236641221374045,29.00763358778626
10.12,0.83837890625,-1.55419921875,1.01220703125,7.145038167938932,16.48854961832061,28.82442748091603
10.13,0.8525390625,-1.37060546875,0.94287109375,7.465648854961832,30.17557251908397,18.3206106870229
10.14,0.5927734375,-1.126953125,0.713134765625,10.801526717557252,39.343511450381676,1.9541984732824427
10.15,0.264892578125,-1.07421875,0.506103515625,13.282442748091603,32.47328244274809,-12.030534351145038
10.16,0.100341796875,-1.0908203125,0.3662109375,17.49618320610687,21.114503816793892,-25.51145038167939
10.17,-0.049560546875,-1.04052734375,0.338623046875,17.3206106870229,12.419847328244275,-34.19083969465649
10.18,-0.14794921875,-0.989501953125,0.356689453125,13.954198473282442,0.022900763358778626,-34.37404580152672
10.19,-0.181884765625,-0.948974609375,0.370361328125,13.366412213740459,-8.297709923664122,-29.6793893129771
10.2,-0.171630859375,-0.921630859375,0.396484375,12.732824427480915,-14.633587786259541,-21.801526717557252
10.21,-0.138671875,-0.886962890625,0.36376953125,14.320610687022901,-21.00763358778626,-12.931297709923664
10.22,-0.013916015625,-0.82861328125,0.380859375,15.16793893129771,-22.946564885496183,-5.412213740458015
10.23,0.106201171875,-0.79248046875,0.447998046875,15.511450381679388,-21.83206106870229,-1.8244274809160306
10.24,0.2216796875,-0.80615234375,0.530029296875,12.82442748091603,-19.366412213740457,3.1297709923664123
10.25,0.29931640625,-0.8291015625,0.54150390625,10.687022900763358,-12.786259541984732,3.687022900763359
10.26,0.357421875,-0.831298828125,0.5478515625,7.526717557251908,-7.038167938931298,2.3587786259541983
10.27,0.38232421875,-0.828369140625,0.56201171875,4.9465648854961835,-3.763358778625954,0.37404580152671757
10.28,0.403564453125,-0.80859375,0.572265625,4.648854961832061,3.427480916030534,-2.648854961832061
10.29,0.389892578125,-0.78662109375,0.5810546875,3.7022900763358777,6.251908396946565,-5.755725190839694
10.3,0.372802734375,-0.799072265625,0.56982421875,2.16793893129771,9.572519083969466,-8.267175572519085
10.31,0.286376953125,-0.798095703125,0.542236328125,1.1145038167938932,9.740458015267176,-9.748091603053435
10.32,0.241455078125,-0.812744140625,0.53857421875,0.42748091603053434,10.473282442748092,-10.213740458015268
10.33,0.19677734375,-0.7939453125,0.552001953125,-0.8320610687022901,9.038167938931299,-10.50381679389313
10.34,0.157958984375,-0.786376953125,0.567138671875,-2.5419847328244276,6.862595419847328,-10.412213740458014
10.35,0.152099609375,-0.765869140625,0.578369140625,-4.8320610687022905,7.679389312977099,-9.992366412213741
10.36,0.131591796875,-0.753173828125,0.57568359375,-4.526717557251908,4.312977099236641,-8.816793893129772
10.37,0.134033203125,-0.73828125,0.568359375,-3.6717557251908395,4.0,-7.923664122137405
10.38,0.15966796875,-0.72119140625,0.568359375,-2.9923664122137406,4.305343511450381,-7.458015267175573
10.39,0.173095703125,-0.726806640625,0.556396484375,-2.1755725190839694,5.587786259541985,-6.938931297709924
10.4,0.173583984375,-0.7607421875,0.560302734375,-0.03816793893129771,5.244274809160306,-6.297709923664122
10.41,0.19677734375,-0.795166015625,0.5654296875,-2.3587786259541983,5.732824427480916,-5.152671755725191
10.42,0.20849609375,-0.838134765625,0.5615234375,-2.4427480916030535,5.694656488549619,-4.114503816793893
10.43,0.217041015625,-0.8779296875,0.55810546875,-2.549618320610687,5.709923664122138,-3.183206106870229
10.44,0.2119140625,-0.912353515625,0.56396484375,-2.6717557251908395,5.717557251908397,-2.2977099236641223
10.45,0.195556640625,-0.931884765625,0.53173828125,-1.7251908396946565,4.778625954198473,-1.8015267175572518
10.46,0.177490234375,-0.9072265625,0.535400390625,-1.4351145038167938,4.236641221374046,-1.6412213740458015
10.47,0.15087890625,-0.894287109375,0.53076171875,-1.4580152671755726,2.7557251908396947,-1.465648854961832
10.48,0.137939453125,-0.88916015625,0.536865234375,-2.015267175572519,1.2748091603053435,-0.6183206106870229
10.49,0.1708984375,-0.904296875,0.537109375,-1.786259541984733,1.1603053435114503,1.0610687022900764
10.5,0.190673828125,-0.9091796875,0.552490234375,-1.3511450381679388,1.8625954198473282,2.3587786259541983
10.51,0.22265625,-0.920166015625,0.55615234375,-1.633587786259542,1.9312977099236641,3.1908396946564888
10.52,0.22021484375,-0.92431640625,0.552490234375,-0.7557251908396947,2.3206106870229006,3.763358778625954
10.53,0.220458984375,-0.93359375,0.53955078125,0.2748091603053435,2.030534351145038,4.091603053435114
10.54,0.2197265625,-0.9365234375,0.52880859375,1.3053435114503817,1.83206106870229,4.32824427480916
10.55,0.216064453125,-0.93310546875,0.523193359375,2.030534351145038,2.6106870229007635,4.213740458015267
10.56,0.210693359375,-0.918212890625,0.51220703125,2.427480916030534,2.854961832061069,4.213740458015267
10.57,0.20166015625,-0.90087890625,0.5029296875,1.9618320610687023,3.122137404580153,3.9389312977099236
10.58,0.197998046875,-0.89697265625,0.47705078125,2.0916030534351147,2.9389312977099236,3.49618320610687
10.59,0.203369140625,-0.89697265625,0.470703125,2.4198473282442747,2.732824427480916,3.0610687022900764
10.6,0.21435546875,-0.89794921875,0.46826171875,2.16793893129771,2.83206106870229,2.648854961832061
10.61,0.222900390625,-0.893310546875,0.464599609375,1.5190839694656488,2.7709923664122136,2.66412213740458
10.62,0.225341796875,-0.87353515625,0.455810546875,1.450381679389313,2.9770992366412212,2.549618320610687
10.63,0.234130859375,-0.86328125,0.4599609375,0.9083969465648855,3.1297709923664123,3.366412213740458
10.64,0.248046875,-0.852294921875,0.431396484375,1.534351145038168,4.595419847328245,4.022900763358779
10.65,0.20458984375,-0.829833984375,0.43994140625,0.10687022900763359,3.687022900763359,4.8396946564885495
10.66,0.221923828125,-0.854736328125,0.432373046875,-0.1297709923664122,4.572519083969466,5.740458015267175
10.67,0.214111328125,-0.85693359375,0.43212890625,-0.1984732824427481,4.748091603053435,6.366412213740458
10.68,0.226806640625,-0.855224609375,0.43017578125,-0.26717557251908397,5.022900763358779,7.022900763358779
10.69,0.229736328125,-0.864990234375,0.44384765625,-0.8702290076335878,4.893129770992366,7.557251908396947
10.7,0.243896484375,-0.85546875,0.420166015625,-1.816793893129771,5.473282442748092,6.0
10.71,0.24169921875,-0.863525390625,0.427978515625,-2.8702290076335877,5.893129770992366,8.145038167938932
10.72,0.24169921875,-0.844482421875,0.412353515625,-3.564885496183206,6.717557251908397,8.427480916030534
10.73,0.24658203125,-0.856201171875,0.419921875,-4.374045801526718,7.297709923664122,8.679389312977099
10.74,0.25048828125,-0.84912109375,0.3974609375,-5.091603053435114,8.16793893129771,9.068702290076336
10.75,0.25830078125,-0.85400390625,0.4052734375,-3.9770992366412212,8.84732824427481,9.221374045801527
10.76,0.2548828125,-0.85302734375,0.39208984375,-7.67175572519084,9.595419847328245,7.847328244274809
10.77,0.254638671875,-0.873046875,0.38330078125,-9.305343511450381,10.51908396946565,11.381679389312977
10.78,0.251708984375,-0.869384765625,0.374267578125,-10.083969465648854,11.488549618320612,12.908396946564885
10.79,0.255859375,-0.871337890625,0.3623046875,-11.374045801526718,13.061068702290076,14.564885496183207
10.8,0.243896484375,-0.86572265625,0.3740234375,-12.549618320610687,14.458015267175572,16.564885496183205
10.81,0.240234375,-0.86328125,0.32861328125,-13.312977099236642,16.114503816793892,17.946564885496183
10.82,0.2392578125,-0.862060546875,0.334716796875,-14.183206106870228,18.549618320610687,19.633587786259543
10.83,0.236328125,-0.855712890625,0.328857421875,-15.51908396946565,21.00763358778626,20.87786259541985
10.84,0.2646484375,-0.83837890625,0.33154296875,-18.740458015267176,24.099236641221374,21.49618320610687
10.85,0.28515625,-0.828857421875,0.294677734375,-23.328244274809162,27.763358778625953,21.801526717557252
10.86,0.302490234375,-0.8076171875,0.27197265625,-25.740458015267176,30.893129770992367,22.38167938931298
10.87,0.3125,-0.78857421875,0.26025390625,-25.27480916030534,33.969465648854964,22.16793893129771
10.88,0.3056640625,-0.77001953125,0.2548828125,-22.770992366412212,35.63358778625954,22.85496183206107
10.89,0.3271484375,-0.734130859375,0.239990234375,-18.625954198473284,41.38931297709924,23.9618320610687
10.9,0.354248046875,-0.723876953125,0.21728515625,-16.244274809160306,45.83206106870229,24.091603053435115
10.91,0.382568359375,-0.779052734375,0.244384765625,-14.778625954198473,46.93893129770992,22.022900763358777
10.92,0.43505859375,-0.969970703125,0.36279296875,-11.763358778625955,51.35114503816794,12.786259541984732
10.93,0.3154296875,-1.2236328125,0.63037109375,-2.885496183206107,38.725190839694655,-4.091603053435114
10.94,0.082763671875,-1.6328125,0.9443359375,9.34351145038168,24.396946564885496,-23.946564885496183
10.95,-0.572021484375,-1.766357421875,1.174560546875,-2.7709923664122136,13.259541984732824,-38.45038167938932
10.96,-1.12353515625,-1.681396484375,1.125244140625,-13.793893129770993,-5.702290076335878,-40.43511450381679
10.97,-1.01513671875,-1.2705078125,0.752685546875,-7.801526717557252,-8.557251908396946,-30.66412213740458
10.98,-0.576171875,-0.854248046875,0.41796875,-2.0763358778625953,-15.045801526717558,-16.282442748091604
10.99,-0.24755859375,-0.6796875,0.309814453125,4.1603053435114505,-29.801526717557252,-3.2290076335877864
11.0,0.0283203125,-0.84765625,0.3525390625,2.3587786259541983,-35.76335877862596,5.9465648854961835
11.01,0.208251953125,-0.976806640625,0.494873046875,-0.6183206106870229,-29.52671755725191,14.961832061068701
11.02,0.314453125,-1.051513671875,0.531982421875,-2.0229007633587788,-17.099236641221374,17.31297709923664
11.03,0.36572265625,-1.068359375,0.54638671875,-4.33587786259542,-6.557251908396947,15.763358778625955
11.04,0.35791015625,-1.057861328125,0.50830078125,-3.7404580152671754,1.099236641221374,12.213740458015268
11.05,0.281005859375,-1.06103515625,0.504638671875,3.0763358778625953,5.916030534351145,8.641221374045802
11.06,0.108154296875,-1.02734375,0.510009765625,4.625954198473282,9.923664122137405,4.717557251908397
11.07,-0.0224609375,-1.002685546875,0.562255859375,4.793893129770993,6.404580152671755,0.9007633587786259
11.08,-0.070556640625,-1.0166015625,0.565673828125,5.366412213740458,4.32824427480916,-1.4885496183206106
11.09,-0.097412109375,-1.007080078125,0.578857421875,6.0534351145038165,2.312977099236641,-2.564885496183206
11.1,-0.1181640625,-0.976806640625,0.5908203125,4.862595419847328,-1.2061068702290076,-3.068702290076336
11.11,-0.1025390625,-0.938720703125,0.567626953125,2.3969465648854964,-4.251908396946565,-2.3053435114503817
11.12,-0.08984375,-0.88037109375,0.554931640625,-1.3435114503816794,-3.068702290076336,-1.4198473282442747
11.13,-0.0673828125,-0.8349609375,0.52197265625,-4.793893129770993,-4.709923664122138,-0.5572519083969466
11.14,-0.036865234375,-0.813232421875,0.4501953125,-3.198473282442748,-6.366412213740458,0.022900763358778626
11.15,-0.01416015625,-0.821044921875,0.445556640625,-1.6870229007633588,-6.267175572519084,0.5877862595419847
11.16,0.044189453125,-0.817138671875,0.467041015625,0.48091603053435117,-7.122137404580153,0.31297709923664124
11.17,0.051513671875,-0.81298828125,0.48974609375,-0.5267175572519084,-6.038167938931298,-0.8320610687022901
11.18,0.060791015625,-0.850341796875,0.533203125,-2.2977099236641223,-4.549618320610687,-2.427480916030534
11.19,0.011962890625,-0.85498046875,0.543212890625,-3.198473282442748,-3.763358778625954,-3.6030534351145036
11.2,-0.027587890625,-0.844970703125,0.544921875,-4.740458015267175,-4.488549618320611,-3.877862595419847
11.21,-0.068359375,-0.853759765625,0.533935546875,-4.206106870229007,-4.1603053435114505,-2.3282442748091605
11.22,-0.086181640625,-0.84912109375,0.5419921875,-3.549618320610687,-5.740458015267175,-0.5267175572519084
11.23,-0.06787109375,-0.842529296875,0.5458984375,-1.9618320610687023,-7.259541984732825,0.9465648854961832
11.24,-0.03271484375,-0.831787109375,0.5419921875,-0.8015267175572519,-7.488549618320611,1.6030534351145038
11.25,-0.00732421875,-0.839599609375,0.528564453125,-0.549618320610687,-6.9541984732824424,0.7709923664122137
11.26,0.014892578125,-0.83642578125,0.488037109375,-0.8702290076335878,-5.854961832061068,-0.9083969465648855
11.27,0.03076171875,-0.843017578125,0.455322265625,-1.1603053435114503,-4.938931297709924,-2.450381679389313
11.28,0.032470703125,-0.85888671875,0.443359375,-0.7862595419847328,-4.396946564885496,-2.0076335877862594
11.29,0.02880859375,-0.875244140625,0.430419921875,-0.7786259541984732,-1.0229007633587786,-4.6106870229007635
11.3,-0.006103515625,-0.895263671875,0.466796875,-0.11450381679389313,-4.33587786259542,-5.9465648854961835
11.31,-0.01513671875,-0.957763671875,0.4951171875,1.534351145038168,-3.519083969465649,-6.33587786259542
11.32,-0.051513671875,-0.96630859375,0.5107421875,2.099236641221374,-3.480916030534351,-5.763358778625954
11.33,-0.049072265625,-0.9423828125,0.524658203125,0.8625954198473282,-2.900763358778626,-4.122137404580153
11.34,-0.04541015625,-0.915771484375,0.498779296875,0.22900763358778625,-2.6259541984732824,-2.1526717557251906
11.35,-0.0244140625,-0.88232421875,0.46923828125,-0.030534351145038167,-2.4427480916030535,0.22900763358778625
