Time(s),AccX,AccY,AccZ,GyrX,GyrY,GyrZ
0.0,0.02294921875,-1.0,0.27294921875,-0.6717557251908397,-0.1984732824427481,-1.0763358778625953
0.01,0.02734375,-0.99072265625,0.281005859375,-0.6641221374045801,0.1984732824427481,-1.083969465648855
0.02,0.0205078125,-0.99169921875,0.270263671875,-1.0305343511450382,-0.08396946564885496,-1.1984732824427482
0.03,0.0205078125,-0.989013671875,0.280517578125,-1.3053435114503817,-0.04580152671755725,-1.1908396946564885
0.04,0.021240234375,-0.984375,0.278076171875,-1.1374045801526718,-0.04580152671755725,-0.9618320610687023
0.05,0.027099609375,-0.99365234375,0.266845703125,-1.4198473282442747,-0.26717557251908397,-1.1374045801526718
0.06,0.025390625,-0.98486328125,0.268310546875,-0.9923664122137404,0.08396946564885496,-1.2442748091603053
0.07,0.021240234375,-0.988037109375,0.271240234375,-1.0610687022900764,-0.26717557251908397,-1.183206106870229
0.08,0.027099609375,-0.989013671875,0.27587890625,-0.9770992366412213,-0.1984732824427481,-1.2900763358778626
0.09,0.02734375,-0.996826171875,0.2734375,-0.8778625954198473,0.09923664122137404,-1.0610687022900764
0.1,0.021484375,-0.99609375,0.27001953125,-1.0534351145038168,-1.9465648854961832,-0.9923664122137404
0.11,0.023681640625,-0.98876953125,0.27099609375,-0.8854961832061069,0.03816793893129771,-0.9847328244274809
0.12,0.02490234375,-0.988525390625,0.276611328125,-0.8854961832061069,0.0,-1.015267175572519
0.13,0.020263671875,-0.988525390625,0.278076171875,-1.0610687022900764,-0.061068702290076333,-1.2366412213740459
0.14,0.025390625,-0.987060546875,0.275146484375,-0.648854961832061,-0.16793893129770993,-1.0916030534351144
0.15,0.0244140625,-0.986328125,0.281005859375,-0.8473282442748091,-0.06870229007633588,-1.2900763358778626
0.16,0.021728515625,-0.99169921875,0.28564453125,-1.0458015267175573,-0.1450381679389313,-1.1450381679389312
0.17,0.02197265625,-0.985595703125,0.27880859375,-1.2595419847328244,0.08396946564885496,-1.0610687022900764
0.18,0.01953125,-0.99072265625,0.275390625,-1.083969465648855,-0.061068702290076333,-0.8015267175572519
0.19,0.018310546875,-0.99072265625,0.275634765625,-1.0305343511450382,-0.19083969465648856,-1.1526717557251909
0.2,0.0244140625,-0.98779296875,0.28662109375,-0.9007633587786259,0.0,-1.1297709923664123
0.21,0.017822265625,-0.99072265625,0.275390625,-0.9236641221374046,-0.1450381679389313,-1.1450381679389312
0.22,0.0283203125,-0.9921875,0.28076171875,-0.9541984732824428,-1.900763358778626,-1.0763358778625953
0.23,0.02392578125,-0.983154296875,0.27685546875,-1.1450381679389312,-0.24427480916030533,-1.1984732824427482
0.24,0.0283203125,-0.98681640625,0.2783203125,-1.2290076335877862,0.022900763358778626,-0.9694656488549618
0.25,0.0234375,-0.98876953125,0.28662109375,-1.16793893129771,1.9465648854961832,-1.0
0.26,0.015869140625,-0.987548828125,0.269287109375,-1.0458015267175573,-1.9541984732824427,-1.0687022900763359
0.27,0.0224609375,-0.985595703125,0.26953125,-0.7251908396946565,-0.2900763358778626,-1.0687022900763359
0.28,0.01953125,-0.99072265625,0.253173828125,-0.7709923664122137,-0.16793893129770993,-1.0687022900763359
0.29,0.02685546875,-0.98828125,0.271728515625,-0.8015267175572519,-0.32061068702290074,-1.015267175572519
0.3,0.0224609375,-0.9912109375,0.279541015625,-0.7633587786259542,-0.13740458015267176,-1.0229007633587786
0.31,0.01953125,-0.98779296875,0.269287109375,-0.9312977099236641,1.9083969465648856,-1.0381679389312977
0.32,0.024658203125,-0.98974609375,0.2783203125,-1.0076335877862594,0.04580152671755725,-1.2213740458015268
0.33,0.025390625,-0.983154296875,0.2646484375,-1.0305343511450382,0.03816793893129771,-1.2366412213740459
0.34,0.02001953125,-0.98974609375,0.26513671875,-0.9007633587786259,0.030534351145038167,-1.1755725190839694
0.35,0.006103515625,-0.995849609375,0.276611328125,-1.0763358778625953,-0.12213740458015267,-1.0458015267175573
0.36,0.02734375,-0.990478515625,0.27978515625,-1.0763358778625953,-0.2748091603053435,-1.0458015267175573
0.37,0.021240234375,-0.999755859375,0.27685546875,-0.7251908396946565,-0.15267175572519084,-1.0
0.38,0.02734375,-0.98193359375,0.279541015625,-0.8702290076335878,-0.015267175572519083,-1.1526717557251909
0.39,0.0234375,-0.986083984375,0.26953125,-0.7480916030534351,0.11450381679389313,-0.9465648854961832
0.4,0.024658203125,-0.991455078125,0.282958984375,-0.9770992366412213,0.03816793893129771,-1.1526717557251909
0.41,0.029052734375,-0.98681640625,0.27783203125,-1.16793893129771,1.9465648854961832,-1.0076335877862594
0.42,0.0244140625,-0.991455078125,0.268310546875,-1.1603053435114503,-0.10687022900763359,-1.099236641221374
0.43,0.02490234375,-0.998779296875,0.27197265625,-1.0610687022900764,-0.1450381679389313,-1.1450381679389312
0.44,0.025390625,-0.989501953125,0.271484375,-1.1526717557251909,-0.183206106870229,-1.1526717557251909
0.45,0.0224609375,-0.98681640625,0.276611328125,-0.7557251908396947,-1.9541984732824427,-1.083969465648855
0.46,0.0244140625,-0.998779296875,0.275634765625,-0.9847328244274809,-0.08396946564885496,-1.0305343511450382
0.47,0.023193359375,-0.991455078125,0.27783203125,-1.0229007633587786,-0.10687022900763359,-1.1603053435114503
0.48,0.029052734375,-0.989990234375,0.2783203125,-1.083969465648855,1.9236641221374047,-1.1755725190839694
0.49,0.0224609375,-0.989013671875,0.278076171875,-1.4427480916030535,-0.08396946564885496,-0.9694656488549618
0.5,0.0234375,-0.9892578125,0.2705078125,-0.9389312977099237,-0.21374045801526717,-1.0916030534351144
0.51,0.021484375,-1.0,0.272216796875,-0.7404580152671756,-1.9465648854961832,-0.9770992366412213
0.52,0.0244140625,-0.98974609375,0.27490234375,-0.7404580152671756,-0.04580152671755725,-1.083969465648855
0.53,0.025634765625,-0.991943359375,0.26611328125,-0.8778625954198473,-0.04580152671755725,-1.083969465648855
0.54,0.029052734375,-0.995361328125,0.276123046875,-1.1145038167938932,1.900763358778626,-1.0610687022900764
0.55,0.024169921875,-0.99365234375,0.287353515625,-1.1221374045801527,0.04580152671755725,-1.0305343511450382
0.56,0.02490234375,-0.989013671875,0.275634765625,-1.2442748091603053,0.03816793893129771,-0.9618320610687023
0.57,0.018798828125,-0.9892578125,0.273681640625,-0.6183206106870229,0.04580152671755725,-1.213740458015267
0.58,0.026123046875,-0.987548828125,0.269775390625,-0.7786259541984732,-0.08396946564885496,-1.0229007633587786
0.59,0.0302734375,-0.991455078125,0.27783203125,-0.9694656488549618,-0.0916030534351145,-1.1526717557251909
0.6,0.02783203125,-0.98974609375,0.287841796875,-0.7862595419847328,0.061068702290076333,-1.0458015267175573
0.61,0.025146484375,-0.990478515625,0.295654296875,-0.9389312977099237,-0.06870229007633588,-1.213740458015267
0.62,0.013916015625,-0.98583984375,0.279541015625,-1.1603053435114503,1.8854961832061068,-1.1908396946564885
0.63,0.028076171875,-0.9833984375,0.273193359375,-1.3511450381679388,-0.12213740458015267,-1.2671755725190839
0.64,0.020263671875,-0.99267578125,0.2705078125,-0.9389312977099237,-0.20610687022900764,-1.099236641221374
0.65,0.021484375,-0.989501953125,0.26953125,-0.7862595419847328,-0.11450381679389313,-1.1068702290076335
0.66,0.028564453125,-0.990478515625,0.278076171875,-0.6793893129770993,1.900763358778626,-1.0229007633587786
0.67,0.024658203125,-0.985595703125,0.27685546875,-0.9694656488549618,-0.09923664122137404,-1.1755725190839694
0.68,0.017578125,-0.99169921875,0.269775390625,-0.9541984732824428,0.0916030534351145,-0.9847328244274809
0.69,0.026123046875,-0.988525390625,0.27490234375,-1.1297709923664123,-0.1984732824427481,-0.9923664122137404
0.7,0.019775390625,-0.991455078125,0.273193359375,-1.2442748091603053,-0.061068702290076333,-0.8702290076335878
0.71,0.024169921875,-0.99609375,0.2724609375,-1.4045801526717556,-1.083969465648855,-1.0534351145038168
0.72,0.03076171875,-0.97607421875,0.273681640625,-0.7404580152671756,-0.1984732824427481,-1.015267175572519
0.73,0.015869140625,-0.987060546875,0.27685546875,-0.6870229007633588,-0.7862595419847328,-1.0534351145038168
0.74,0.0244140625,-0.986083984375,0.266845703125,-0.5801526717557252,-0.10687022900763359,-0.9847328244274809
0.75,0.017333984375,-0.986572265625,0.282470703125,-0.6030534351145038,0.1297709923664122,-1.1221374045801527
0.76,0.02294921875,-0.990966796875,0.2841796875,-1.1603053435114503,0.2748091603053435,-1.0229007633587786
0.77,0.024169921875,-0.989013671875,0.26708984375,-1.1603053435114503,-0.11450381679389313,-1.0763358778625953
0.78,0.024658203125,-0.98681640625,0.26904296875,-1.2900763358778626,-0.007633587786259542,-1.2748091603053435
0.79,0.026611328125,-0.9921875,0.277587890625,-1.5267175572519085,-0.07633587786259542,-1.0458015267175573
0.8,0.02490234375,-0.986328125,0.271484375,-0.8091603053435115,-0.19083969465648856,-1.2366412213740459
0.81,0.021484375,-0.987060546875,0.285400390625,-0.6946564885496184,-0.16030534351145037,-1.0763358778625953
0.82,0.02880859375,-0.987060546875,0.27490234375,-1.1603053435114503,-0.022900763358778626,-1.1221374045801527
0.83,0.02099609375,-0.986572265625,0.284912109375,-0.9236641221374046,1.9312977099236641,-1.1984732824427482
0.84,0.01611328125,-0.988037109375,0.274169921875,-0.8702290076335878,1.9389312977099236,-1.0458015267175573
0.85,0.02734375,-0.9912109375,0.274169921875,-1.3587786259541985,-0.2748091603053435,-1.2748091603053435
0.86,0.0283203125,-0.98583984375,0.268798828125,-1.213740458015267,-0.10687022900763359,-0.9923664122137404
0.87,0.02197265625,-0.98974609375,0.278564453125,-0.6564885496183206,1.8625954198473282,-0.9541984732824428
0.88,0.02099609375,-0.988037109375,0.268310546875,-0.8931297709923665,-0.22900763358778625,-0.9847328244274809
0.89,0.022216796875,-0.98779296875,0.271728515625,-0.8396946564885496,-1.9465648854961832,-1.099236641221374
0.9,0.01953125,-0.987548828125,0.27978515625,-0.6641221374045801,-0.0916030534351145,-1.0458015267175573
0.91,0.022705078125,-0.992919921875,0.276611328125,-0.816793893129771,0.022900763358778626,-1.1068702290076335
0.92,0.02197265625,-0.9892578125,0.27978515625,-1.2061068702290076,-0.061068702290076333,-1.0610687022900764
0.93,0.023193359375,-0.991943359375,0.27197265625,-1.3358778625954197,-0.08396946564885496,-1.1526717557251909
0.94,0.025146484375,-0.992919921875,0.279296875,-1.297709923664122,-0.10687022900763359,-1.1068702290076335
0.95,0.0224609375,-0.988525390625,0.2724609375,-0.9465648854961832,-1.9465648854961832,-1.2061068702290076
0.96,0.019287109375,-0.990966796875,0.2724609375,-0.9923664122137404,1.9236641221374047,-1.1908396946564885
0.97,0.020751953125,-0.9912109375,0.270751953125,-0.7022900763358778,-0.05343511450381679,-1.0305343511450382
0.98,0.023681640625,-0.986328125,0.27783203125,-0.7557251908396947,-0.015267175572519083,-1.0610687022900764
0.99,0.025634765625,-0.98876953125,0.2783203125,-1.0534351145038168,0.10687022900763359,-1.2290076335877862
1.0,0.020263671875,-0.98681640625,0.279541015625,-0.9694656488549618,-0.22137404580152673,-1.1068702290076335
1.01,0.024658203125,-0.986328125,0.280029296875,-0.9465648854961832,0.1450381679389313,-1.0534351145038168
1.02,0.020263671875,-0.989990234375,0.27880859375,-0.9923664122137404,0.11450381679389313,-1.0610687022900764
1.03,0.016357421875,-0.9892578125,0.27685546875,-0.9312977099236641,-0.061068702290076333,-0.9847328244274809
1.04,0.025634765625,-0.990966796875,0.274169921875,-0.8396946564885496,-0.12213740458015267,-1.0076335877862594
1.05,0.02099609375,-0.988525390625,0.272216796875,-0.9236641221374046,1.9083969465648856,-1.1984732824427482
1.06,0.026123046875,-0.987548828125,0.280029296875,-1.0229007633587786,1.900763358778626,-1.1908396946564885
1.07,0.02490234375,-0.987548828125,0.27197265625,-1.2290076335877862,-0.061068702290076333,-1.0687022900763359
1.08,0.018798828125,-0.992919921875,0.274658203125,-1.1603053435114503,0.04580152671755725,-1.1145038167938932
1.09,0.014892578125,-0.992431640625,0.26318359375,-1.099236641221374,-0.24427480916030533,-1.2213740458015268
1.1,0.01953125,-0.99072265625,0.270263671875,-1.1068702290076335,-0.015267175572519083,-1.099236641221374
1.11,0.025146484375,-0.988525390625,0.273193359375,-0.7862595419847328,-1.9541984732824427,-1.1297709923664123
1.12,0.0048828125,-0.9873046875,0.275634765625,-0.8625954198473282,-0.030534351145038167,-1.2671755725190839
1.13,0.026123046875,-0.9765625,0.274169921875,-0.6717557251908397,-0.1297709923664122,-1.0763358778625953
1.14,0.026611328125,-0.9892578125,0.26611328125,-0.8625954198473282,0.06870229007633588,-1.2366412213740459
1.15,0.033447265625,-0.9794921875,0.27734375,-1.1603053435114503,0.16030534351145037,-1.1984732824427482
1.16,0.020751953125,-0.98779296875,0.2744140625,-1.0458015267175573,0.015267175572519083,-1.0
1.17,0.022216796875,-0.984375,0.270751953125,-1.0610687022900764,1.8396946564885497,-1.16793893129771
1.18,0.018798828125,-0.985107421875,0.267333984375,-1.0076335877862594,-0.24427480916030533,-0.9007633587786259
1.19,0.0205078125,-0.99267578125,0.267578125,-0.7175572519083969,-0.22137404580152673,-1.0305343511450382
1.2,0.02001953125,-0.9912109375,0.276611328125,-0.8625954198473282,-0.19083969465648856,-1.1908396946564885
1.21,0.0224609375,-0.989990234375,0.27490234375,-0.9007633587786259,-1.9541984732824427,-0.8702290076335878
1.22,0.02001953125,-0.987060546875,0.278076171875,-0.9847328244274809,0.04580152671755725,-1.0916030534351144
1.23,0.019775390625,-0.986328125,0.279541015625,-1.1450381679389312,-0.07633587786259542,-1.099236641221374
1.24,0.02197265625,-0.990478515625,0.275634765625,-1.16793893129771,-0.21374045801526717,-1.1068702290076335
1.25,0.023193359375,-0.989501953125,0.27490234375,-1.1068702290076335,-0.15267175572519084,-1.1068702290076335
1.26,0.02099609375,-0.99072265625,0.275146484375,-1.1068702290076335,-0.25190839694656486,-1.1297709923664123
1.27,0.018310546875,-0.98876953125,0.267822265625,-1.0534351145038168,-0.12213740458015267,-1.0763358778625953
1.28,0.017578125,-0.97216796875,0.27685546875,-0.8931297709923665,0.061068702290076333,-1.0687022900763359
1.29,0.0244140625,-0.989013671875,0.29296875,-0.732824427480916,-0.030534351145038167,-1.0534351145038168
1.3,0.0234375,-0.98583984375,0.27880859375,-1.0458015267175573,0.030534351145038167,-0.9847328244274809
1.31,0.0205078125,-0.994873046875,0.275390625,-1.1297709923664123,0.19083969465648856,-1.015267175572519
1.32,0.019775390625,-0.984130859375,0.268310546875,-1.2213740458015268,-0.366412213740458,-1.1984732824427482
1.33,0.02099609375,-0.990966796875,0.27490234375,-1.1984732824427482,-0.1297709923664122,-0.9541984732824428
1.34,0.025390625,-0.9921875,0.276611328125,-1.0229007633587786,-0.20610687022900764,-0.9847328244274809
1.35,0.0234375,-0.9892578125,0.27880859375,-0.916030534351145,-0.183206106870229,-1.099236641221374
1.36,0.027099609375,-0.989990234375,0.27734375,-0.7557251908396947,0.07633587786259542,-0.9694656488549618
1.37,0.025634765625,-0.999267578125,0.27490234375,-1.1145038167938932,-0.183206106870229,-1.1145038167938932
1.38,0.02294921875,-0.991455078125,0.291748046875,-1.213740458015267,1.9389312977099236,-1.213740458015267
1.39,0.02099609375,-0.992919921875,0.25244140625,-1.1297709923664123,0.06870229007633588,-0.9541984732824428
1.4,0.023681640625,-0.9873046875,0.268310546875,-1.015267175572519,-0.16793893129770993,-0.9618320610687023
1.41,0.02685546875,-0.990966796875,0.274658203125,-0.9236641221374046,-0.21374045801526717,-1.183206106870229
1.42,0.024658203125,-0.992919921875,0.27490234375,-0.7938931297709924,-0.11450381679389313,-1.297709923664122
1.43,0.0224609375,-0.991455078125,0.28076171875,-0.9007633587786259,0.015267175572519083,-1.1145038167938932
1.44,0.01708984375,-0.991943359375,0.272705078125,-1.0381679389312977,0.03816793893129771,-0.9465648854961832
1.45,0.024658203125,-0.985107421875,0.272705078125,-1.2061068702290076,0.1297709923664122,-1.16793893129771
1.46,0.02099609375,-0.98681640625,0.2685546875,-0.9465648854961832,-0.061068702290076333,-0.9618320610687023
1.47,0.01953125,-0.99072265625,0.271484375,-1.083969465648855,-0.015267175572519083,-1.0687022900763359
1.48,0.025390625,-0.990478515625,0.2734375,-0.916030534351145,-0.04580152671755725,-1.083969465648855
1.49,0.0205078125,-0.988037109375,0.272216796875,-0.8702290076335878,-0.12213740458015267,-1.0610687022900764
1.5,0.02099609375,-0.98828125,0.27734375,-0.9694656488549618,-0.15267175572519084,-0.8931297709923665
1.51,0.028564453125,-0.992919921875,0.270751953125,-0.9465648854961832,-1.9541984732824427,-0.9923664122137404
1.52,0.0224609375,-0.990966796875,0.276123046875,-0.9312977099236641,-0.13740458015267176,-1.2290076335877862
1.53,0.02001953125,-0.98486328125,0.277099609375,-1.183206106870229,-0.022900763358778626,-1.1526717557251909
1.54,0.023193359375,-0.988525390625,0.268310546875,-1.16793893129771,0.22137404580152673,-1.1221374045801527
1.55,0.018310546875,-0.988037109375,0.271240234375,-1.2900763358778626,-0.25190839694656486,-1.1068702290076335
1.56,0.019775390625,-0.974609375,0.2744140625,-0.7938931297709924,-0.11450381679389313,-1.1068702290076335
1.57,0.0205078125,-0.988037109375,0.27783203125,-0.8778625954198473,0.03816793893129771,-1.2595419847328244
1.58,0.024169921875,-0.985107421875,0.2734375,-0.7938931297709924,0.22137404580152673,-1.1068702290076335
1.59,0.023193359375,-0.988525390625,0.281982421875,-1.015267175572519,0.16030534351145037,-1.0381679389312977
1.6,0.023193359375,-0.98388671875,0.27197265625,-1.0687022900763359,-0.030534351145038167,-1.1297709923664123
1.61,0.026123046875,-0.988037109375,0.277099609375,-1.1374045801526718,1.9389312977099236,-1.0229007633587786
1.62,0.017822265625,-0.992919921875,0.2724609375,-1.1755725190839694,-0.05343511450381679,-1.0763358778625953
1.63,0.02490234375,-0.990966796875,0.2802734375,-0.9847328244274809,-0.2824427480916031,-1.1374045801526718
1.64,0.022216796875,-0.989013671875,0.272705078125,-1.0534351145038168,0.10687022900763359,-1.1068702290076335
1.65,0.014404296875,-0.989013671875,0.275634765625,-0.916030534351145,-0.1450381679389313,-1.1526717557251909
1.66,0.02392578125,-0.988525390625,0.28076171875,-0.9770992366412213,-0.10687022900763359,-0.9694656488549618
1.67,0.029541015625,-0.98486328125,0.271240234375,-0.9236641221374046,0.007633587786259542,-1.083969465648855
1.68,0.0166015625,-0.987548828125,0.27392578125,-1.0076335877862594,-0.08396946564885496,-1.2442748091603053
1.69,0.016357421875,-0.99169921875,0.26953125,-1.2900763358778626,0.22900763358778625,-1.2671755725190839
1.7,0.0244140625,-0.9853515625,0.267333984375,-1.083969465648855,1.8931297709923665,-1.16793893129771
1.71,0.0205078125,-0.99365234375,0.27099609375,-1.1374045801526718,-0.030534351145038167,-1.1450381679389312
1.72,0.021484375,-0.990478515625,0.266357421875,-0.8549618320610687,-0.12213740458015267,-1.0229007633587786
1.73,0.0244140625,-0.990478515625,0.27587890625,-0.9923664122137404,1.9083969465648856,-1.083969465648855
1.74,0.02392578125,-0.988037109375,0.2783203125,-0.9389312977099237,0.022900763358778626,-1.1603053435114503
1.75,0.02587890625,-0.985595703125,0.2744140625,-0.8320610687022901,0.015267175572519083,-1.16793893129771
1.76,0.021728515625,-0.989990234375,0.280029296875,-0.8778625954198473,-0.061068702290076333,-1.1450381679389312
1.77,0.024169921875,-0.98828125,0.27294921875,-0.9236641221374046,-0.03816793893129771,-0.9007633587786259
1.78,0.02587890625,-0.984130859375,0.27734375,-1.1068702290076335,-0.13740458015267176,-1.1221374045801527
1.79,0.027099609375,-0.990234375,0.277099609375,-0.9770992366412213,-0.10687022900763359,-0.9694656488549618
1.8,0.022705078125,-0.98046875,0.279541015625,-0.8931297709923665,1.916030534351145,-1.1297709923664123
1.81,0.0234375,-0.988525390625,0.28271484375,-0.9923664122137404,-0.11450381679389313,-1.0534351145038168
1.82,0.021240234375,-0.989013671875,0.278076171875,-0.9770992366412213,-0.13740458015267176,-1.0458015267175573
1.83,0.02734375,-0.984130859375,0.270751953125,-0.916030534351145,-0.12213740458015267,-1.1984732824427482
1.84,0.021484375,-0.9912109375,0.283935546875,-0.7480916030534351,-1.9389312977099236,-1.183206106870229
1.85,0.025146484375,-0.9921875,0.273193359375,-0.9694656488549618,-0.022900763358778626,-0.7251908396946565
1.86,0.023681640625,-0.99462890625,0.280029296875,-0.9007633587786259,-1.8931297709923665,-1.1297709923664123
1.87,0.023193359375,-0.987060546875,0.277587890625,-1.0381679389312977,-0.07633587786259542,-0.9847328244274809
1.88,0.0224609375,-0.9921875,0.27880859375,-0.8244274809160306,0.183206106870229,-1.0305343511450382
1.89,0.0234375,-0.985107421875,0.27197265625,-1.0,-0.12213740458015267,-0.9465648854961832
1.9,0.027587890625,-0.988037109375,0.27587890625,-1.16793893129771,-0.08396946564885496,-1.083969465648855
1.91,0.018310546875,-0.984130859375,0.275146484375,-1.1908396946564885,-0.1297709923664122,-1.282442748091603
1.92,0.020263671875,-0.986328125,0.27294921875,-1.1068702290076335,-0.16793893129770993,-1.2213740458015268
1.93,0.0224609375,-0.98876953125,0.280029296875,-1.0687022900763359,-0.15267175572519084,-1.2595419847328244
1.94,0.016845703125,-0.991943359375,0.2861328125,-1.0076335877862594,-0.21374045801526717,-1.1145038167938932
1.95,0.023193359375,-0.986572265625,0.275634765625,-1.0458015267175573,0.015267175572519083,-1.1374045801526718
1.96,0.024169921875,-0.98876953125,0.271728515625,-1.0229007633587786,0.13740458015267176,-0.9083969465648855
1.97,0.023681640625,-0.990966796875,0.274169921875,-0.8625954198473282,-0.061068702290076333,-1.1450381679389312
1.98,0.023681640625,-0.98583984375,0.276611328125,-0.9847328244274809,1.8854961832061068,-1.1221374045801527
1.99,0.024658203125,-0.992919921875,0.27587890625,-0.8854961832061069,-0.015267175572519083,-1.1984732824427482
2.0,0.02001953125,-0.98828125,0.2783203125,-0.8854961832061069,-0.15267175572519084,-1.1755725190839694
2.01,0.024169921875,-0.9873046875,0.27880859375,-0.9312977099236641,-0.06870229007633588,-1.1068702290076335
2.02,0.020263671875,-0.979248046875,0.270263671875,-1.0534351145038168,-0.030534351145038167,-1.0534351145038168
2.03,0.0244140625,-0.99462890625,0.278076171875,-1.0458015267175573,-0.06870229007633588,-1.0687022900763359
2.04,0.02197265625,-0.991455078125,0.280029296875,-0.9618320610687023,-0.17557251908396945,-1.0687022900763359
2.05,0.025390625,-0.988037109375,0.269775390625,-1.1374045801526718,-0.1297709923664122,-1.1068702290076335
2.06,0.0205078125,-0.986328125,0.271484375,-0.9389312977099237,-0.1297709923664122,-1.1450381679389312
2.07,0.0244140625,-1.0,0.274169921875,-0.9312977099236641,-0.15267175572519084,-1.183206106870229
2.08,0.020263671875,-0.988525390625,0.266357421875,-1.0305343511450382,0.25190839694656486,-1.0458015267175573
2.09,0.0244140625,-0.987060546875,0.275634765625,-0.9923664122137404,-0.1297709923664122,-1.0763358778625953
2.1,0.020263671875,-0.991943359375,0.27001953125,-0.9083969465648855,-0.1450381679389313,-1.0
2.11,0.018310546875,-0.98486328125,0.27099609375,-1.1984732824427482,0.15267175572519084,-1.0305343511450382
2.12,0.02294921875,-0.982421875,0.2734375,-0.7709923664122137,-0.022900763358778626,-1.1068702290076335
2.13,0.019287109375,-0.999755859375,0.2841796875,-0.9923664122137404,0.06870229007633588,-0.9923664122137404
2.14,0.01806640625,-0.99462890625,0.274169921875,-0.8091603053435115,-0.08396946564885496,-1.0458015267175573
2.15,0.023193359375,-0.9892578125,0.27001953125,-0.8854961832061069,-0.07633587786259542,-1.1297709923664123
2.16,0.0234375,-0.991455078125,0.271240234375,-0.7404580152671756,-0.08396946564885496,-1.2061068702290076
2.17,0.021240234375,-0.988525390625,0.26806640625,-1.16793893129771,0.19083969465648856,-1.0305343511450382
2.18,0.0263671875,-0.984619140625,0.271728515625,-1.0534351145038168,0.03816793893129771,-0.9770992366412213
2.19,0.019287109375,-0.988525390625,0.279541015625,-1.099236641221374,-0.03816793893129771,-1.1221374045801527
2.2,0.025390625,-0.990234375,0.273193359375,-0.8931297709923665,-0.08396946564885496,-1.2061068702290076
2.21,0.017822265625,-0.98779296875,0.27978515625,-1.0763358778625953,-1.9389312977099236,-1.0076335877862594
2.22,0.0224609375,-0.9873046875,0.27197265625,-0.7786259541984732,-0.061068702290076333,-1.1603053435114503
2.23,0.023193359375,-0.986572265625,0.278076171875,-0.9312977099236641,0.21374045801526717,-1.0076335877862594
2.24,0.015625,-0.992431640625,0.267578125,-0.7862595419847328,0.09923664122137404,-1.0305343511450382
2.25,0.017333984375,-0.989501953125,0.274658203125,-1.083969465648855,-0.09923664122137404,-1.2366412213740459
2.26,0.023193359375,-0.98583984375,0.26953125,-1.2290076335877862,-0.13740458015267176,-1.1984732824427482
2.27,0.023193359375,-0.986083984375,0.27783203125,-1.0229007633587786,-0.22900763358778625,-1.1374045801526718
2.28,0.023681640625,-0.990478515625,0.272216796875,-0.9541984732824428,1.900763358778626,-1.0534351145038168
2.29,0.027099609375,-0.991455078125,0.2744140625,-0.8854961832061069,-0.16793893129770993,-1.0381679389312977
2.3,0.02490234375,-0.991943359375,0.280029296875,-0.7938931297709924,-1.9312977099236641,-1.0534351145038168
2.31,0.02392578125,-0.986328125,0.274658203125,-0.9389312977099237,-0.04580152671755725,-1.1145038167938932
2.32,0.030029296875,-0.987548828125,0.276123046875,-1.0076335877862594,-0.1297709923664122,-1.2061068702290076
2.33,0.021240234375,-0.98583984375,0.25048828125,-1.0229007633587786,-0.06870229007633588,-1.2061068702290076
2.34,0.025390625,-0.9853515625,0.2705078125,-1.2900763358778626,-0.05343511450381679,-1.16793893129771
2.35,0.02685546875,-0.99560546875,0.27392578125,-1.1068702290076335,-0.08396946564885496,-1.2595419847328244
2.36,0.023193359375,-0.98486328125,0.270751953125,-0.8854961832061069,0.022900763358778626,-0.9541984732824428
2.37,0.02294921875,-0.990478515625,0.272216796875,-0.8931297709923665,0.0,-1.015267175572519
2.38,0.025634765625,-0.9814453125,0.275634765625,-0.9389312977099237,-0.007633587786259542,-1.1068702290076335
2.39,0.024658203125,-0.972412109375,0.27294921875,-1.0229007633587786,-1.9541984732824427,-1.1603053435114503
2.4,0.021484375,-0.97216796875,0.276123046875,-0.8244274809160306,0.08396946564885496,-1.0458015267175573
2.41,0.027587890625,-0.96923828125,0.27783203125,-1.0076335877862594,0.0916030534351145,-1.1221374045801527
2.42,0.02294921875,-0.99560546875,0.278076171875,-1.16793893129771,-0.22900763358778625,-1.213740458015267
2.43,0.026611328125,-0.987060546875,0.273681640625,-0.9618320610687023,-0.04580152671755725,-1.1374045801526718
2.44,0.028076171875,-0.988525390625,0.27490234375,-0.7786259541984732,-0.022900763358778626,-0.9770992366412213
2.45,0.024658203125,-0.990478515625,0.271728515625,-0.9312977099236641,0.12213740458015267,-1.1068702290076335
2.46,0.02783203125,-0.98779296875,0.283447265625,-0.9541984732824428,-0.1297709923664122,-1.1908396946564885
2.47,0.016357421875,-0.986572265625,0.266357421875,-1.0229007633587786,0.007633587786259542,-1.0534351145038168
2.48,0.024169921875,-0.984619140625,0.27783203125,-0.9541984732824428,-0.09923664122137404,-1.0534351145038168
2.49,0.021728515625,-0.987548828125,0.265869140625,-1.2213740458015268,-0.007633587786259542,-1.0381679389312977
2.5,0.019775390625,-0.984619140625,0.27685546875,-1.0076335877862594,-0.11450381679389313,-1.1297709923664123
2.51,0.01904296875,-0.988037109375,0.270263671875,-1.0610687022900764,-0.17557251908396945,-1.099236641221374
2.52,0.025146484375,-0.993896484375,0.275634765625,-1.0610687022900764,-0.1450381679389313,-1.083969465648855
2.53,0.0263671875,-0.986328125,0.268310546875,-0.9083969465648855,-0.16030534351145037,-1.0458015267175573
2.54,0.019775390625,-0.990478515625,0.27734375,-0.8320610687022901,0.015267175572519083,-1.1755725190839694
2.55,0.01953125,-0.987060546875,0.2705078125,-0.9007633587786259,-0.15267175572519084,-1.083969465648855
2.56,0.029541015625,-0.99267578125,0.285400390625,-0.9312977099236641,-0.16030534351145037,-1.083969465648855
2.57,0.025390625,-0.992431640625,0.276123046875,-0.9770992366412213,-0.12213740458015267,-0.9770992366412213
2.58,0.023681640625,-0.994140625,0.27734375,-0.9923664122137404,-0.05343511450381679,-1.1603053435114503
2.59,0.025390625,-0.98779296875,0.282958984375,-1.0763358778625953,0.03816793893129771,-1.183206106870229
2.6,0.025634765625,-0.98828125,0.2734375,-1.1526717557251909,-0.09923664122137404,-1.1297709923664123
2.61,0.0283203125,-0.993896484375,0.275634765625,-1.0,0.183206106870229,-1.16793893129771
2.62,0.017333984375,-0.989501953125,0.27099609375,-0.8625954198473282,0.15267175572519084,-1.0381679389312977
2.63,0.016845703125,-0.9873046875,0.282958984375,-0.8702290076335878,1.916030534351145,-1.1221374045801527
2.64,0.02197265625,-0.982666015625,0.272216796875,-0.8396946564885496,-0.12213740458015267,-1.1374045801526718
2.65,0.02392578125,-0.989501953125,0.2763671875,-1.0076335877862594,-0.19083969465648856,-1.16793893129771
2.66,0.02197265625,-0.98828125,0.272216796875,-0.9923664122137404,-0.16030534351145037,-1.1908396946564885
2.67,0.024658203125,-0.990478515625,0.267822265625,-1.083969465648855,-0.03816793893129771,-1.1984732824427482
2.68,0.01953125,-0.991455078125,0.27392578125,-1.1145038167938932,-0.2824427480916031,-1.2595419847328244
2.69,0.025146484375,-0.983642578125,0.2763671875,-0.9770992366412213,-0.2748091603053435,-1.0687022900763359
2.7,0.023681640625,-0.9853515625,0.273193359375,-1.0610687022900764,0.05343511450381679,-1.1297709923664123
2.71,0.027099609375,-0.989501953125,0.277099609375,-0.8625954198473282,-0.0916030534351145,-0.9618320610687023
2.72,0.02392578125,-0.991455078125,0.2734375,-0.9312977099236641,1.9465648854961832,-1.1068702290076335
2.73,0.022705078125,-0.988525390625,0.275634765625,-1.0687022900763359,-0.16030534351145037,-1.1374045801526718
2.74,0.027099609375,-0.9814453125,0.2685546875,-1.1374045801526718,-0.030534351145038167,-1.0610687022900764
2.75,0.016845703125,-0.989013671875,0.267578125,-1.1297709923664123,1.9465648854961832,-1.2290076335877862
2.76,0.02197265625,-0.99365234375,0.2724609375,-1.1068702290076335,-0.061068702290076333,-0.9694656488549618
2.77,0.0205078125,-0.986328125,0.276123046875,-0.9694656488549618,1.916030534351145,-1.2290076335877862
2.78,0.0205078125,-0.9931640625,0.275390625,-0.8015267175572519,-1.9312977099236641,-1.0610687022900764
2.79,0.025390625,-0.988525390625,0.269775390625,-0.7862595419847328,1.8854961832061068,-1.16793893129771
2.8,0.022216796875,-0.989990234375,0.276611328125,-0.9389312977099237,0.09923664122137404,-1.1374045801526718
2.81,0.0234375,-0.986083984375,0.28076171875,-1.2213740458015268,1.900763358778626,-1.0687022900763359
2.82,0.0263671875,-0.98583984375,0.270263671875,-1.3587786259541985,0.0916030534351145,-1.0229007633587786
2.83,0.024658203125,-0.98779296875,0.277587890625,-1.099236641221374,-0.22137404580152673,-0.9923664122137404
2.84,0.022216796875,-0.98828125,0.275390625,-1.0458015267175573,-0.1297709923664122,-1.2748091603053435
2.85,0.0234375,-0.987548828125,0.26220703125,-1.1145038167938932,-0.10687022900763359,-1.0916030534351144
2.86,0.021240234375,-0.984619140625,0.276611328125,-0.9236641221374046,0.06870229007633588,-1.0534351145038168
2.87,0.017822265625,-0.990478515625,0.272216796875,-0.8702290076335878,-0.061068702290076333,-1.0229007633587786
2.88,0.02490234375,-0.9873046875,0.278564453125,-0.9923664122137404,-1.9465648854961832,-1.16793893129771
2.89,0.0244140625,-0.987060546875,0.27783203125,-1.16793893129771,-1.9389312977099236,-1.0610687022900764
2.9,0.02587890625,-0.991455078125,0.26953125,-1.0534351145038168,0.0916030534351145,-1.0381679389312977
2.91,0.020751953125,-0.994873046875,0.275634765625,-0.8396946564885496,-0.13740458015267176,-1.1068702290076335
2.92,0.01953125,-0.99267578125,0.279541015625,-0.8625954198473282,-0.10687022900763359,-1.0610687022900764
2.93,0.0234375,-0.99072265625,0.271484375,-0.9847328244274809,-0.15267175572519084,-1.083969465648855
2.94,0.025390625,-0.988037109375,0.27685546875,-0.9389312977099237,-0.030534351145038167,-1.0229007633587786
2.95,0.02099609375,-0.985107421875,0.2744140625,-0.8244274809160306,0.1297709923664122,-1.099236641221374
2.96,0.02197265625,-0.98193359375,0.26953125,-0.9847328244274809,-0.007633587786259542,-1.1145038167938932
2.97,0.023193359375,-0.987060546875,0.27978515625,-1.1221374045801527,-1.9236641221374047,-1.0763358778625953
2.98,0.0263671875,-0.98583984375,0.2724609375,-0.9694656488549618,0.03816793893129771,-1.1221374045801527
2.99,0.022705078125,-0.984619140625,0.271240234375,-0.8015267175572519,0.17557251908396945,-1.099236641221374
3.0,0.0205078125,-0.9912109375,0.27197265625,-0.8702290076335878,-0.09923664122137404,-0.9083969465648855
3.01,0.021728515625,-0.98486328125,0.26708984375,-0.9465648854961832,-0.08396946564885496,-1.0916030534351144
3.02,0.0224609375,-0.9892578125,0.27685546875,-0.8244274809160306,-0.13740458015267176,-1.1908396946564885
3.03,0.027587890625,-0.987060546875,0.2666015625,-1.3587786259541985,0.11450381679389313,-1.0076335877862594
3.04,0.028076171875,-0.987060546875,0.272705078125,-1.381679389312977,0.1984732824427481,-0.9312977099236641
3.05,0.0322265625,-0.987548828125,0.27978515625,-1.3282442748091603,-0.45038167938931295,-1.251908396946565
3.06,0.02880859375,-0.982177734375,0.28564453125,-0.7633587786259542,0.40458015267175573,-1.0610687022900764
3.07,0.008056640625,-0.990478515625,0.272216796875,-1.0687022900763359,-0.3816793893129771,-0.9770992366412213
3.08,0.02197265625,-0.98828125,0.274169921875,-0.8015267175572519,0.26717557251908397,-0.7709923664122137
3.09,0.02197265625,-0.98974609375,0.277587890625,-0.5419847328244275,0.0,-0.9847328244274809
3.1,0.020263671875,-0.97314453125,0.270263671875,-1.0534351145038168,-1.9312977099236641,-0.9465648854961832
3.11,0.019775390625,-0.9951171875,0.269287109375,-0.7480916030534351,1.9465648854961832,-1.1068702290076335
3.12,0.021240234375,-0.988525390625,0.26953125,-0.7480916030534351,-0.061068702290076333,-1.0076335877862594
3.13,0.025146484375,-0.985595703125,0.276611328125,-0.7022900763358778,0.08396946564885496,-1.213740458015267
3.14,0.018798828125,-0.991943359375,0.26708984375,-1.2366412213740459,1.9236641221374047,-1.1984732824427482
3.15,0.02734375,-0.990234375,0.274169921875,-1.4274809160305344,-0.26717557251908397,-1.1526717557251909
3.16,0.029541015625,-0.99365234375,0.282958984375,-1.916030534351145,-0.1984732824427481,-1.1374045801526718
3.17,0.0302734375,-0.97265625,0.267333984375,-1.4427480916030535,-0.3053435114503817,-1.2442748091603053
3.18,0.027099609375,-0.989013671875,0.27294921875,-0.7480916030534351,-0.3435114503816794,-0.9923664122137404
3.19,0.029052734375,-0.9921875,0.27587890625,-0.44274809160305345,0.26717557251908397,-1.0229007633587786
3.2,0.02099609375,-0.99072265625,0.28076171875,-0.32061068702290074,0.09923664122137404,-1.2442748091603053
3.21,0.027099609375,-0.987548828125,0.2744140625,-0.48854961832061067,0.2366412213740458,-1.1526717557251909
3.22,0.029296875,-0.989013671875,0.27734375,-0.9083969465648855,0.030534351145038167,-1.1908396946564885
3.23,0.014892578125,-0.982666015625,0.272216796875,-1.213740458015267,0.22137404580152673,-1.3282442748091603
3.24,0.0087890625,-0.997314453125,0.26220703125,-1.6641221374045803,-0.9465648854961832,-1.5572519083969465
3.25,0.03173828125,-0.982666015625,0.2744140625,-0.7480916030534351,0.12213740458015267,-1.2366412213740459
3.26,0.0244140625,-0.987548828125,0.275390625,-0.16793893129770993,-0.0916030534351145,-1.1221374045801527
3.27,0.024169921875,-0.999755859375,0.27001953125,-0.5954198473282443,-1.8549618320610688,-1.213740458015267
3.28,0.030517578125,-0.993408203125,0.279541015625,1.916030534351145,0.32061068702290074,-1.083969465648855
3.29,0.021728515625,-0.98974609375,0.290283203125,-0.3511450381679389,0.1984732824427481,-1.0916030534351144
3.3,0.027099609375,-0.990234375,0.270263671875,-0.8854961832061069,0.25190839694656486,-1.5038167938931297
3.31,0.00341796875,-0.982421875,0.280517578125,-2.1908396946564888,1.8091603053435115,-1.3435114503816794
3.32,0.021728515625,-0.99462890625,0.2626953125,-2.6564885496183206,-1.1603053435114503,-1.1145038167938932
3.33,0.029296875,-0.98486328125,0.267822265625,-0.6946564885496184,-0.4198473282442748,-0.9236641221374046
3.34,0.029052734375,-0.98974609375,0.288818359375,0.5954198473282443,-0.22137404580152673,-0.7709923664122137
3.35,0.0244140625,-0.97998046875,0.287353515625,0.7786259541984732,0.9312977099236641,-1.0
3.36,0.020751953125,-0.989013671875,0.28125,1.9236641221374047,0.35877862595419846,-1.1603053435114503
3.37,0.03076171875,-0.989990234375,0.28125,-1.8854961832061068,1.0458015267175573,-0.6183206106870229
3.38,0.02001953125,-0.991455078125,0.2685546875,-2.8244274809160306,-0.7786259541984732,-1.0458015267175573
3.39,0.03564453125,-0.978515625,0.27001953125,-2.2213740458015265,0.1984732824427481,-1.3206106870229009
3.4,0.015380859375,-0.991943359375,0.263671875,-1.9694656488549618,-1.1526717557251909,-1.3969465648854962
3.41,0.003662109375,-0.985595703125,0.2607421875,-1.4427480916030535,-0.31297709923664124,-1.2366412213740459
3.42,0.01806640625,-0.99755859375,0.27294921875,0.08396946564885496,-0.42748091603053434,-0.9312977099236641
3.43,0.02783203125,-0.990234375,0.294921875,0.4580152671755725,0.44274809160305345,-0.8854961832061069
3.44,0.026611328125,-0.984375,0.285888671875,0.12213740458015267,0.46564885496183206,-1.1755725190839694
3.45,0.0263671875,-0.98681640625,0.282470703125,-0.7022900763358778,0.16793893129770993,-0.9923664122137404
3.46,0.0244140625,-0.991943359375,0.279052734375,-1.8702290076335877,-0.06870229007633588,-1.1755725190839694
3.47,0.02734375,-0.99609375,0.269287109375,-3.8931297709923665,-0.3969465648854962,-1.0916030534351144
3.48,0.025390625,-0.99755859375,0.2783203125,-1.3282442748091603,-0.29770992366412213,-1.1068702290076335
3.49,0.016357421875,-0.992431640625,0.274169921875,-0.7786259541984732,-0.5038167938931297,-0.9541984732824428
3.5,0.021484375,-0.986328125,0.27978515625,-0.3053435114503817,0.07633587786259542,-1.0381679389312977
3.51,0.02294921875,-0.990234375,0.267333984375,-0.42748091603053434,0.015267175572519083,-0.916030534351145
3.52,0.020751953125,-0.98291015625,0.279541015625,-1.0534351145038168,0.33587786259541985,-1.1526717557251909
3.53,0.020263671875,-0.99658203125,0.272216796875,-1.900763358778626,0.022900763358778626,-1.3053435114503817
3.54,0.026611328125,-0.987060546875,0.26904296875,-2.099236641221374,-0.09923664122137404,-1.2748091603053435
3.55,0.027099609375,-0.9853515625,0.265869140625,-1.4885496183206106,-0.2748091603053435,-1.2290076335877862
3.56,0.025634765625,-0.9833984375,0.26953125,-0.916030534351145,-0.2595419847328244,-1.0458015267175573
3.57,0.0205078125,-0.992919921875,0.26953125,-0.3511450381679389,-0.06870229007633588,-1.0381679389312977
3.58,0.019775390625,-0.98876953125,0.279052734375,-0.26717557251908397,0.07633587786259542,-0.916030534351145
3.59,0.024658203125,-0.97021484375,0.283203125,-0.5877862595419847,0.16030534351145037,-1.1908396946564885
3.6,0.023193359375,-0.984619140625,0.265869140625,-0.9083969465648855,0.1984732824427481,-1.0763358778625953
3.61,0.02685546875,-0.9736328125,0.27685546875,-1.3740458015267176,0.26717557251908397,-1.297709923664122
3.62,0.01806640625,-0.987060546875,0.27490234375,-1.5419847328244274,-0.19083969465648856,-1.2748091603053435
3.63,0.02294921875,-0.9912109375,0.276123046875,-1.3511450381679388,-0.21374045801526717,-1.297709923664122
3.64,0.02392578125,-0.992431640625,0.27880859375,-0.9312977099236641,-0.366412213740458,-1.2061068702290076
3.65,0.0224609375,-0.98828125,0.27978515625,-0.7557251908396947,-0.19083969465648856,-1.015267175572519
3.66,0.02490234375,-0.98828125,0.27734375,-0.7251908396946565,0.05343511450381679,-0.9770992366412213
3.67,0.024658203125,-0.98486328125,0.272705078125,-1.2366412213740459,0.183206106870229,-1.015267175572519
3.68,0.02392578125,-0.991943359375,0.26806640625,-1.3358778625954197,0.13740458015267176,-1.1297709923664123
3.69,0.02197265625,-0.98779296875,0.280517578125,-1.4580152671755726,0.17557251908396945,-0.8473282442748091
3.7,0.02490234375,-0.990234375,0.266357421875,-0.9847328244274809,-0.061068702290076333,-0.9694656488549618
3.71,0.0244140625,-0.98779296875,0.278564453125,-0.8625954198473282,-0.40458015267175573,-1.0534351145038168
3.72,0.01953125,-0.9892578125,0.27734375,-0.6870229007633588,-0.061068702290076333,-1.1068702290076335
3.73,0.021484375,-0.9892578125,0.283447265625,-0.6564885496183206,-0.1450381679389313,-0.9541984732824428
3.74,0.025634765625,-0.98876953125,0.287841796875,-0.8931297709923665,0.20610687022900764,-1.0916030534351144
3.75,0.02197265625,-0.988525390625,0.281982421875,-1.3358778625954197,-0.10687022900763359,-1.2442748091603053
3.76,0.026123046875,-0.9873046875,0.27294921875,-1.5419847328244274,-1.9465648854961832,-1.1908396946564885
3.77,0.01611328125,-0.98779296875,0.275634765625,-1.251908396946565,-0.11450381679389313,-1.1908396946564885
3.78,0.00146484375,-0.989501953125,0.266357421875,-1.1526717557251909,-0.1297709923664122,-1.1984732824427482
3.79,0.023681640625,-0.990234375,0.268798828125,-0.9389312977099237,-0.16793893129770993,-0.9770992366412213
3.8,0.028076171875,-0.98193359375,0.273193359375,-0.9083969465648855,0.030534351145038167,-0.9847328244274809
3.81,0.027587890625,-0.986328125,0.273681640625,-0.8549618320610687,-0.17557251908396945,-1.0687022900763359
3.82,0.0244140625,-0.988525390625,0.28125,-1.1068702290076335,0.1297709923664122,-1.1603053435114503
3.83,0.023681640625,-0.990478515625,0.27880859375,-1.1145038167938932,-1.8854961832061068,-1.1450381679389312
3.84,0.03076171875,-0.9892578125,0.268310546875,-0.9541984732824428,0.09923664122137404,-1.0305343511450382
3.85,0.0224609375,-0.992431640625,0.275146484375,-0.916030534351145,-0.2366412213740458,-1.1068702290076335
3.86,0.02294921875,-0.9755859375,0.27685546875,-0.5801526717557252,-0.030534351145038167,-1.2213740458015268
3.87,0.018798828125,-0.9921875,0.273193359375,-0.6870229007633588,0.05343511450381679,-1.0534351145038168
3.88,0.02197265625,-0.986572265625,0.281494140625,-0.8854961832061069,0.061068702290076333,-1.1526717557251909
3.89,0.02197265625,-0.989501953125,0.27734375,-1.2900763358778626,0.022900763358778626,-1.282442748091603
3.9,0.01904296875,-0.984375,0.273193359375,-1.297709923664122,-0.015267175572519083,-0.9465648854961832
3.91,0.017333984375,-0.990478515625,0.275146484375,-1.282442748091603,-0.06870229007633588,-1.1145038167938932
3.92,0.01953125,-0.99072265625,0.272216796875,-1.1374045801526718,-0.15267175572519084,-1.083969465648855
3.93,0.02197265625,-0.990478515625,0.27099609375,-0.9465648854961832,0.030534351145038167,-0.9923664122137404
3.94,0.02490234375,-0.99169921875,0.276611328125,-0.5954198473282443,0.15267175572519084,-0.9847328244274809
3.95,0.02880859375,-0.991943359375,0.27490234375,-0.5801526717557252,-0.04580152671755725,-1.099236641221374
3.96,0.02490234375,-0.98583984375,0.291748046875,-0.7557251908396947,-0.1297709923664122,-1.0763358778625953
3.97,0.023681640625,-0.99560546875,0.270263671875,-1.0229007633587786,-0.1450381679389313,-1.083969465648855
3.98,0.024658203125,-0.978759765625,0.2734375,-1.0916030534351144,1.9236641221374047,-1.2061068702290076
3.99,0.021240234375,-0.986328125,0.27783203125,-1.1984732824427482,-0.061068702290076333,-1.1450381679389312
4.0,0.02392578125,-0.989013671875,0.262451171875,-1.3206106870229009,-0.1450381679389313,-1.083969465648855
4.01,0.025634765625,-0.990234375,0.271240234375,-1.3435114503816794,0.022900763358778626,-0.7938931297709924
4.02,0.0224609375,-0.98876953125,0.271484375,-0.916030534351145,1.9236641221374047,-0.916030534351145
4.03,0.02001953125,-0.997314453125,0.279541015625,-0.8015267175572519,0.061068702290076333,-0.9465648854961832
4.04,0.021728515625,-0.970703125,0.271728515625,-0.8778625954198473,0.17557251908396945,-1.1068702290076335
4.05,0.020751953125,-0.99951171875,0.278076171875,-0.8473282442748091,-0.16030534351145037,-1.251908396946565
4.06,0.0205078125,-0.987548828125,0.27490234375,-0.8702290076335878,-0.19083969465648856,-1.0763358778625953
4.07,0.0263671875,-0.99609375,0.281982421875,-0.9312977099236641,0.10687022900763359,-1.0687022900763359
4.08,0.0205078125,-0.989013671875,0.28564453125,-0.9541984732824428,0.16030534351145037,-0.8702290076335878
4.09,0.015869140625,-0.986328125,0.272216796875,-1.0076335877862594,0.061068702290076333,-1.16793893129771
4.1,0.022216796875,-0.98974609375,0.264892578125,-1.3511450381679388,-0.20610687022900764,-1.2671755725190839
4.11,0.017578125,-0.98681640625,0.273193359375,-1.297709923664122,-0.11450381679389313,-1.16793893129771
4.12,0.02587890625,-0.997314453125,0.27783203125,-1.0305343511450382,-0.08396946564885496,-1.1068702290076335
4.13,0.026123046875,-0.992919921875,0.277099609375,-0.8549618320610687,0.12213740458015267,-1.0687022900763359
4.14,0.0234375,-0.98681640625,0.2822265625,-0.8702290076335878,0.19083969465648856,-1.0458015267175573
4.15,0.022216796875,-0.984375,0.271728515625,-1.0534351145038168,-0.03816793893129771,-1.0763358778625953
4.16,0.021240234375,-0.9853515625,0.271240234375,-1.0610687022900764,-0.1984732824427481,-1.0610687022900764
4.17,0.026123046875,-0.989501953125,0.27587890625,-0.7404580152671756,-0.1450381679389313,-1.1374045801526718
4.18,0.019775390625,-0.989013671875,0.26806640625,-0.9083969465648855,0.007633587786259542,-1.1145038167938932
4.19,0.02880859375,-1.0,0.279052734375,-1.0610687022900764,0.1984732824427481,-0.9923664122137404
4.2,0.022216796875,-0.98974609375,0.271728515625,-0.8778625954198473,-0.1450381679389313,-1.16793893129771
4.21,0.02880859375,-0.98876953125,0.278076171875,-0.9847328244274809,-0.05343511450381679,-1.0687022900763359
4.22,0.025634765625,-0.971435546875,0.2724609375,-1.2366412213740459,-0.1450381679389313,-1.099236641221374
4.23,0.031005859375,-0.99365234375,0.27197265625,-1.015267175572519,-0.16793893129770993,-1.1221374045801527
4.24,0.0263671875,-0.990234375,0.26904296875,-1.1145038167938932,-0.1450381679389313,-0.916030534351145
4.25,0.021240234375,-0.98681640625,0.263427734375,-0.9618320610687023,-0.1984732824427481,-1.1374045801526718
4.26,0.02392578125,-0.987060546875,0.270263671875,-0.9770992366412213,-0.16793893129770993,-1.2061068702290076
4.27,0.02294921875,-0.98828125,0.2802734375,-0.8091603053435115,0.11450381679389313,-1.1450381679389312
4.28,0.0185546875,-0.995849609375,0.27685546875,-0.916030534351145,0.022900763358778626,-1.1221374045801527
4.29,0.020263671875,-0.98193359375,0.269287109375,-1.0687022900763359,0.1297709923664122,-1.0610687022900764
4.3,0.02001953125,-0.9853515625,0.26806640625,-1.1145038167938932,-0.17557251908396945,-1.0534351145038168
4.31,0.019287109375,-0.996337890625,0.27587890625,-1.1374045801526718,-0.25190839694656486,-1.183206106870229
4.32,0.026123046875,-0.990234375,0.27197265625,-0.9770992366412213,-1.9083969465648856,-0.9847328244274809
4.33,0.0185546875,-0.991455078125,0.2724609375,-1.0458015267175573,0.04580152671755725,-1.1603053435114503
4.34,0.026611328125,-0.99365234375,0.274658203125,-0.9618320610687023,0.0,-1.083969465648855
4.35,0.02197265625,-0.986083984375,0.2783203125,-0.9694656488549618,-1.8778625954198473,-1.0610687022900764
4.36,0.019775390625,-0.98876953125,0.277587890625,-0.8931297709923665,-0.007633587786259542,-1.1984732824427482
4.37,0.0283203125,-0.98828125,0.27587890625,-0.8778625954198473,-0.19083969465648856,-1.183206106870229
4.38,0.0224609375,-0.986083984375,0.2744140625,-1.0229007633587786,-0.10687022900763359,-1.0076335877862594
4.39,0.004150390625,-0.987548828125,0.269775390625,-0.9312977099236641,-0.15267175572519084,-1.2061068702290076
4.4,0.021240234375,-0.9892578125,0.274658203125,-0.916030534351145,-0.1450381679389313,-0.9618320610687023
4.41,0.029296875,-0.989013671875,0.27392578125,-1.0076335877862594,-0.04580152671755725,-1.0458015267175573
4.42,0.021484375,-0.9921875,0.27490234375,-0.5801526717557252,0.6793893129770993,-1.4580152671755726
4.43,0.003662109375,-0.9716796875,0.284912109375,0.13740458015267176,0.40458015267175573,-2.6564885496183206
4.44,0.005126953125,-0.975830078125,0.262939453125,-1.6106870229007633,-1.4427480916030535,-2.8091603053435112
4.45,0.03662109375,-1.004150390625,0.2607421875,-2.5267175572519083,-1.1068702290076335,-2.045801526717557
4.46,0.0283203125,-1.006103515625,0.290283203125,-1.5877862595419847,-0.732824427480916,-1.297709923664122
4.47,0.02734375,-0.995361328125,0.290771484375,-0.4732824427480916,0.3893129770992366,-0.9312977099236641
4.48,0.0234375,-0.98974609375,0.279541015625,-1.251908396946565,0.3969465648854962,-0.8854961832061069
4.49,0.02587890625,-0.98486328125,0.263916015625,-1.5801526717557253,-0.15267175572519084,-0.9923664122137404
4.5,0.028564453125,-0.9814453125,0.265869140625,-1.1145038167938932,1.9083969465648856,-1.1603053435114503
4.51,0.02294921875,-0.985107421875,0.26953125,-0.7557251908396947,-0.31297709923664124,-1.1450381679389312
4.52,0.0244140625,-0.98828125,0.26953125,-0.648854961832061,-1.8778625954198473,-1.1450381679389312
4.53,0.02880859375,-0.9931640625,0.27490234375,-0.5343511450381679,-0.12213740458015267,-0.8702290076335878
4.54,0.024658203125,-0.989501953125,0.26806640625,-0.183206106870229,1.8931297709923665,-1.0305343511450382
4.55,0.023681640625,-0.98779296875,0.277587890625,-0.5190839694656488,1.900763358778626,-1.0229007633587786
4.56,0.0263671875,-0.987060546875,0.2783203125,-0.7786259541984732,0.3053435114503817,-1.1603053435114503
4.57,0.0244140625,-0.983154296875,0.28369140625,-1.7099236641221374,0.0916030534351145,-1.1450381679389312
4.58,0.023681640625,-0.995361328125,0.27197265625,-1.3740458015267176,-0.17557251908396945,-1.213740458015267
4.59,0.030029296875,-0.98828125,0.269287109375,-1.2213740458015268,0.04580152671755725,-1.1908396946564885
4.6,0.0205078125,-0.9931640625,0.27099609375,-1.2290076335877862,-0.3053435114503817,-1.282442748091603
4.61,0.0302734375,-0.98486328125,0.26904296875,-1.099236641221374,-0.25190839694656486,-1.251908396946565
4.62,0.0224609375,-0.98876953125,0.27392578125,-1.0,0.26717557251908397,-1.1297709923664123
4.63,0.02734375,-0.992919921875,0.2783203125,-1.381679389312977,0.007633587786259542,-1.1603053435114503
4.64,0.0263671875,-0.98974609375,0.268798828125,-1.0,-1.900763358778626,-0.9770992366412213
4.65,0.025146484375,-0.9912109375,0.279052734375,-0.7175572519083969,0.1450381679389313,-0.816793893129771
4.66,0.021484375,-0.98583984375,0.27587890625,-0.648854961832061,0.0916030534351145,-0.9694656488549618
4.67,0.022216796875,-0.985595703125,0.268798828125,-0.816793893129771,0.366412213740458,-1.251908396946565
4.68,0.017822265625,-0.993896484375,0.276123046875,-0.8778625954198473,-0.31297709923664124,-1.251908396946565
4.69,0.025634765625,-0.984375,0.274169921875,-1.1603053435114503,-0.17557251908396945,-1.1145038167938932
4.7,0.015869140625,-0.994140625,0.27783203125,-1.2442748091603053,-0.15267175572519084,-1.0763358778625953
4.71,0.017822265625,-0.9873046875,0.27880859375,-1.0,0.16030534351145037,-0.9923664122137404
4.72,0.023681640625,-0.97021484375,0.27099609375,-1.0229007633587786,-0.061068702290076333,-1.1603053435114503
4.73,0.028564453125,-0.986328125,0.27587890625,-1.0916030534351144,0.022900763358778626,-1.0534351145038168
4.74,0.017822265625,-0.9951171875,0.26806640625,-1.1374045801526718,-0.21374045801526717,-1.1908396946564885
4.75,0.023681640625,-0.9951171875,0.27880859375,-0.8854961832061069,-0.05343511450381679,-1.1526717557251909
4.76,0.02734375,-0.9912109375,0.2763671875,-0.9618320610687023,1.9236641221374047,-0.9465648854961832
4.77,0.021484375,-0.989501953125,0.279296875,-0.8473282442748091,-1.9312977099236641,-0.9236641221374046
4.78,0.02001953125,-0.987548828125,0.2705078125,-0.7786259541984732,-0.10687022900763359,-1.0916030534351144
4.79,0.023681640625,-0.988525390625,0.281005859375,-0.816793893129771,0.19083969465648856,-1.0
4.8,0.0205078125,-0.989990234375,0.27734375,-1.0,1.9465648854961832,-1.1908396946564885
4.81,0.026611328125,-0.992919921875,0.28515625,-0.916030534351145,-0.16030534351145037,-1.0305343511450382
4.82,0.0234375,-0.98486328125,0.280029296875,-0.9847328244274809,-0.09923664122137404,-1.0763358778625953
4.83,0.0283203125,-0.99072265625,0.278076171875,-1.1374045801526718,-0.030534351145038167,-1.0610687022900764
4.84,0.023193359375,-0.984375,0.279052734375,-0.9465648854961832,0.20610687022900764,-1.1908396946564885
4.85,0.02001953125,-0.98779296875,0.27099609375,-1.0,-0.08396946564885496,-1.3129770992366412
4.86,0.0263671875,-0.99267578125,0.277099609375,-1.4427480916030535,-0.2900763358778626,-1.1755725190839694
4.87,0.025390625,-0.995361328125,0.267333984375,-0.9541984732824428,-0.20610687022900764,-1.16793893129771
4.88,0.025634765625,-0.998046875,0.279052734375,-0.7557251908396947,0.0916030534351145,-1.0229007633587786
4.89,0.022216796875,-0.987548828125,0.276123046875,-0.9389312977099237,0.0,-1.213740458015267
4.9,0.0234375,-0.98974609375,0.267822265625,-1.2213740458015268,-0.07633587786259542,-1.1603053435114503
4.91,0.029052734375,-0.99169921875,0.268310546875,-1.2595419847328244,-0.22900763358778625,-1.183206106870229
4.92,0.022216796875,-0.99072265625,0.278564453125,-0.9312977099236641,1.9312977099236641,-0.916030534351145
4.93,0.024169921875,-0.987548828125,0.269287109375,-0.7251908396946565,-0.015267175572519083,-0.816793893129771
4.94,0.02294921875,-0.986083984375,0.27880859375,-0.9618320610687023,0.0916030534351145,-0.8778625954198473
4.95,0.023193359375,-0.982666015625,0.27685546875,-0.8396946564885496,0.1297709923664122,-1.1374045801526718
4.96,0.031005859375,-0.98583984375,0.27685546875,-0.9541984732824428,-0.3969465648854962,-1.1526717557251909
4.97,0.022216796875,-0.98095703125,0.27294921875,-0.6641221374045801,0.42748091603053434,-1.3969465648854962
4.98,0.02392578125,-0.992431640625,0.2734375,-1.4045801526717556,-0.7022900763358778,-1.5190839694656488
4.99,0.018310546875,-0.998046875,0.27392578125,-1.366412213740458,0.10687022900763359,-0.7404580152671756
5.0,0.028076171875,-0.986083984375,0.27490234375,-0.9389312977099237,-0.06870229007633588,-0.6335877862595419
5.01,0.01806640625,-0.978515625,0.275390625,-0.44274809160305345,0.7404580152671756,-0.8931297709923665
5.02,0.025634765625,-0.976806640625,0.275146484375,-0.7709923664122137,-0.1450381679389313,-1.1526717557251909
5.03,0.023681640625,-0.985595703125,0.26708984375,-1.3053435114503817,-0.42748091603053434,-1.0916030534351144
5.04,0.025390625,-0.995361328125,0.27392578125,-0.8854961832061069,-0.4198473282442748,-1.1450381679389312
5.05,0.023193359375,-0.99169921875,0.280029296875,-0.6183206106870229,0.183206106870229,-0.9770992366412213
5.06,0.020263671875,-0.96923828125,0.27880859375,-0.7099236641221374,0.07633587786259542,-1.0076335877862594
5.07,0.021484375,-0.97998046875,0.271240234375,-1.2900763358778626,-1.900763358778626,-0.9083969465648855
5.08,0.025390625,-0.98876953125,0.275390625,-1.0916030534351144,0.16030534351145037,-1.2061068702290076
5.09,0.017578125,-0.989990234375,0.280517578125,-1.2366412213740459,-0.21374045801526717,-1.3587786259541985
5.1,0.03125,-0.988525390625,0.271240234375,-1.1374045801526718,-0.2748091603053435,-1.0076335877862594
5.11,0.025390625,-0.99365234375,0.27001953125,-1.0610687022900764,-0.15267175572519084,-0.9007633587786259
5.12,0.01806640625,-0.99609375,0.268798828125,-0.6946564885496184,-1.8625954198473282,-0.7480916030534351
5.13,0.01708984375,-0.984375,0.267333984375,-0.5267175572519084,0.2900763358778626,-0.9923664122137404
5.14,0.021728515625,-1.0,0.269287109375,-1.0076335877862594,0.183206106870229,-1.2061068702290076
5.15,0.017822265625,-0.98681640625,0.274169921875,-1.1374045801526718,-0.2748091603053435,-1.2595419847328244
5.16,0.025390625,-0.997802734375,0.271484375,-0.9770992366412213,-0.35877862595419846,-1.4198473282442747
5.17,0.02978515625,-0.99365234375,0.265625,-0.9236641221374046,-0.2748091603053435,-1.0458015267175573
5.18,0.028564453125,-0.98876953125,0.27587890625,-0.366412213740458,1.0381679389312977,-1.1984732824427482
5.19,0.011962890625,-0.986572265625,0.272705078125,-0.31297709923664124,1.8854961832061068,-0.04580152671755725
5.2,0.01416015625,-0.9775390625,0.271240234375,-1.6717557251908397,-1.1297709923664123,-2.099236641221374
5.21,0.046875,-1.005126953125,0.269287109375,-2.114503816793893,-1.8396946564885497,-1.1450381679389312
5.22,0.02099609375,-1.008544921875,0.27978515625,-0.1984732824427481,-0.2595419847328244,-0.9312977099236641
5.23,0.0224609375,-0.997802734375,0.282958984375,-0.3969465648854962,0.5801526717557252,-1.3282442748091603
5.24,0.037353515625,-0.98876953125,0.269775390625,-1.0458015267175573,-0.2824427480916031,-1.2900763358778626
5.25,0.02490234375,-0.9853515625,0.265625,-1.1984732824427482,-0.32061068702290074,-1.297709923664122
5.26,0.0205078125,-0.99462890625,0.290771484375,-1.3969465648854962,0.19083969465648856,-0.8931297709923665
5.27,0.01953125,-0.990234375,0.290771484375,-0.9236641221374046,0.22137404580152673,-1.1526717557251909
5.28,0.023681640625,-0.986328125,0.27587890625,-0.9847328244274809,0.03816793893129771,-1.1755725190839694
5.29,0.024658203125,-0.989013671875,0.27587890625,-1.3435114503816794,0.061068702290076333,-0.9770992366412213
5.3,0.021484375,-0.984375,0.272216796875,-0.8244274809160306,0.05343511450381679,-1.2366412213740459
5.31,0.02783203125,-0.98779296875,0.28564453125,-0.7251908396946565,-0.40458015267175573,-1.0916030534351144
5.32,0.016845703125,-0.98583984375,0.27734375,-0.9770992366412213,0.0916030534351145,-1.0687022900763359
5.33,0.02490234375,-0.988037109375,0.277587890625,-0.9847328244274809,1.916030534351145,-1.1374045801526718
5.34,0.02392578125,-0.98974609375,0.2666015625,-0.7022900763358778,0.1450381679389313,-1.282442748091603
5.35,0.024169921875,-0.987548828125,0.2705078125,-0.9847328244274809,-0.2748091603053435,-1.213740458015267
5.36,0.031494140625,-0.98779296875,0.271728515625,-1.3206106870229009,-0.20610687022900764,-1.213740458015267
5.37,0.02880859375,-0.99658203125,0.278076171875,-1.1450381679389312,-0.13740458015267176,-0.9847328244274809
5.38,0.027099609375,-0.98583984375,0.2763671875,-0.9923664122137404,0.19083969465648856,-1.0076335877862594
5.39,0.024658203125,-0.990478515625,0.27001953125,-0.8702290076335878,0.0916030534351145,-1.0534351145038168
5.4,0.0234375,-0.9814453125,0.28369140625,-1.0,0.03816793893129771,-1.0763358778625953
5.41,0.023193359375,-0.99072265625,0.275146484375,-0.8931297709923665,-0.20610687022900764,-1.1068702290076335
5.42,0.0244140625,-0.989501953125,0.270263671875,-0.9389312977099237,-0.2366412213740458,-1.2213740458015268
5.43,0.01708984375,-0.973876953125,0.27685546875,-1.0,-0.13740458015267176,-1.3206106870229009
5.44,0.0224609375,-0.9931640625,0.275634765625,-0.8931297709923665,-0.030534351145038167,-1.2671755725190839
5.45,0.02392578125,-0.994140625,0.281982421875,-0.9389312977099237,-0.16793893129770993,-0.9923664122137404
5.46,0.025390625,-0.983154296875,0.279541015625,-1.1526717557251909,0.19083969465648856,-0.9236641221374046
5.47,0.022705078125,-0.984619140625,0.28173828125,-1.1068702290076335,0.25190839694656486,-1.0458015267175573
5.48,0.026611328125,-0.98974609375,0.273681640625,-1.0534351145038168,-0.1450381679389313,-1.3587786259541985
5.49,0.029052734375,-0.9736328125,0.269775390625,-1.1145038167938932,-0.33587786259541985,-1.4961832061068703
5.5,0.017333984375,-0.995849609375,0.274658203125,-1.0305343511450382,-0.17557251908396945,-1.2061068702290076
5.51,0.02490234375,-0.9873046875,0.27783203125,-0.7862595419847328,-0.16030534351145037,-1.0381679389312977
5.52,0.023681640625,-0.98974609375,0.272705078125,-0.7480916030534351,1.9236641221374047,-1.1145038167938932
5.53,0.0244140625,-0.987548828125,0.27001953125,-1.0687022900763359,1.9236641221374047,-1.2900763358778626
5.54,0.02294921875,-0.99169921875,0.2763671875,-1.0458015267175573,-0.04580152671755725,-1.0534351145038168
5.55,0.020263671875,-0.9951171875,0.27001953125,-0.8396946564885496,-1.9083969465648856,-1.2290076335877862
5.56,0.024169921875,-0.99169921875,0.271728515625,-1.0,-0.09923664122137404,-1.282442748091603
5.57,0.040771484375,-0.98681640625,0.26708984375,-0.9312977099236641,-0.17557251908396945,-0.9618320610687023
5.58,0.019775390625,-0.98828125,0.274658203125,-0.8473282442748091,0.25190839694656486,-1.0534351145038168
5.59,0.02734375,-0.997314453125,0.294921875,-1.1450381679389312,-0.2595419847328244,-1.0687022900763359
5.6,0.0419921875,-0.98974609375,0.273681640625,-1.0610687022900764,0.5343511450381679,-0.7404580152671756
5.61,0.013671875,-0.973388671875,0.270751953125,-0.08396946564885496,0.8473282442748091,-1.3282442748091603
5.62,0.013671875,-0.976806640625,0.279541015625,-0.4961832061068702,0.13740458015267176,-2.0
5.63,0.026123046875,-0.989013671875,0.27734375,-1.213740458015267,-0.11450381679389313,-1.8015267175572518
5.64,0.0234375,-0.994873046875,0.27685546875,-1.7404580152671756,-0.5572519083969466,-1.5038167938931297
5.65,0.03662109375,-1.004150390625,0.27880859375,-1.2366412213740459,-1.9541984732824427,-1.099236641221374
5.66,0.0244140625,-0.971923828125,0.27685546875,-1.3969465648854962,0.183206106870229,-1.2748091603053435
5.67,0.018310546875,-0.98876953125,0.26953125,-1.5572519083969465,-0.12213740458015267,-1.2900763358778626
5.68,0.0302734375,-0.99560546875,0.26171875,-1.3129770992366412,-0.48854961832061067,-1.1908396946564885
5.69,0.0341796875,-0.99560546875,0.266357421875,-0.9465648854961832,0.0916030534351145,-0.8778625954198473
5.7,0.024169921875,-0.987548828125,0.270751953125,-0.2824427480916031,0.4122137404580153,-1.0305343511450382
5.71,0.021728515625,-0.987060546875,0.275146484375,-0.48091603053435117,0.06870229007633588,-1.16793893129771
5.72,0.030029296875,-0.985595703125,0.274169921875,-0.8015267175572519,1.9389312977099236,-1.1145038167938932
5.73,0.0205078125,-0.99755859375,0.27490234375,-0.8015267175572519,-0.37404580152671757,-0.9618320610687023
5.74,0.025390625,-0.987060546875,0.281982421875,-0.6793893129770993,0.1297709923664122,-1.0610687022900764
5.75,0.021240234375,-0.99853515625,0.279296875,-1.0229007633587786,-0.1297709923664122,-1.213740458015267
5.76,0.023681640625,-0.974609375,0.26708984375,-1.450381679389313,-1.9541984732824427,-1.2366412213740459
5.77,0.026123046875,-0.986328125,0.28955078125,-1.282442748091603,-0.11450381679389313,-1.1908396946564885
5.78,0.027099609375,-0.994384765625,0.278564453125,-1.1526717557251909,-0.3282442748091603,-1.213740458015267
5.79,0.0224609375,-0.9912109375,0.28369140625,-1.183206106870229,-0.06870229007633588,-1.2290076335877862
5.8,0.02685546875,-0.98486328125,0.2646484375,-0.8396946564885496,-0.09923664122137404,-1.4809160305343512
5.81,0.02783203125,-0.9892578125,0.2744140625,-1.3435114503816794,-0.25190839694656486,-1.3358778625954197
5.82,0.02880859375,-0.995849609375,0.27685546875,-1.1145038167938932,-0.29770992366412213,-1.015267175572519
5.83,0.0234375,-0.9951171875,0.278076171875,-0.7480916030534351,0.12213740458015267,-1.1145038167938932
5.84,0.025146484375,-0.999755859375,0.2880859375,-0.5343511450381679,0.015267175572519083,-0.8854961832061069
5.85,0.024658203125,-0.984375,0.27783203125,-0.8473282442748091,0.6412213740458015,-0.9541984732824428
5.86,0.022705078125,-0.999755859375,0.26904296875,-1.2900763358778626,-0.10687022900763359,-1.3587786259541985
5.87,0.022705078125,-0.980224609375,0.272216796875,-1.5648854961832062,-0.20610687022900764,-1.381679389312977
5.88,0.02880859375,-0.98779296875,0.27783203125,-1.4580152671755726,-0.16793893129770993,-1.2748091603053435
5.89,0.019775390625,-0.985107421875,0.27294921875,-1.3129770992366412,-0.7022900763358778,-1.297709923664122
5.9,0.033447265625,-0.9951171875,0.278564453125,-1.6717557251908397,-0.26717557251908397,-1.015267175572519
5.91,0.023681640625,-0.995849609375,0.268798828125,-0.9007633587786259,-0.10687022900763359,-0.8702290076335878
5.92,0.024658203125,-0.987060546875,0.2783203125,-0.45038167938931295,0.7709923664122137,-0.7175572519083969
5.93,0.0029296875,-0.968994140625,0.27099609375,-0.7786259541984732,-1.9541984732824427,-1.1221374045801527
5.94,0.025634765625,-0.970458984375,0.265625,-1.099236641221374,-0.22900763358778625,-1.4045801526717556
5.95,0.0283203125,-0.972412109375,0.27490234375,-1.0229007633587786,-0.37404580152671757,-1.083969465648855
5.96,0.03466796875,-0.9921875,0.28076171875,-0.9770992366412213,-0.48091603053435117,-0.8778625954198473
5.97,0.0224609375,-0.988037109375,0.278076171875,-0.5190839694656488,0.4198473282442748,-0.9923664122137404
5.98,0.02294921875,-0.994384765625,0.2744140625,-0.7786259541984732,-0.2748091603053435,-0.8854961832061069
5.99,0.033203125,-0.99169921875,0.265869140625,-0.8549618320610687,0.9541984732824428,-1.0305343511450382
6.0,0.0205078125,-0.985107421875,0.272216796875,-0.7480916030534351,-0.03816793893129771,-0.8778625954198473
6.01,0.015625,-0.99169921875,0.266357421875,-1.6030534351145038,-1.916030534351145,-0.8702290076335878
6.02,0.02685546875,-0.990478515625,0.27099609375,-1.0687022900763359,-0.22137404580152673,-1.0916030534351144
6.03,0.02099609375,-0.992431640625,0.271484375,-0.7633587786259542,-0.12213740458015267,-1.3740458015267176
6.04,0.02392578125,-0.982177734375,0.265869140625,-0.9083969465648855,-0.061068702290076333,-1.3053435114503817
6.05,0.026611328125,-0.998046875,0.27685546875,-1.1221374045801527,-0.3435114503816794,-1.0076335877862594
6.06,0.028564453125,-0.9873046875,0.2802734375,-0.5114503816793893,0.4732824427480916,-0.9694656488549618
6.07,0.021728515625,-0.97705078125,0.28271484375,-0.7175572519083969,1.9465648854961832,-1.3206106870229009
6.08,0.0283203125,-0.98828125,0.265380859375,-1.5419847328244274,-0.3893129770992366,-1.251908396946565
6.09,0.031494140625,-0.9931640625,0.269775390625,-1.4580152671755726,-0.11450381679389313,-0.8625954198473282
6.1,0.0224609375,-0.99072265625,0.283447265625,-0.6641221374045801,-0.03816793893129771,-0.8320610687022901
6.11,0.02294921875,-0.986328125,0.278076171875,-0.5038167938931297,0.3969465648854962,-1.0381679389312977
6.12,0.0244140625,-0.9833984375,0.271240234375,-1.1221374045801527,0.10687022900763359,-1.366412213740458
6.13,0.025390625,-0.994140625,0.27099609375,-1.534351145038168,-0.19083969465648856,-1.251908396946565
6.14,0.022705078125,-0.993408203125,0.289794921875,-0.9312977099236641,-0.2595419847328244,-1.1755725190839694
6.15,0.032470703125,-0.984130859375,0.27685546875,-0.9923664122137404,-0.22900763358778625,-1.0305343511450382
6.16,0.02880859375,-0.9814453125,0.284912109375,-0.9236641221374046,0.3282442748091603,-0.9312977099236641
6.17,0.017333984375,-0.98095703125,0.278076171875,-0.8473282442748091,0.183206106870229,-1.3511450381679388
6.18,0.02783203125,-0.988525390625,0.266845703125,-1.2061068702290076,-0.26717557251908397,-1.534351145038168
6.19,0.025634765625,-0.994384765625,0.274658203125,-1.366412213740458,-0.31297709923664124,-1.1603053435114503
6.2,0.03271484375,-0.995849609375,0.277587890625,-1.1984732824427482,-0.17557251908396945,-0.9770992366412213
6.21,0.0263671875,-0.9990234375,0.2861328125,-0.8091603053435115,0.1984732824427481,-0.8778625954198473
6.22,0.02099609375,-0.986328125,0.27392578125,-0.8396946564885496,0.3893129770992366,-0.9312977099236641
6.23,0.020263671875,-0.992431640625,0.2724609375,-0.9770992366412213,-1.9312977099236641,-1.16793893129771
6.24,0.02294921875,-0.98583984375,0.26904296875,-1.1908396946564885,-0.25190839694656486,-1.015267175572519
6.25,0.021484375,-0.98876953125,0.28125,-0.9618320610687023,-0.08396946564885496,-1.015267175572519
6.26,0.031005859375,-0.994384765625,0.271728515625,-0.7175572519083969,-0.21374045801526717,-1.0305343511450382
6.27,0.0234375,-0.994140625,0.276123046875,-0.9083969465648855,0.16030534351145037,-1.1526717557251909
6.28,0.026123046875,-0.99853515625,0.29296875,-0.732824427480916,-0.183206106870229,-1.1221374045801527
6.29,0.02685546875,-0.986328125,0.271728515625,-1.0687022900763359,-1.9541984732824427,-1.1984732824427482
6.3,0.030517578125,-0.98974609375,0.266845703125,-1.0229007633587786,-0.29770992366412213,-1.0229007633587786
6.31,0.024169921875,-0.98388671875,0.277099609375,-0.9694656488549618,0.08396946564885496,-0.9770992366412213
6.32,0.0244140625,-0.989013671875,0.27880859375,-0.9312977099236641,0.061068702290076333,-1.1908396946564885
6.33,0.027587890625,-0.99365234375,0.276123046875,-1.0763358778625953,-0.2824427480916031,-1.213740458015267
6.34,0.0283203125,-0.992431640625,0.27783203125,-1.366412213740458,-0.05343511450381679,-0.9541984732824428
6.35,0.0205078125,-0.99560546875,0.273681640625,-1.0763358778625953,0.0,-0.9312977099236641
6.36,0.023681640625,-0.991943359375,0.27734375,-0.8702290076335878,0.183206106870229,-1.1374045801526718
6.37,0.02587890625,-0.9921875,0.268798828125,-0.916030534351145,0.1450381679389313,-1.1374045801526718
6.38,0.027099609375,-0.970947265625,0.275634765625,-1.0,-1.9236641221374047,-1.015267175572519
6.39,0.02294921875,-0.988037109375,0.280517578125,-0.8091603053435115,-0.2824427480916031,-0.9618320610687023
6.4,0.024169921875,-0.9873046875,0.27587890625,-0.8396946564885496,0.007633587786259542,-1.1450381679389312
6.41,0.028564453125,-0.987060546875,0.2783203125,-0.9770992366412213,-0.183206106870229,-1.0916030534351144
6.42,0.02880859375,-0.987548828125,0.27685546875,-1.1068702290076335,0.007633587786259542,-1.0305343511450382
6.43,0.02734375,-0.993896484375,0.27685546875,-1.251908396946565,-0.11450381679389313,-1.0458015267175573
6.44,0.024658203125,-0.986328125,0.267822265625,-0.8015267175572519,0.24427480916030533,-0.9389312977099237
6.45,0.018310546875,-0.987060546875,0.273681640625,-0.9312977099236641,0.022900763358778626,-1.4045801526717556
6.46,0.024658203125,-0.98779296875,0.274658203125,-1.083969465648855,-0.5801526717557252,-1.5114503816793894
6.47,0.02978515625,-0.991455078125,0.275146484375,-1.3358778625954197,-1.9389312977099236,-0.9694656488549618
6.48,0.0224609375,-0.99755859375,0.26025390625,-0.8320610687022901,-0.11450381679389313,-0.8549618320610687
6.49,0.02490234375,-0.986328125,0.27587890625,-0.29770992366412213,0.5190839694656488,-0.9541984732824428
6.5,0.0224609375,-0.985107421875,0.270751953125,-0.8778625954198473,0.26717557251908397,-1.1450381679389312
6.51,0.02392578125,-0.98046875,0.267822265625,-1.4961832061068703,-0.2900763358778626,-1.2366412213740459
6.52,0.024169921875,-0.987548828125,0.282470703125,-1.4198473282442747,-0.4351145038167939,-1.2061068702290076
6.53,0.01904296875,-0.996826171875,0.27734375,-1.1374045801526718,-0.366412213740458,-0.9847328244274809
6.54,0.017822265625,-0.990966796875,0.296630859375,-1.0076335877862594,0.1984732824427481,-0.7022900763358778
6.55,0.0185546875,-0.990966796875,0.2734375,-0.816793893129771,0.2366412213740458,-1.1068702290076335
6.56,0.025146484375,-0.98095703125,0.2724609375,-0.9312977099236641,0.1450381679389313,-1.2595419847328244
6.57,0.0224609375,-0.989501953125,0.268310546875,-0.9083969465648855,-0.2595419847328244,-1.2442748091603053
6.58,0.029541015625,-0.990966796875,0.27294921875,-1.0916030534351144,-0.11450381679389313,-1.1221374045801527
6.59,0.025146484375,-0.99169921875,0.27978515625,-0.8015267175572519,-1.9541984732824427,-0.9312977099236641
6.6,0.02734375,-0.984130859375,0.283935546875,-0.8320610687022901,0.17557251908396945,-0.9923664122137404
6.61,0.020751953125,-0.990966796875,0.27001953125,-0.8396946564885496,0.12213740458015267,-1.3511450381679388
6.62,0.022216796875,-0.974365234375,0.278564453125,-1.0,1.8931297709923665,-1.16793893129771
6.63,0.024658203125,-0.98486328125,0.280517578125,-1.2366412213740459,-0.09923664122137404,-1.1297709923664123
6.64,0.026611328125,-0.98779296875,0.280029296875,-1.083969465648855,-0.061068702290076333,-1.0687022900763359
6.65,0.021484375,-0.989013671875,0.271240234375,-1.015267175572519,-0.06870229007633588,-1.213740458015267
6.66,0.0263671875,-0.9873046875,0.271728515625,-1.0,0.06870229007633588,-1.099236641221374
6.67,0.023681640625,-0.984375,0.271728515625,-1.16793893129771,0.1297709923664122,-1.0916030534351144
6.68,0.02587890625,-0.986572265625,0.2734375,-1.015267175572519,-0.17557251908396945,-1.251908396946565
6.69,0.0263671875,-0.9912109375,0.284423828125,-0.6717557251908397,-0.1450381679389313,-1.1603053435114503
6.7,0.02197265625,-0.998291015625,0.281005859375,-0.8396946564885496,-1.9389312977099236,-1.1755725190839694
6.71,0.023681640625,-0.9921875,0.2763671875,-0.9312977099236641,-0.12213740458015267,-1.0610687022900764
6.72,0.020751953125,-0.984375,0.278564453125,-0.9465648854961832,-0.06870229007633588,-0.9694656488549618
6.73,0.0244140625,-0.9931640625,0.278076171875,-1.0076335877862594,-0.13740458015267176,-0.8778625954198473
6.74,0.0302734375,-0.98876953125,0.280517578125,-1.1221374045801527,0.030534351145038167,-1.1603053435114503
6.75,0.02490234375,-0.98486328125,0.2822265625,-1.1984732824427482,0.061068702290076333,-1.015267175572519
6.76,0.02099609375,-0.991455078125,0.281005859375,-1.1068702290076335,-0.030534351145038167,-1.1068702290076335
6.77,0.02734375,-0.989990234375,0.271728515625,-0.7786259541984732,-0.030534351145038167,-1.1526717557251909
6.78,0.025634765625,-0.970947265625,0.277099609375,-0.9083969465648855,-0.03816793893129771,-0.9923664122137404
6.79,0.02880859375,-0.99169921875,0.271728515625,-0.9389312977099237,-0.015267175572519083,-0.9847328244274809
6.8,0.025634765625,-0.99365234375,0.278564453125,-0.9465648854961832,-0.08396946564885496,-1.0763358778625953
6.81,0.029052734375,-0.990966796875,0.2783203125,-0.7633587786259542,1.8854961832061068,-0.9465648854961832
6.82,0.0283203125,-0.9912109375,0.295166015625,-0.9923664122137404,0.10687022900763359,-1.0534351145038168
6.83,0.026123046875,-0.9814453125,0.268798828125,-0.732824427480916,0.17557251908396945,-1.282442748091603
6.84,0.02197265625,-0.989013671875,0.264404296875,-1.1984732824427482,-0.5954198473282443,-1.4885496183206106
6.85,0.029541015625,-0.97998046875,0.2802734375,-0.9465648854961832,1.8854961832061068,-3.8396946564885495
6.86,0.018798828125,-0.998291015625,0.275390625,-1.6946564885496183,-1.4198473282442747,-1.4732824427480915
6.87,0.03955078125,-1.01513671875,0.278564453125,-2.045801526717557,0.12213740458015267,-0.5343511450381679
6.88,0.016357421875,-0.984619140625,0.2880859375,-0.9236641221374046,0.8549618320610687,-0.44274809160305345
6.89,0.008544921875,-0.976318359375,0.265625,-0.9312977099236641,0.07633587786259542,-1.6488549618320612
6.9,0.020263671875,-0.98681640625,0.2646484375,-1.549618320610687,-0.6335877862595419,-1.6717557251908397
6.91,0.03125,-0.994384765625,0.2578125,-1.4122137404580153,-0.6564885496183206,-1.2671755725190839
6.92,0.033447265625,-0.99658203125,0.28662109375,-0.7786259541984732,0.2366412213740458,-1.1984732824427482
6.93,0.020751953125,-0.986328125,0.292724609375,-0.7251908396946565,-0.007633587786259542,-1.2213740458015268
6.94,0.031494140625,-0.989501953125,0.2734375,-1.4809160305343512,0.2366412213740458,-1.4045801526717556
6.95,0.026611328125,-0.99658203125,0.267578125,-1.8702290076335877,-0.19083969465648856,-1.1450381679389312
6.96,0.028076171875,-0.989990234375,0.271484375,-1.3740458015267176,0.08396946564885496,-1.0763358778625953
6.97,0.02734375,-0.987548828125,0.288330078125,-1.2061068702290076,0.07633587786259542,-1.1068702290076335
6.98,0.02734375,-0.988037109375,0.273681640625,-1.1908396946564885,-0.32061068702290074,-1.2061068702290076
6.99,0.0302734375,-0.990966796875,0.274658203125,-0.9541984732824428,0.09923664122137404,-1.0076335877862594
7.0,0.022216796875,-0.98828125,0.275146484375,-0.48091603053435117,0.1450381679389313,-0.8854961832061069
7.01,0.030517578125,-0.990478515625,0.27587890625,-0.4580152671755725,-1.9541984732824427,-1.2442748091603053
7.02,0.02978515625,-0.987548828125,0.278076171875,-0.7251908396946565,-0.0916030534351145,-1.213740458015267
7.03,0.040771484375,-0.986328125,0.274658203125,-0.9312977099236641,-0.16793893129770993,-1.2595419847328244
7.04,0.0380859375,-0.98876953125,0.2734375,-1.2366412213740459,-0.12213740458015267,-1.0610687022900764
7.05,0.027099609375,-0.989013671875,0.27587890625,-1.0076335877862594,0.16030534351145037,-1.1297709923664123
7.06,0.044677734375,-0.971435546875,0.26708984375,-1.251908396946565,-1.9465648854961832,-1.1755725190839694
7.07,0.025634765625,-0.974609375,0.275634765625,-1.1221374045801527,0.0,-1.1755725190839694
7.08,0.021484375,-0.989501953125,0.2734375,-1.213740458015267,-0.2824427480916031,-1.2748091603053435
7.09,0.0224609375,-0.983642578125,0.265625,-1.1984732824427482,0.09923664122137404,-1.0381679389312977
7.1,0.02392578125,-0.984619140625,0.27880859375,-0.7480916030534351,-0.04580152671755725,-1.0229007633587786
7.11,0.02197265625,-0.985595703125,0.26708984375,-0.6641221374045801,0.25190839694656486,-0.9618320610687023
7.12,0.02880859375,-0.984375,0.27392578125,-0.8091603053435115,-0.1450381679389313,-1.0
7.13,0.01611328125,-0.9892578125,0.25390625,-0.8931297709923665,-1.9465648854961832,-1.099236641221374
7.14,0.046630859375,-0.974609375,0.267333984375,-0.9923664122137404,-0.183206106870229,-1.1603053435114503
7.15,0.027099609375,-0.989013671875,0.27197265625,-1.0916030534351144,1.9083969465648856,-1.0458015267175573
7.16,0.0263671875,-0.982666015625,0.268310546875,-1.1603053435114503,-0.061068702290076333,-1.1603053435114503
7.17,0.029052734375,-0.98681640625,0.267333984375,-1.2290076335877862,-0.015267175572519083,-1.183206106870229
7.18,0.02294921875,-0.990966796875,0.278564453125,-1.1450381679389312,0.061068702290076333,-1.0916030534351144
7.19,0.03173828125,-0.991943359375,0.276123046875,-1.0229007633587786,1.900763358778626,-1.0534351145038168
7.2,0.0283203125,-0.991943359375,0.271728515625,-0.7862595419847328,-0.11450381679389313,-1.0
7.21,0.030029296875,-0.990966796875,0.277099609375,-1.0381679389312977,-0.22900763358778625,-1.0687022900763359
7.22,0.0302734375,-0.992431640625,0.271240234375,-0.8702290076335878,0.0,-1.0
7.23,0.02392578125,-0.998291015625,0.269775390625,-0.8091603053435115,0.03816793893129771,-0.9236641221374046
7.24,0.02783203125,-0.971923828125,0.275390625,-0.8091603053435115,0.16030534351145037,-0.9465648854961832
7.25,0.02734375,-0.988525390625,0.27197265625,-0.9541984732824428,1.9312977099236641,-1.2213740458015268
7.26,0.023193359375,-0.992431640625,0.263916015625,-1.0534351145038168,-0.08396946564885496,-1.1908396946564885
7.27,0.021484375,-0.9912109375,0.27685546875,-1.0381679389312977,-0.015267175572519083,-1.1984732824427482
7.28,0.025390625,-0.9912109375,0.273681640625,-0.9389312977099237,-0.1984732824427481,-1.0076335877862594
7.29,0.027099609375,-0.986572265625,0.27880859375,-1.1450381679389312,-0.16793893129770993,-1.1068702290076335
7.3,0.042724609375,-0.989013671875,0.271484375,-1.183206106870229,-0.06870229007633588,-1.1755725190839694
7.31,0.025390625,-0.995849609375,0.272705078125,-0.9541984732824428,-0.05343511450381679,-1.0305343511450382
7.32,0.0302734375,-0.98779296875,0.278076171875,-0.9312977099236641,-0.07633587786259542,-0.916030534351145
7.33,0.02734375,-0.98876953125,0.27099609375,-0.7633587786259542,0.0,-1.083969465648855
7.34,0.027099609375,-0.98974609375,0.275146484375,-0.8015267175572519,0.13740458015267176,-0.9694656488549618
7.35,0.02392578125,-0.987060546875,0.26806640625,-0.8702290076335878,0.007633587786259542,-1.1145038167938932
7.36,0.028076171875,-0.98681640625,0.2783203125,-1.0381679389312977,-0.12213740458015267,-1.1984732824427482
7.37,0.027099609375,-0.991455078125,0.27392578125,-1.0916030534351144,-1.9312977099236641,-1.1603053435114503
7.38,0.020263671875,-0.987060546875,0.28076171875,-1.015267175572519,-0.1297709923664122,-1.0610687022900764
7.39,0.0244140625,-0.992919921875,0.265869140625,-1.0229007633587786,-0.06870229007633588,-1.099236641221374
7.4,0.0224609375,-0.991455078125,0.271484375,-1.0610687022900764,-1.900763358778626,-0.9618320610687023
7.41,0.023193359375,-0.99462890625,0.278076171875,-0.9923664122137404,-1.9236641221374047,-1.1526717557251909
7.42,0.0244140625,-0.986328125,0.278076171875,-1.1221374045801527,-0.022900763358778626,-1.083969465648855
7.43,0.01904296875,-0.992431640625,0.26904296875,-0.9847328244274809,-0.06870229007633588,-0.9770992366412213
7.44,0.032958984375,-0.98828125,0.269287109375,-1.0381679389312977,0.03816793893129771,-1.1450381679389312
7.45,0.02392578125,-0.9912109375,0.271240234375,-0.8625954198473282,-1.9312977099236641,-0.8854961832061069
7.46,0.02392578125,-0.9814453125,0.274169921875,-0.9465648854961832,-0.05343511450381679,-0.9465648854961832
7.47,0.03759765625,-0.98681640625,0.2861328125,-0.9694656488549618,-0.06870229007633588,-1.1145038167938932
7.48,0.0244140625,-0.990966796875,0.273681640625,-0.9465648854961832,-0.15267175572519084,-1.2061068702290076
7.49,0.025390625,-0.9970703125,0.278564453125,-0.9083969465648855,0.007633587786259542,-1.2290076335877862
7.5,0.02001953125,-0.986572265625,0.269287109375,-1.16793893129771,-0.04580152671755725,-1.1145038167938932
7.51,0.0185546875,-0.9775390625,0.279296875,-1.1297709923664123,-0.06870229007633588,-1.1450381679389312
7.52,0.03076171875,-0.9931640625,0.275634765625,-1.0458015267175573,1.816793893129771,-1.1908396946564885
7.53,0.0283203125,-0.995361328125,0.284912109375,-1.1221374045801527,-0.07633587786259542,-1.0916030534351144
7.54,0.02099609375,-0.986572265625,0.279296875,-0.9083969465648855,-0.04580152671755725,-1.0
7.55,0.025390625,-0.988037109375,0.268798828125,-0.9923664122137404,-0.1450381679389313,-1.2442748091603053
7.56,0.044189453125,-0.987548828125,0.29443359375,-1.0381679389312977,0.04580152671755725,-1.0458015267175573
7.57,0.0234375,-0.969482421875,0.271728515625,-0.9694656488549618,-0.24427480916030533,-1.0916030534351144
7.58,0.026611328125,-0.988037109375,0.2744140625,-0.9312977099236641,-0.07633587786259542,-1.2595419847328244
7.59,0.02392578125,-0.99365234375,0.27783203125,-0.8931297709923665,-0.0916030534351145,-1.0076335877862594
7.6,0.022705078125,-0.99072265625,0.2705078125,-0.9007633587786259,0.09923664122137404,-1.0916030534351144
7.61,0.02392578125,-0.9892578125,0.278076171875,-0.9389312977099237,-0.007633587786259542,-1.1755725190839694
7.62,0.023193359375,-0.983642578125,0.273681640625,-0.9465648854961832,-0.07633587786259542,-1.015267175572519
7.63,0.0224609375,-0.988037109375,0.276123046875,-0.9541984732824428,-0.06870229007633588,-1.2061068702290076
7.64,0.021728515625,-0.988525390625,0.28125,-0.9389312977099237,-0.12213740458015267,-1.1908396946564885
7.65,0.028076171875,-0.99072265625,0.2705078125,-1.0381679389312977,-1.900763358778626,-1.183206106870229
7.66,0.0234375,-0.992431640625,0.29638671875,-0.8931297709923665,-0.03816793893129771,-1.015267175572519
7.67,0.026123046875,-0.97021484375,0.2841796875,-0.8854961832061069,1.9465648854961832,-1.0610687022900764
7.68,0.02783203125,-0.988037109375,0.272216796875,-0.9465648854961832,-0.1297709923664122,-1.0610687022900764
7.69,0.023681640625,-0.98974609375,0.275390625,-1.1221374045801527,0.022900763358778626,-1.1755725190839694
7.7,0.0263671875,-0.9892578125,0.271728515625,-0.9694656488549618,0.07633587786259542,-1.0610687022900764
7.71,0.02490234375,-0.992919921875,0.2763671875,-0.8778625954198473,-0.2900763358778626,-1.1068702290076335
7.72,0.0224609375,-0.988037109375,0.272216796875,-0.9770992366412213,0.015267175572519083,-1.183206106870229
7.73,0.038818359375,-0.988037109375,0.27734375,-0.9007633587786259,-1.9312977099236641,-1.1221374045801527
7.74,0.02392578125,-0.99169921875,0.27392578125,-0.8091603053435115,0.007633587786259542,-1.0534351145038168
7.75,0.028564453125,-0.9912109375,0.271240234375,-1.083969465648855,-0.09923664122137404,-1.3129770992366412
7.76,0.026123046875,-0.991943359375,0.296630859375,-1.1374045801526718,0.183206106870229,-1.183206106870229
7.77,0.027587890625,-0.9912109375,0.272705078125,-1.1526717557251909,-0.11450381679389313,-1.1145038167938932
7.78,0.0263671875,-0.99169921875,0.27978515625,-1.0763358778625953,-0.20610687022900764,-1.0687022900763359
7.79,0.024658203125,-0.995849609375,0.2734375,-1.1603053435114503,-0.16793893129770993,-1.099236641221374
7.8,0.01904296875,-0.992431640625,0.271728515625,-0.8778625954198473,0.030534351145038167,-0.7938931297709924
7.81,0.030029296875,-0.988037109375,0.2724609375,-0.916030534351145,1.9312977099236641,-1.015267175572519
7.82,0.017578125,-0.99072265625,0.276611328125,-1.0305343511450382,0.03816793893129771,-1.1221374045801527
7.83,0.029296875,-0.98876953125,0.27880859375,-0.8244274809160306,-0.022900763358778626,-1.1297709923664123
7.84,0.020263671875,-0.986083984375,0.287841796875,-0.7938931297709924,-0.11450381679389313,-0.9923664122137404
7.85,0.027587890625,-0.988037109375,0.2802734375,-1.0229007633587786,0.05343511450381679,-1.0229007633587786
7.86,0.02587890625,-0.9892578125,0.276611328125,-0.9770992366412213,-0.04580152671755725,-1.1603053435114503
7.87,0.026611328125,-0.987548828125,0.278564453125,-1.213740458015267,1.900763358778626,-1.0
7.88,0.0234375,-0.99072265625,0.277587890625,-1.16793893129771,1.9312977099236641,-1.1374045801526718
7.89,0.029541015625,-0.991943359375,0.274658203125,-1.0305343511450382,-1.9465648854961832,-1.0229007633587786
7.9,0.024658203125,-0.993408203125,0.2744140625,-1.0534351145038168,0.015267175572519083,-0.9770992366412213
7.91,0.01904296875,-0.986083984375,0.267578125,-0.8320610687022901,-0.04580152671755725,-1.0076335877862594
7.92,0.023681640625,-0.99072265625,0.256103515625,-0.7633587786259542,-0.17557251908396945,-1.1297709923664123
7.93,0.02978515625,-0.99658203125,0.26953125,-0.8931297709923665,-0.11450381679389313,-1.2213740458015268
7.94,0.026611328125,-0.984375,0.28369140625,-0.9389312977099237,-0.1450381679389313,-1.0458015267175573
7.95,0.02001953125,-0.9892578125,0.2724609375,-1.1145038167938932,-0.10687022900763359,-0.9770992366412213
7.96,0.026611328125,-0.987060546875,0.270751953125,-1.1145038167938932,0.183206106870229,-0.8778625954198473
7.97,0.0244140625,-0.99169921875,0.27587890625,-1.0,0.1297709923664122,-0.9847328244274809
7.98,0.02587890625,-0.984375,0.263427734375,-0.7251908396946565,0.2824427480916031,-1.0458015267175573
7.99,0.021728515625,-0.999755859375,0.273681640625,-0.7633587786259542,-0.2748091603053435,-1.3129770992366412
8.0,0.02392578125,-0.986083984375,0.2734375,-1.1984732824427482,-0.3053435114503817,-1.282442748091603
8.01,0.0322265625,-0.990234375,0.27880859375,-1.381679389312977,-0.3893129770992366,-1.0763358778625953
8.02,0.028564453125,-0.99951171875,0.270751953125,-1.3129770992366412,-0.2748091603053435,-0.9007633587786259
8.03,0.02783203125,-0.992431640625,0.281005859375,-0.7557251908396947,0.3282442748091603,-0.8396946564885496
8.04,0.027099609375,-0.9873046875,0.271728515625,-0.6717557251908397,0.21374045801526717,-1.0534351145038168
8.05,0.017333984375,-0.98583984375,0.265869140625,-0.9312977099236641,0.022900763358778626,-1.0916030534351144
8.06,0.024169921875,-0.9873046875,0.2763671875,-0.8931297709923665,-0.183206106870229,-1.3282442748091603
8.07,0.033447265625,-0.991455078125,0.272705078125,-1.083969465648855,-0.16030534351145037,-0.8931297709923665
8.08,0.0458984375,-0.9951171875,0.285888671875,-1.0534351145038168,-0.11450381679389313,-0.9312977099236641
8.09,0.0283203125,-0.990966796875,0.279296875,-1.0610687022900764,0.183206106870229,-1.0
8.1,0.0263671875,-0.9814453125,0.27685546875,-1.0610687022900764,0.4351145038167939,-1.2442748091603053
8.11,0.0234375,-0.990478515625,0.269775390625,-1.297709923664122,-0.015267175572519083,-1.2061068702290076
8.12,0.031494140625,-0.990478515625,0.281494140625,-1.2442748091603053,-0.061068702290076333,-1.1068702290076335
8.13,0.0244140625,-0.9951171875,0.274169921875,-1.099236641221374,-0.17557251908396945,-1.2061068702290076
8.14,0.024658203125,-0.98974609375,0.27880859375,-0.8854961832061069,-0.10687022900763359,-1.1603053435114503
8.15,0.02783203125,-0.983154296875,0.264892578125,-0.8625954198473282,-1.916030534351145,-1.2061068702290076
8.16,0.0234375,-0.990478515625,0.269775390625,-1.0381679389312977,-0.0916030534351145,-1.0
8.17,0.0263671875,-0.991455078125,0.273681640625,-0.549618320610687,-0.022900763358778626,-1.0534351145038168
8.18,0.025634765625,-0.984619140625,0.27392578125,-0.6030534351145038,0.16793893129770993,-1.0305343511450382
8.19,0.027099609375,-0.991943359375,0.27880859375,-0.6412213740458015,0.1984732824427481,-0.9847328244274809
8.2,0.031005859375,-0.983642578125,0.2763671875,-0.9694656488549618,1.9236641221374047,-1.213740458015267
8.21,0.028076171875,-0.988525390625,0.2841796875,-1.534351145038168,-0.12213740458015267,-1.0229007633587786
8.22,0.02392578125,-0.99609375,0.27490234375,-1.5190839694656488,-0.08396946564885496,-1.3053435114503817
8.23,0.02978515625,-0.986572265625,0.2724609375,-1.6641221374045803,0.20610687022900764,-1.0916030534351144
8.24,0.02880859375,-0.979736328125,0.275634765625,-1.381679389312977,0.07633587786259542,-1.2442748091603053
8.25,0.025634765625,-0.99072265625,0.2822265625,-1.0687022900763359,-0.03816793893129771,-0.8778625954198473
8.26,0.030029296875,-0.99853515625,0.279541015625,-0.7404580152671756,-0.06870229007633588,-0.9312977099236641
8.27,0.02978515625,-0.974365234375,0.2763671875,-0.5801526717557252,-1.9541984732824427,-0.9847328244274809
8.28,0.02685546875,-0.987548828125,0.2734375,-0.42748091603053434,-0.17557251908396945,-0.8473282442748091
8.29,0.02490234375,-0.990966796875,0.275634765625,-0.40458015267175573,0.32061068702290074,-0.8244274809160306
8.3,0.013427734375,-0.988525390625,0.28857421875,-0.0916030534351145,0.8015267175572519,-1.3358778625954197
8.31,0.02294921875,-0.986572265625,0.295654296875,-1.16793893129771,0.8015267175572519,-1.4580152671755726
8.32,0.032958984375,-0.984130859375,0.27685546875,-2.687022900763359,0.007633587786259542,-1.4045801526717556
8.33,0.04638671875,-0.9912109375,0.268798828125,-2.7938931297709924,-0.5038167938931297,-1.0763358778625953
8.34,0.03125,-0.99072265625,0.26513671875,-2.0229007633587788,-0.7099236641221374,-1.2595419847328244
8.35,0.022216796875,-0.992919921875,0.258056640625,-1.1984732824427482,-1.9389312977099236,-0.9312977099236641
8.36,0.013671875,-0.98974609375,0.26416015625,-0.549618320610687,-0.20610687022900764,-0.9618320610687023
8.37,0.0166015625,-0.986328125,0.27001953125,-0.10687022900763359,0.2595419847328244,-1.0
8.38,0.02197265625,-0.98583984375,0.272705078125,0.4351145038167939,0.22137404580152673,-0.8320610687022901
8.39,0.02392578125,-0.990234375,0.2841796875,0.05343511450381679,0.48091603053435117,-1.0610687022900764
8.4,0.02783203125,-0.98583984375,0.28369140625,-0.7175572519083969,0.2748091603053435,-1.1984732824427482
8.41,0.02734375,-0.99365234375,0.27099609375,-1.5267175572519085,-0.45038167938931295,-1.0534351145038168
8.42,0.022216796875,-0.990478515625,0.271728515625,-1.4961832061068703,-0.2366412213740458,-0.8702290076335878
8.43,0.0263671875,-0.9853515625,0.26611328125,-1.1374045801526718,-0.22900763358778625,-1.1526717557251909
8.44,0.019775390625,-0.98828125,0.2783203125,-0.9465648854961832,0.0916030534351145,-1.1984732824427482
8.45,0.028564453125,-0.98974609375,0.273681640625,-0.9923664122137404,-0.16030534351145037,-1.3358778625954197
8.46,0.027587890625,-0.9873046875,0.281005859375,-1.3053435114503817,-0.08396946564885496,-0.9694656488549618
8.47,0.02490234375,-0.9931640625,0.271728515625,-1.1145038167938932,0.015267175572519083,-1.0381679389312977
8.48,0.029296875,-0.991943359375,0.272216796875,-1.282442748091603,0.0916030534351145,-1.099236641221374
8.49,0.02099609375,-0.980224609375,0.262451171875,-1.0610687022900764,-0.05343511450381679,-1.183206106870229
8.5,0.0205078125,-0.98876953125,0.263427734375,-0.8091603053435115,-0.183206106870229,-0.9541984732824428
8.51,0.02490234375,-0.9853515625,0.271728515625,-0.5343511450381679,0.03816793893129771,-1.1526717557251909
8.52,0.023681640625,-0.992919921875,0.2958984375,-0.45038167938931295,-0.007633587786259542,-0.9312977099236641
8.53,0.03369140625,-0.98974609375,0.27685546875,-0.6870229007633588,0.061068702290076333,-1.0458015267175573
8.54,0.024658203125,-0.9892578125,0.283203125,-1.0305343511450382,-0.183206106870229,-1.1526717557251909
8.55,0.016845703125,-0.98828125,0.282470703125,-1.3053435114503817,1.8931297709923665,-1.297709923664122
8.56,0.0244140625,-0.991943359375,0.281494140625,-1.3511450381679388,1.9236641221374047,-1.0916030534351144
8.57,0.025390625,-0.9892578125,0.275634765625,-1.1450381679389312,0.07633587786259542,-1.1297709923664123
8.58,0.027587890625,-0.9912109375,0.275390625,-0.7633587786259542,-0.2366412213740458,-1.1145038167938932
8.59,0.02587890625,-0.990234375,0.279541015625,-1.083969465648855,-0.030534351145038167,-0.9312977099236641
8.6,0.0283203125,-0.9912109375,0.27392578125,-0.8625954198473282,0.015267175572519083,-0.9389312977099237
8.61,0.023193359375,-0.99560546875,0.2734375,-0.732824427480916,0.22137404580152673,-1.0305343511450382
8.62,0.0283203125,-0.98828125,0.271484375,-0.7557251908396947,0.07633587786259542,-0.9694656488549618
8.63,0.016845703125,-0.984375,0.265625,-0.9694656488549618,-0.007633587786259542,-1.1221374045801527
8.64,0.025146484375,-0.986083984375,0.265380859375,-1.0610687022900764,0.061068702290076333,-1.0076335877862594
8.65,0.0810546875,-0.9638671875,0.277099609375,-1.381679389312977,-2.877862595419847,4.419847328244275
8.66,0.090087890625,-0.99365234375,0.361328125,-16.641221374045802,7.236641221374046,4.236641221374046
8.67,-0.048095703125,-0.91748046875,0.47705078125,-39.68702290076336,21.17557251908397,-2.7022900763358777
8.68,-0.048828125,-1.027587890625,0.473876953125,-32.25954198473283,10.65648854961832,-0.9694656488549618
8.69,0.187255859375,-0.988525390625,0.3740234375,-32.595419847328245,16.458015267175572,9.34351145038168
8.7,0.14013671875,-0.9111328125,0.425048828125,-49.412213740458014,11.48091603053435,7.221374045801527
8.71,-0.043701171875,-1.306884765625,0.19873046875,-34.10687022900763,1.7251908396946565,4.648854961832061
8.72,0.488525390625,-1.021728515625,0.298828125,-30.0,13.961832061068701,28.541984732824428
8.73,-0.045654296875,-1.337646484375,0.227294921875,-53.534351145038165,33.63358778625954,38.99236641221374
8.74,-0.21044921875,-1.351806640625,0.201171875,-38.23664122137404,9.65648854961832,50.12977099236641
8.75,0.076416015625,-1.082763671875,0.241455078125,-38.79389312977099,22.442748091603054,50.19083969465649
8.76,-0.14990234375,-1.021484375,0.265869140625,-43.2442748091603,6.587786259541985,51.778625954198475
8.77,-0.274169921875,-1.149169921875,0.158203125,-47.770992366412216,-4.122137404580153,67.76335877862596
8.78,-0.406982421875,-1.1005859375,0.146240234375,-71.81679389312977,-0.7022900763358778,77.87786259541984
8.79,-0.299560546875,-1.0615234375,0.146728515625,-93.1526717557252,15.427480916030534,88.63358778625954
8.8,-0.258544921875,-1.092529296875,0.1708984375,-96.97709923664122,5.374045801526718,100.36641221374046
8.81,-0.102783203125,-1.10595703125,0.121337890625,-90.54961832061069,12.687022900763358,105.59541984732824
8.82,-0.171630859375,-1.1259765625,0.06640625,-79.95419847328245,5.595419847328245,111.29007633587786
8.83,-0.1474609375,-1.14453125,-0.022216796875,-69.63358778625954,6.893129770992366,114.17557251908397
8.84,-0.218994140625,-1.10205078125,-0.051513671875,-68.03053435114504,9.358778625954198,115.09923664122137
8.85,-0.19873046875,-1.0888671875,-0.035400390625,-78.35114503816794,-10.488549618320612,108.74045801526718
8.86,-0.14306640625,-1.077880859375,-0.029052734375,-104.25190839694656,-18.458015267175572,101.16793893129771
8.87,-0.123291015625,-1.1865234375,-0.044677734375,-128.31297709923663,-16.061068702290076,92.23664122137404
8.88,-0.193115234375,-1.212158203125,0.005615234375,-134.9618320610687,-16.129770992366414,82.50381679389314
8.89,-0.149169921875,-1.213134765625,0.029052734375,-144.78625954198472,-21.625954198473284,72.41221374045801
8.9,-0.171630859375,-1.244384765625,0.0576171875,-159.50381679389312,-18.83969465648855,63.23664122137404
8.91,-0.27392578125,-1.33251953125,-0.00146484375,-158.03053435114504,-28.954198473282442,54.80916030534351
8.92,-0.212158203125,-1.385986328125,-0.082763671875,-133.54961832061068,-18.580152671755727,46.099236641221374
8.93,-0.2021484375,-1.398193359375,-0.094970703125,-104.2442748091603,-13.450381679389313,37.343511450381676
8.94,-0.16064453125,-1.3759765625,-0.099365234375,-78.16793893129771,-2.7099236641221376,25.748091603053435
8.95,-0.142578125,-1.37109375,-0.104736328125,-51.267175572519086,3.717557251908397,12.732824427480915
8.96,-0.2265625,-1.357177734375,-0.06640625,-27.83969465648855,3.4580152671755724,-1.3053435114503817
8.97,-0.34716796875,-1.358154296875,-0.04296875,-22.35114503816794,-2.3282442748091605,-16.3206106870229
8.98,-0.287109375,-1.31494140625,-0.05224609375,-34.29770992366412,1.015267175572519,-32.19847328244275
8.99,-0.292236328125,-1.365966796875,-0.132080078125,-32.70992366412214,1.8931297709923665,-43.80916030534351
9.0,-0.2939453125,-1.346923828125,-0.162841796875,-10.541984732824428,1.1374045801526718,-56.274809160305345
9.01,-0.254638671875,-1.2861328125,-0.170654296875,10.274809160305344,-6.488549618320611,-67.83206106870229
9.02,-0.253173828125,-1.224853515625,-0.125244140625,28.862595419847327,-11.83206106870229,-79.22137404580153
9.03,-0.268798828125,-1.161865234375,-0.1044921875,42.770992366412216,-13.229007633587786,-89.55725190839695
9.04,-0.28271484375,-1.121337890625,-0.07958984375,52.099236641221374,-19.38167938931298,-96.82442748091603
9.05,-0.28466796875,-1.043701171875,-0.068603515625,48.42748091603053,-25.977099236641223,-101.93893129770993
9.06,-0.265380859375,-0.95556640625,-0.034912109375,40.916030534351144,-32.50381679389313,-107.7175572519084
9.07,-0.2294921875,-0.88916015625,-0.047119140625,25.938931297709924,-35.778625954198475,-111.65648854961832
9.08,-0.24267578125,-0.86181640625,-0.039794921875,19.389312977099237,-38.412213740458014,-114.18320610687023
9.09,-0.271484375,-0.822021484375,-0.032958984375,10.183206106870228,-42.534351145038165,-115.98473282442748
9.1,-0.26708984375,-0.784423828125,-0.05419921875,3.0229007633587788,-45.58015267175573,-117.1526717557252
9.11,-0.28271484375,-0.755859375,-0.038330078125,1.7404580152671756,-45.603053435114504,-118.09160305343511
9.12,-0.251220703125,-0.713623046875,-0.031494140625,2.9389312977099236,-46.274809160305345,-118.46564885496183
9.13,-0.234619140625,-0.64453125,0.023681640625,10.335877862595419,-55.87022900763359,-117.2442748091603
9.14,-0.093017578125,-0.575439453125,0.0751953125,21.068702290076335,-42.70992366412214,-113.98473282442748
9.15,-0.116943359375,-0.471435546875,0.09228515625,13.053435114503817,-40.099236641221374,-112.22137404580153
9.16,-0.132080078125,-0.47412109375,0.085205078125,14.954198473282442,-41.18320610687023,-110.73282442748092
9.17,-0.129638671875,-0.4287109375,0.06005859375,19.19083969465649,-40.99236641221374,-109.3969465648855
9.18,-0.12841796875,-0.40966796875,0.035400390625,25.65648854961832,-44.05343511450382,-102.19847328244275
9.19,-0.10791015625,-0.3671875,0.024169921875,38.05343511450382,-44.14503816793893,-93.95419847328245
9.2,-0.10107421875,-0.333984375,0.0517578125,42.76335877862596,-43.85496183206107,-82.22900763358778
9.21,-0.06201171875,-0.330078125,0.084228515625,42.900763358778626,-36.43511450381679,-69.3969465648855
9.22,-0.053466796875,-0.276611328125,0.106689453125,42.88549618320611,-35.38167938931298,-57.3587786259542
9.23,-0.020751953125,-0.2724609375,0.106201171875,44.50381679389313,-33.267175572519086,-45.00763358778626
9.24,0.0009765625,-0.24072265625,0.115478515625,47.908396946564885,-36.97709923664122,-34.41984732824427
9.25,0.024658203125,-0.209228515625,0.1015625,48.603053435114504,-36.85496183206107,-24.251908396946565
9.26,0.004150390625,-0.2158203125,0.0673828125,48.11450381679389,-43.274809160305345,-12.404580152671755
9.27,-0.037841796875,-0.2607421875,0.03369140625,44.89312977099237,-46.83206106870229,0.022900763358778626
9.28,-0.06005859375,-0.31689453125,0.017333984375,32.099236641221374,-48.74045801526717,16.938931297709924
9.29,-0.051513671875,-0.358154296875,0.04150390625,19.022900763358777,-43.87022900763359,27.900763358778626
9.3,-0.02099609375,-0.387451171875,0.05078125,2.427480916030534,-39.343511450381676,40.656488549618324
9.31,-0.01318359375,-0.451416015625,0.045166015625,-6.66412213740458,-38.29007633587786,50.717557251908396
9.32,-0.02099609375,-0.515869140625,0.0302734375,-12.351145038167939,-40.458015267175576,58.81679389312977
9.33,-0.03759765625,-0.610107421875,0.0244140625,-18.625954198473284,-40.48091603053435,70.8854961832061
9.34,-0.044921875,-0.685302734375,-0.0126953125,-24.412213740458014,-40.48854961832061,79.0381679389313
9.35,-0.056396484375,-0.75732421875,-0.0341796875,-26.717557251908396,-43.38167938931298,85.45038167938931
9.36,-0.08251953125,-0.822265625,-0.071044921875,-27.297709923664122,-47.61832061068702,90.63358778625954
9.37,-0.113525390625,-0.856689453125,-0.09814453125,-27.85496183206107,-52.267175572519086,93.09923664122137
9.38,-0.10400390625,-0.9072265625,-0.125,-34.41984732824427,-54.038167938931295,93.8473282442748
9.39,-0.15966796875,-0.9990234375,-0.12548828125,-39.908396946564885,-64.05343511450381,98.98473282442748
9.4,-0.154296875,-1.06103515625,-0.15478515625,-48.213740458015266,-68.37404580152672,98.64885496183206
9.41,-0.17041015625,-1.097412109375,-0.152587890625,-58.396946564885496,-73.68702290076335,100.05343511450381
9.42,-0.15234375,-1.17626953125,-0.15283203125,-68.82442748091603,-74.20610687022901,100.21374045801527
9.43,-0.171875,-1.227783203125,-0.158203125,-74.30534351145039,-63.25954198473283,100.02290076335878
9.44,-0.158935546875,-1.303466796875,-0.151611328125,-79.98473282442748,-55.89312977099237,99.70992366412214
9.45,-0.261962890625,-1.306884765625,-0.177734375,-77.90839694656489,-54.396946564885496,96.49618320610686
9.46,-0.271484375,-1.38427734375,-0.181640625,-69.0,-66.87022900763358,92.3969465648855
9.47,-0.193359375,-1.437255859375,-0.19189453125,-65.99236641221374,-63.343511450381676,86.64885496183206
9.48,-0.233642578125,-1.4423828125,-0.236083984375,-65.27480916030534,-55.70992366412214,79.40458015267176
9.49,-0.269775390625,-1.521484375,-0.27490234375,-57.12213740458015,-59.25954198473283,76.3969465648855
9.5,-0.2587890625,-1.52978515625,-0.26416015625,-55.465648854961835,-54.9236641221374,71.00763358778626
9.51,-0.254150390625,-1.551513671875,-0.287353515625,-53.6412213740458,-59.32824427480916,65.01526717557252
9.52,-0.211669921875,-1.5576171875,-0.299072265625,-52.267175572519086,-47.83969465648855,58.93129770992366
9.53,-0.329833984375,-1.5322265625,-0.27392578125,-51.725190839694655,-49.12213740458015,51.778625954198475
9.54,-0.189697265625,-1.573974609375,-0.267333984375,-51.37404580152672,-47.83206106870229,43.229007633587784
9.55,-0.16455078125,-1.56494140625,-0.292724609375,-48.41984732824427,-35.02290076335878,32.44274809160305
9.56,-0.188232421875,-1.569091796875,-0.29345703125,-40.57251908396947,-29.48854961832061,20.83969465648855
9.57,-0.23291015625,-1.511474609375,-0.310791015625,-35.93893129770992,-27.85496183206107,10.122137404580153
9.58,-0.260498046875,-1.479736328125,-0.279296875,-27.51145038167939,-28.519083969465647,1.4045801526717556
9.59,-0.239990234375,-1.47900390625,-0.288330078125,-25.18320610687023,-29.85496183206107,-4.030534351145038
9.6,-0.241455078125,-1.46240234375,-0.34130859375,-4.9465648854961835,-19.30534351145038,-12.450381679389313
9.61,-0.285400390625,-1.418212890625,-0.29833984375,5.145038167938932,-17.480916030534353,-18.587786259541986
9.62,-0.28662109375,-1.37158203125,-0.255859375,9.251908396946565,-16.16793893129771,-25.053435114503817
9.63,-0.317138671875,-1.396240234375,-0.251953125,15.763358778625955,-13.526717557251908,-29.755725190839694
9.64,-0.3203125,-1.34814453125,-0.25634765625,23.015267175572518,-14.893129770992367,-34.152671755725194
9.65,-0.29296875,-1.314208984375,-0.25634765625,24.84732824427481,-14.099236641221374,-38.80916030534351
9.66,-0.277099609375,-1.28857421875,-0.243896484375,27.0,-10.083969465648854,-41.88549618320611
9.67,-0.272705078125,-1.251708984375,-0.21533203125,28.99236641221374,-7.00763358778626,-45.25190839694657
9.68,-0.2685546875,-1.221435546875,-0.204345703125,25.625954198473284,-1.6259541984732824,-49.57251908396947
9.69,-0.270751953125,-1.19921875,-0.211669921875,21.595419847328245,0.5877862595419847,-53.80152671755725
9.7,-0.26953125,-1.153564453125,-0.214111328125,20.6793893129771,4.595419847328245,-59.14503816793893
9.71,-0.250244140625,-1.1396484375,-0.207275390625,19.9618320610687,7.595419847328245,-63.267175572519086
9.72,-0.26611328125,-1.1083984375,-0.192626953125,14.465648854961833,12.099236641221374,-66.70992366412214
9.73,-0.274658203125,-1.047119140625,-0.182861328125,9.748091603053435,16.34351145038168,-69.61832061068702
9.74,-0.246826171875,-1.033203125,-0.169189453125,6.206106870229007,21.14503816793893,-71.45801526717557
9.75,-0.23095703125,-1.0126953125,-0.12939453125,7.748091603053435,27.015267175572518,-72.97709923664122
9.76,-0.22021484375,-0.9697265625,-0.106201171875,2.9770992366412212,30.213740458015266,-72.32824427480917
9.77,-0.20947265625,-0.936279296875,-0.096923828125,3.4732824427480917,32.81679389312977,-75.23664122137404
9.78,-0.198486328125,-0.910400390625,-0.090087890625,7.755725190839694,34.61832061068702,-75.02290076335878
9.79,-0.181640625,-0.89306640625,-0.080078125,9.870229007633588,42.0,-74.45038167938931
9.8,-0.21875,-0.853515625,-0.09033203125,11.091603053435115,39.908396946564885,-76.16793893129771
9.81,-0.194580078125,-0.851318359375,-0.0537109375,20.557251908396946,40.25954198473283,-73.6412213740458
9.82,-0.169921875,-0.851806640625,-0.0439453125,31.213740458015266,42.16793893129771,-72.99236641221374
9.83,-0.1650390625,-0.736083984375,-0.052734375,30.977099236641223,34.465648854961835,-74.10687022900764
9.84,-0.109130859375,-0.73486328125,-0.068115234375,37.70992366412214,28.0381679389313,-74.68702290076335
9.85,-0.0400390625,-0.672119140625,-0.037109375,43.0763358778626,30.778625954198475,-75.41221374045801
9.86,-0.00390625,-0.614990234375,-0.0146484375,47.81679389312977,33.19847328244275,-75.65648854961832
9.87,0.010498046875,-0.580078125,-0.011962890625,46.00763358778626,35.396946564885496,-76.16793893129771
9.88,0.0048828125,-0.553466796875,0.0,47.87022900763359,29.12213740458015,-75.76335877862596
9.89,0.03369140625,-0.52392578125,0.007568359375,50.343511450381676,31.83969465648855,-74.22137404580153
9.9,0.05859375,-0.486083984375,0.042236328125,51.93893129770992,34.63358778625954,-72.49618320610686
9.91,0.057373046875,-0.467041015625,0.0478515625,55.38931297709924,33.48854961832061,-69.77862595419847
9.92,0.05078125,-0.4306640625,0.059814453125,60.13740458015267,28.17557251908397,-66.06106870229007
9.93,0.124267578125,-0.271240234375,0.11328125,51.35114503816794,35.152671755725194,-60.961832061068705
9.94,0.0869140625,-0.374755859375,0.05029296875,48.68702290076336,41.47328244274809,-53.778625954198475
9.95,0.047607421875,-0.322998046875,0.07470703125,53.916030534351144,33.091603053435115,-48.66412213740458
9.96,0.028076171875,-0.303955078125,0.059814453125,54.770992366412216,19.557251908396946,-37.66412213740458
9.97,0.060302734375,-0.2958984375,0.049560546875,53.51145038167939,36.06870229007634,-26.099236641221374
9.98,-0.01708984375,-0.2861328125,0.055908203125,46.11450381679389,25.81679389312977,-14.854961832061068
9.99,-0.045654296875,-0.287109375,0.033203125,36.93129770992366,13.977099236641221,-3.1603053435114505
10.0,-0.019287109375,-0.2734375,0.052734375,23.81679389312977,12.259541984732824,8.954198473282442
10.01,-0.001953125,-0.29443359375,0.054931640625,16.16030534351145,9.931297709923664,19.69465648854962
10.02,-0.000244140625,-0.292236328125,0.07421875,10.404580152671755,5.251908396946565,31.549618320610687
10.03,-0.017578125,-0.3251953125,0.06298828125,7.755725190839694,3.480916030534351,44.7557251908397
10.04,-0.0146484375,-0.385009765625,0.066162109375,4.656488549618321,8.030534351145038,55.98473282442748
10.05,-0.035400390625,-0.43603515625,0.067626953125,3.5877862595419847,7.816793893129771,64.86259541984732
10.06,-0.0712890625,-0.45751953125,0.07080078125,0.06870229007633588,4.0534351145038165,75.41221374045801
10.07,-0.07373046875,-0.531494140625,0.0361328125,-5.984732824427481,10.114503816793894,83.27480916030534
10.08,-0.0634765625,-0.53662109375,0.067138671875,-19.366412213740457,14.01526717557252,90.77862595419847
10.09,-0.1259765625,-0.6298828125,0.048095703125,-34.603053435114504,15.80916030534351,98.12213740458016
10.1,-0.15478515625,-0.7138671875,0.05419921875,-50.69465648854962,26.12213740458015,103.61068702290076
10.11,-0.20458984375,-0.828369140625,0.022705078125,-59.282442748091604,26.099236641221374,112.54961832061069
10.12,-0.197265625,-0.888671875,0.012939453125,-57.68702290076336,32.43511450381679,120.16793893129771
10.13,-0.255126953125,-1.01025390625,-0.029541015625,-55.38931297709924,34.83969465648855,125.3587786259542
10.14,-0.302978515625,-1.07958984375,-0.038818359375,-54.06106870229008,32.0763358778626,128.1679389312977
10.15,-0.29638671875,-1.110107421875,-0.06005859375,-51.33587786259542,33.36641221374046,129.90076335877862
10.16,-0.287353515625,-1.172607421875,-0.081787109375,-51.17557251908397,32.0763358778626,131.3740458015267
10.17,-0.2880859375,-1.242431640625,-0.07861328125,-52.89312977099237,35.732824427480914,131.70229007633588
10.18,-0.32470703125,-1.335205078125,-0.1171875,-58.656488549618324,42.62595419847328,132.08396946564886
10.19,-0.320556640625,-1.43701171875,-0.1171875,-57.2442748091603,38.534351145038165,131.9618320610687
10.2,-0.361572265625,-1.49462890625,-0.134033203125,-53.33587786259542,35.47328244274809,129.12213740458014
10.21,-0.275146484375,-1.550048828125,-0.108642578125,-49.595419847328245,40.01526717557252,126.52671755725191
10.22,-0.31201171875,-1.6220703125,-0.1435546875,-41.404580152671755,53.3206106870229,119.2824427480916
10.23,-0.3310546875,-1.684814453125,-0.142578125,-31.251908396946565,50.267175572519086,112.83969465648855
10.24,-0.302734375,-1.691650390625,-0.1923828125,-13.16030534351145,55.14503816793893,102.23664122137404
10.25,-0.26220703125,-1.716552734375,-0.201171875,3.6717557251908395,64.4885496183206,92.16030534351145
10.26,-0.274169921875,-1.67529296875,-0.217041015625,18.908396946564885,81.3969465648855,80.25954198473282
10.27,-0.23046875,-1.6484375,-0.2236328125,33.98473282442748,86.19083969465649,67.1526717557252
10.28,-0.249267578125,-1.596435546875,-0.237060546875,51.94656488549618,95.03053435114504,53.20610687022901
10.29,-0.26806640625,-1.55322265625,-0.20849609375,61.908396946564885,95.54198473282443,39.37404580152672
10.3,-0.248291015625,-1.47705078125,-0.175537109375,60.62595419847328,101.34351145038168,23.564885496183205
10.31,-0.276123046875,-1.44970703125,-0.195068359375,70.55725190839695,101.52671755725191,10.549618320610687
10.32,-0.296630859375,-1.387939453125,-0.12841796875,72.67175572519083,102.38931297709924,-2.4732824427480917
10.33,-0.28759765625,-1.373046875,-0.121337890625,75.44274809160305,119.03053435114504,-14.854961832061068
10.34,-0.416015625,-1.282470703125,-0.091064453125,75.7557251908397,110.61068702290076,-27.221374045801525
10.35,-0.416259765625,-1.160888671875,-0.09521484375,67.44274809160305,79.13740458015268,-37.091603053435115
10.36,-0.327392578125,-1.1455078125,-0.131591796875,52.274809160305345,109.26717557251908,-42.541984732824424
10.37,-0.512939453125,-1.12060546875,-0.074462890625,51.725190839694655,75.10687022900764,-47.17557251908397
10.38,-0.4453125,-1.048095703125,-0.049072265625,38.61068702290076,74.53435114503817,-48.6793893129771
10.39,-0.516357421875,-1.06396484375,-0.0458984375,19.16793893129771,60.7557251908397,-47.86259541984733
10.4,-0.50537109375,-1.0849609375,-0.0498046875,8.893129770992367,52.29770992366412,-45.70229007633588
10.41,-0.48486328125,-1.0732421875,-0.027099609375,4.67175572519084,46.18320610687023,-42.152671755725194
10.42,-0.440185546875,-1.060302734375,-0.018798828125,0.40458015267175573,33.81679389312977,-37.81679389312977
10.43,-0.377685546875,-1.053466796875,0.004638671875,0.9083969465648855,27.16030534351145,-35.10687022900763
10.44,-0.35498046875,-1.09716796875,0.01708984375,6.366412213740458,16.893129770992367,-29.221374045801525
10.45,-0.339111328125,-1.121337890625,0.00732421875,12.98473282442748,9.427480916030534,-22.03053435114504
10.46,-0.313720703125,-1.138671875,0.01025390625,21.3206106870229,7.122137404580153,-18.885496183206108
10.47,-0.334716796875,-1.184326171875,-0.0048828125,29.748091603053435,3.4198473282442747,-17.84732824427481
10.48,-0.358642578125,-1.191162109375,-0.0068359375,42.70229007633588,1.297709923664122,-19.38167938931298
10.49,-0.363037109375,-1.16357421875,-0.004150390625,48.6793893129771,-0.6259541984732825,-24.114503816793892
10.5,-0.3623046875,-1.099853515625,0.00390625,45.06106870229008,-0.9083969465648855,-29.53435114503817
10.51,-0.312744140625,-1.0556640625,0.0009765625,32.64885496183206,-0.5648854961832062,-37.16030534351145
10.52,-0.24560546875,-1.001708984375,0.023193359375,15.442748091603054,-0.5954198473282443,-45.51908396946565
10.53,-0.211669921875,-0.99560546875,0.031494140625,-4.847328244274809,-2.33587786259542,-49.770992366412216
10.54,-0.21533203125,-0.993896484375,0.038818359375,-23.15267175572519,-5.229007633587786,-52.55725190839695
10.55,-0.20068359375,-1.000244140625,0.038330078125,-37.030534351145036,-7.091603053435114,-53.57251908396947
10.56,-0.221923828125,-1.02197265625,0.012451171875,-45.64885496183206,-16.18320610687023,-53.06870229007634
10.57,-0.244140625,-1.072021484375,-0.021240234375,-48.87786259541985,-23.870229007633586,-50.81679389312977
10.58,-0.261962890625,-1.114990234375,-0.017822265625,-49.58015267175573,-30.091603053435115,-47.58015267175573
10.59,-0.210205078125,-1.146484375,0.015380859375,-44.274809160305345,-30.595419847328245,-43.603053435114504
10.6,-0.171630859375,-1.166015625,0.01318359375,-33.06106870229008,-29.328244274809162,-41.42748091603053
10.61,-0.138427734375,-1.1611328125,0.0244140625,-12.961832061068701,-31.786259541984734,-39.152671755725194
10.62,-0.12646484375,-1.145751953125,0.0185546875,7.1679389312977095,-33.152671755725194,-42.18320610687023
10.63,-0.11328125,-1.1357421875,0.03857421875,23.709923664122137,-28.412213740458014,-44.55725190839695
10.64,-0.083984375,-1.100341796875,0.034423828125,42.79389312977099,-22.99236641221374,-48.06870229007634
10.65,-0.087158203125,-1.043212890625,0.014892578125,58.54961832061068,-23.129770992366414,-53.48854961832061
10.66,-0.07421875,-0.98388671875,-0.00537109375,70.54961832061069,-22.65648854961832,-59.97709923664122
10.67,-0.100341796875,-0.91796875,-0.014892578125,81.50381679389314,-26.17557251908397,-66.29007633587786
10.68,-0.13525390625,-0.830322265625,-0.033935546875,84.78625954198473,-28.38167938931298,-72.91603053435115
10.69,-0.15185546875,-0.751953125,-0.043701171875,83.52671755725191,-33.30534351145038,-78.6793893129771
10.7,-0.166748046875,-0.695556640625,-0.030029296875,77.62595419847328,-37.32824427480916,-83.80916030534351
10.71,-0.16455078125,-0.616455078125,-0.016845703125,69.99236641221374,-44.86259541984733,-88.80916030534351
10.72,-0.15380859375,-0.555419921875,0.00146484375,59.343511450381676,-49.0763358778626,-92.49618320610686
10.73,-0.13427734375,-0.51416015625,0.0263671875,47.83206106870229,-49.93129770992366,-93.77862595419847
10.74,-0.082763671875,-0.36962890625,0.080078125,22.35114503816794,-40.12977099236641,-93.61832061068702
10.75,-0.04638671875,-0.44384765625,0.03857421875,17.68702290076336,-44.11450381679389,-93.74809160305344
10.76,-0.03125,-0.429443359375,0.099853515625,31.17557251908397,-51.916030534351144,-86.73282442748092
10.77,0.08056640625,-0.357177734375,0.123046875,36.3587786259542,-49.091603053435115,-79.06870229007633
10.78,0.11181640625,-0.28076171875,0.173095703125,40.725190839694655,-44.00763358778626,-72.03053435114504
10.79,0.0849609375,-0.263916015625,0.201171875,39.404580152671755,-46.282442748091604,-60.587786259541986
10.8,0.1171875,-0.241943359375,0.187255859375,38.465648854961835,-43.35114503816794,-49.80152671755725
10.81,0.083740234375,-0.236083984375,0.133544921875,34.06106870229008,-48.51145038167939,-37.213740458015266
10.82,0.07373046875,-0.26806640625,0.073974609375,25.068702290076335,-55.55725190839695,-24.198473282442748
10.83,0.081787109375,-0.2734375,0.05712890625,16.633587786259543,-54.35114503816794,-10.305343511450381
10.84,0.078369140625,-0.287353515625,0.057861328125,4.816793893129771,-50.49618320610687,0.19083969465648856
10.85,0.070068359375,-0.3115234375,0.06298828125,-4.648854961832061,-49.18320610687023,12.702290076335878
10.86,0.063720703125,-0.361083984375,0.083984375,-11.717557251908397,-48.786259541984734,22.801526717557252
10.87,0.037109375,-0.4052734375,0.070556640625,-17.045801526717558,-47.45038167938932,32.282442748091604
10.88,-0.008544921875,-0.49169921875,0.068115234375,-19.244274809160306,-43.725190839694655,41.17557251908397
10.89,-0.028564453125,-0.54541015625,0.06884765625,-15.030534351145038,-37.55725190839695,52.44274809160305
10.9,-0.018798828125,-0.57421875,0.05712890625,-7.854961832061068,-26.213740458015266,58.68702290076336
10.91,-0.039306640625,-0.5771484375,0.06640625,-4.6183206106870225,-23.48854961832061,67.50381679389314
10.92,-0.076904296875,-0.617919921875,0.05029296875,-11.946564885496183,-22.954198473282442,74.76335877862596
10.93,-0.093017578125,-0.680419921875,0.034423828125,-30.404580152671755,-12.511450381679388,82.86259541984732
10.94,-0.130859375,-0.74609375,0.008056640625,-47.69465648854962,-3.0610687022900764,91.06106870229007
10.95,-0.1611328125,-0.81494140625,-0.02197265625,-57.81679389312977,0.9312977099236641,98.32824427480917
10.96,-0.170654296875,-0.873291015625,-0.035400390625,-60.02290076335878,1.7938931297709924,101.99236641221374
10.97,-0.178466796875,-0.9248046875,-0.035400390625,-59.48854961832061,2.2519083969465647,108.52671755725191
10.98,-0.18896484375,-0.96240234375,-0.060791015625,-60.52671755725191,1.6793893129770991,112.80916030534351
10.99,-0.208984375,-1.045166015625,-0.0810546875,-64.59541984732824,2.7709923664122136,116.91603053435115
11.0,-0.22265625,-1.094482421875,-0.0859375,-70.06870229007633,2.8396946564885495,119.26717557251908
11.01,-0.2587890625,-1.1826171875,-0.102294921875,-64.69465648854961,-3.3053435114503817,122.08396946564885
11.02,-0.193115234375,-1.195068359375,-0.05712890625,-70.58015267175573,10.938931297709924,124.1526717557252
11.03,-0.311279296875,-1.23779296875,-0.064697265625,-81.6412213740458,12.534351145038167,122.2442748091603
11.04,-0.311279296875,-1.340087890625,-0.116943359375,-78.74809160305344,17.580152671755727,120.25190839694656
11.05,-0.4150390625,-1.40673828125,-0.16064453125,-67.48091603053435,14.854961832061068,117.55725190839695
11.06,-0.355224609375,-1.44921875,-0.1416015625,-53.267175572519086,6.679389312977099,116.16030534351145
11.07,-0.346923828125,-1.450439453125,-0.122802734375,-45.30534351145038,10.007633587786259,113.3969465648855
11.08,-0.364990234375,-1.488525390625,-0.141357421875,-41.030534351145036,17.3206106870229,111.42748091603053
11.09,-0.382568359375,-1.52685546875,-0.168701171875,-33.25190839694657,21.732824427480917,108.43511450381679
11.1,-0.419189453125,-1.534912109375,-0.17333984375,-27.862595419847327,26.19083969465649,107.38931297709924
11.11,-0.43701171875,-1.586669921875,-0.17333984375,-23.84732824427481,26.65648854961832,102.65648854961832
11.12,-0.476318359375,-1.640625,-0.21533203125,-14.587786259541986,14.34351145038168,97.87022900763358
11.13,-0.377197265625,-1.597900390625,-0.1953125,-5.732824427480916,32.06870229007634,92.83206106870229
11.14,-0.40966796875,-1.59423828125,-0.191650390625,5.3893129770992365,22.259541984732824,85.0381679389313
11.15,-0.33251953125,-1.537841796875,-0.184814453125,1.3206106870229009,42.12213740458015,75.37404580152672
11.16,-0.41015625,-1.55078125,-0.197998046875,5.083969465648855,29.633587786259543,66.48091603053435
11.17,-0.3564453125,-1.50732421875,-0.16943359375,3.122137404580153,30.595419847328245,56.603053435114504
11.18,-0.44580078125,-1.51611328125,-0.2119140625,6.244274809160306,28.984732824427482,41.93129770992366
11.19,-0.34521484375,-1.477294921875,-0.183837890625,5.549618320610687,23.977099236641223,29.50381679389313
11.2,-0.35791015625,-1.466796875,-0.1875,3.6030534351145036,27.022900763358777,15.938931297709924
11.21,-0.4033203125,-1.423095703125,-0.19091796875,1.16793893129771,18.763358778625953,3.564885496183206
