Time(s),AccX,AccY,AccZ,GyrX,GyrY,GyrZ
0.0,0.101318359375,-0.994873046875,0.241455078125,0.22900763358778625,0.7938931297709924,0.31297709923664124
0.01,0.09765625,-0.994384765625,0.228759765625,0.11450381679389313,0.7709923664122137,0.15267175572519084
0.02,0.1015625,-0.99755859375,0.2265625,-0.16793893129770993,0.40458015267175573,0.08396946564885496
0.03,0.09814453125,-1.006103515625,0.22802734375,0.06870229007633588,0.08396946564885496,0.16793893129770993
0.04,0.1005859375,-1.0068359375,0.228515625,0.3816793893129771,0.15267175572519084,0.1450381679389313
0.05,0.100830078125,-1.00439453125,0.228271484375,0.33587786259541985,-0.1450381679389313,0.13740458015267176
0.06,0.1064453125,-1.003662109375,0.2431640625,0.31297709923664124,-0.16793893129770993,0.3969465648854962
0.07,0.105712890625,-0.986572265625,0.2431640625,-0.42748091603053434,-1.8854961832061068,0.648854961832061
0.08,0.11474609375,-1.013427734375,0.23388671875,0.5114503816793893,0.45038167938931295,1.2442748091603053
0.09,0.1044921875,-0.995849609375,0.23095703125,0.5954198473282443,0.7709923664122137,1.5038167938931297
0.1,0.112060546875,-0.985595703125,0.232421875,0.15267175572519084,1.1603053435114503,1.6488549618320612
0.11,0.10693359375,-0.9833984375,0.22705078125,-0.06870229007633588,1.3053435114503817,1.6564885496183206
0.12,0.103271484375,-0.980224609375,0.22607421875,-0.7938931297709924,1.0763358778625953,1.4122137404580153
0.13,0.1015625,-0.98974609375,0.215576171875,-0.8320610687022901,0.6564885496183206,1.251908396946565
0.14,0.105712890625,-0.99853515625,0.223876953125,-0.9694656488549618,0.5954198473282443,0.9618320610687023
0.15,0.1015625,-0.9853515625,0.22900390625,-0.8625954198473282,0.3893129770992366,0.8396946564885496
0.16,0.09521484375,-0.989013671875,0.2236328125,-1.0229007633587786,0.20610687022900764,0.7862595419847328
0.17,0.099609375,-0.995361328125,0.22802734375,-1.0305343511450382,-1.9236641221374047,0.9770992366412213
0.18,0.104736328125,-0.997802734375,0.2216796875,-0.7786259541984732,0.03816793893129771,1.2061068702290076
0.19,0.099609375,-1.004150390625,0.22412109375,-0.40458015267175573,0.37404580152671757,1.3435114503816794
0.2,0.107666015625,-1.012451171875,0.22705078125,-0.11450381679389313,0.816793893129771,1.4045801526717556
0.21,0.10205078125,-0.995361328125,0.2197265625,0.183206106870229,1.2061068702290076,1.4885496183206106
0.22,0.102294921875,-0.993896484375,0.21875,-0.0916030534351145,1.5725190839694656,1.5267175572519085
0.23,0.09375,-0.984130859375,0.230224609375,-0.3893129770992366,1.0687022900763359,1.5267175572519085
0.24,0.0927734375,-0.9833984375,0.22802734375,-0.6717557251908397,1.015267175572519,1.8015267175572518
0.25,0.096435546875,-0.9892578125,0.228515625,-0.8091603053435115,0.2748091603053435,1.83206106870229
0.26,0.099609375,-0.9951171875,0.22412109375,-0.6564885496183206,-0.04580152671755725,1.7938931297709924
0.27,0.08154296875,-0.998046875,0.22119140625,-0.6259541984732825,-0.46564885496183206,1.8854961832061068
0.28,0.096435546875,-1.010986328125,0.22412109375,-1.0687022900763359,-0.9312977099236641,1.7786259541984732
0.29,0.098876953125,-1.015380859375,0.233154296875,-1.5648854961832062,-0.6946564885496184,1.786259541984733
0.3,0.09033203125,-1.00390625,0.227294921875,-1.6488549618320612,-0.5801526717557252,2.2442748091603053
0.31,0.093017578125,-1.000244140625,0.228271484375,-1.5801526717557253,-0.9389312977099237,2.6793893129770994
0.32,0.0869140625,-1.004150390625,0.23974609375,-1.2213740458015268,-1.3893129770992367,3.045801526717557
0.33,0.0947265625,-0.99755859375,0.232177734375,-0.9694656488549618,-1.549618320610687,3.4427480916030535
0.34,0.082275390625,-0.994384765625,0.239990234375,-0.816793893129771,-2.0916030534351147,3.49618320610687
0.35,0.096435546875,-0.995849609375,0.24951171875,-1.3282442748091603,-2.145038167938931,3.1297709923664123
0.36,0.09619140625,-0.985107421875,0.250732421875,-1.9083969465648856,-3.900763358778626,2.3282442748091605
0.37,0.088623046875,-1.01220703125,0.25830078125,-2.572519083969466,-1.8854961832061068,1.3587786259541985
0.38,0.0791015625,-1.0205078125,0.2548828125,-3.1755725190839694,-1.9465648854961832,0.4732824427480916
0.39,0.074951171875,-1.03125,0.25634765625,-3.49618320610687,-1.8396946564885497,0.2900763358778626
0.4,0.072021484375,-1.037109375,0.2451171875,-3.435114503816794,-1.7557251908396947,0.549618320610687
0.41,0.085693359375,-1.03076171875,0.259765625,-3.053435114503817,-1.4580152671755726,1.3206106870229009
0.42,0.08349609375,-1.028076171875,0.259765625,-2.198473282442748,-1.0610687022900764,2.2061068702290076
0.43,0.0888671875,-1.005859375,0.23681640625,-1.8396946564885497,-0.26717557251908397,2.8473282442748094
0.44,0.087646484375,-0.987060546875,0.251953125,-1.3740458015267176,0.15267175572519084,3.213740458015267
0.45,0.07861328125,-0.9716796875,0.245361328125,-1.0916030534351144,1.0229007633587786,3.66412213740458
0.46,0.06689453125,-0.962158203125,0.245361328125,-1.1984732824427482,1.083969465648855,3.7099236641221376
0.47,0.064697265625,-0.9541015625,0.251708984375,-1.5114503816793894,1.1526717557251909,4.0458015267175576
0.48,0.052978515625,-0.965087890625,0.25,-2.0,1.6564885496183206,4.129770992366412
0.49,0.051025390625,-0.974853515625,0.247314453125,-1.5114503816793894,1.83206106870229,4.183206106870229
0.5,0.043701171875,-0.977294921875,0.243896484375,-0.6946564885496184,2.183206106870229,4.2748091603053435
0.51,0.044189453125,-0.975341796875,0.253173828125,0.2748091603053435,2.0839694656488548,4.366412213740458
0.52,0.04736328125,-0.973876953125,0.244384765625,1.1603053435114503,2.1526717557251906,4.442748091603053
0.53,0.040283203125,-0.96630859375,0.26318359375,2.145038167938931,1.8854961832061068,3.7786259541984735
0.54,0.03662109375,-0.952880859375,0.262939453125,2.618320610687023,1.5954198473282444,3.435114503816794
0.55,0.037109375,-0.94384765625,0.26025390625,3.068702290076336,1.1984732824427482,2.9389312977099236
0.56,0.044677734375,-0.923828125,0.2470703125,3.099236641221374,0.44274809160305345,2.366412213740458
0.57,0.031494140625,-0.916748046875,0.23486328125,2.572519083969466,0.22137404580152673,1.9694656488549618
0.58,0.03857421875,-0.912109375,0.204345703125,1.4198473282442747,-0.32061068702290074,1.183206106870229
0.59,0.046142578125,-0.951904296875,0.19677734375,-0.33587786259541985,-0.40458015267175573,0.3435114503816794
0.6,0.052734375,-0.958740234375,0.186767578125,-2.595419847328244,-0.3969465648854962,-0.6335877862595419
0.61,0.07177734375,-0.989990234375,0.19091796875,-4.213740458015267,-0.549618320610687,-1.3969465648854962
0.62,0.072509765625,-1.02392578125,0.20361328125,-4.885496183206107,-0.7786259541984732,-1.6641221374045803
0.63,0.0849609375,-1.05078125,0.2041015625,-4.984732824427481,-0.5572519083969466,-3.83206106870229
0.64,0.086669921875,-1.056640625,0.2255859375,-4.770992366412214,-0.7938931297709924,-1.1526717557251909
0.65,0.085693359375,-1.06005859375,0.244140625,-3.5801526717557253,-0.6030534351145038,-0.7404580152671756
0.66,0.0751953125,-1.047119140625,0.25146484375,-2.9923664122137406,-0.6335877862595419,-0.5038167938931297
0.67,0.0576171875,-1.054931640625,0.25439453125,-2.7786259541984735,-1.0305343511450382,-0.6564885496183206
0.68,0.032958984375,-1.05810546875,0.2724609375,-2.6259541984732824,-1.1450381679389312,-1.0076335877862594
0.69,0.0224609375,-1.044189453125,0.26171875,-2.381679389312977,-1.3206106870229009,-0.9389312977099237
0.7,0.026123046875,-1.024658203125,0.253173828125,-1.8473282442748091,-0.9007633587786259,-0.48091603053435117
0.71,0.02490234375,-1.0107421875,0.239990234375,-1.0,-0.6793893129770993,-0.07633587786259542
0.72,0.038818359375,-0.98583984375,0.23388671875,-0.4351145038167939,-0.1984732824427481,0.4351145038167939
0.73,0.049072265625,-0.993896484375,0.242431640625,0.3053435114503817,0.2900763358778626,1.0381679389312977
0.74,0.056640625,-0.976318359375,0.234375,0.4961832061068702,0.9618320610687023,1.16793893129771
0.75,0.06005859375,-0.953369140625,0.230712890625,-0.11450381679389313,1.4961832061068703,1.5801526717557253
0.76,0.06982421875,-0.948486328125,0.222412109375,-1.0458015267175573,2.351145038167939,1.5801526717557253
0.77,0.066650390625,-0.952392578125,0.2197265625,-1.3587786259541985,2.5877862595419847,1.1984732824427482
0.78,0.052490234375,-0.948486328125,0.227294921875,-1.8931297709923665,2.6030534351145036,0.7404580152671756
0.79,0.0498046875,-0.964599609375,0.22119140625,-2.49618320610687,2.122137404580153,-0.22137404580152673
0.8,0.039306640625,-0.96484375,0.21533203125,-2.1374045801526718,1.1908396946564885,-0.8549618320610687
0.81,0.024658203125,-0.984130859375,0.222900390625,-1.7251908396946565,-0.26717557251908397,-1.3282442748091603
0.82,0.022216796875,-0.990234375,0.220458984375,-1.4580152671755726,-1.5267175572519085,-2.0381679389312977
0.83,0.01953125,-1.0048828125,0.222412109375,-1.4580152671755726,-2.183206106870229,-2.5267175572519083
0.84,0.029052734375,-1.011474609375,0.237060546875,-1.748091603053435,-2.519083969465649,-3.0610687022900764
0.85,0.044921875,-1.02099609375,0.220703125,-1.6106870229007633,-1.8625954198473282,-2.8473282442748094
0.86,0.048095703125,-1.016845703125,0.230712890625,-2.2900763358778624,-1.9312977099236641,-2.8091603053435112
0.87,0.04638671875,-1.01416015625,0.245361328125,-2.564885496183206,-1.0763358778625953,-2.1526717557251906
0.88,0.046142578125,-1.008544921875,0.239990234375,-2.572519083969466,-0.732824427480916,-1.6564885496183206
0.89,0.0380859375,-1.00146484375,0.23486328125,-2.7557251908396947,-1.0763358778625953,-1.183206106870229
0.9,0.038818359375,-0.996337890625,0.234375,-2.5877862595419847,-1.099236641221374,-0.8396946564885496
0.91,0.034912109375,-0.9970703125,0.239013671875,-2.564885496183206,-1.465648854961832,-0.8015267175572519
0.92,0.02783203125,-0.997314453125,0.234619140625,-2.7404580152671754,-1.7633587786259541,-0.6030534351145038
0.93,0.025390625,-0.9892578125,0.227294921875,-2.7022900763358777,-2.4198473282442747,-0.6183206106870229
0.94,0.01708984375,-0.9970703125,0.225341796875,-2.6717557251908395,-2.969465648854962,-0.48854961832061067
0.95,0.037353515625,-0.984619140625,0.2158203125,-2.6717557251908395,-2.885496183206107,-0.17557251908396945
0.96,0.037109375,-1.0,0.21044921875,-2.49618320610687,-2.7709923664122136,-0.4732824427480916
0.97,0.058837890625,-1.0048828125,0.212646484375,-2.6106870229007635,-2.4198473282442747,-0.7557251908396947
0.98,0.064208984375,-1.00244140625,0.218994140625,-2.3282442748091605,-0.015267175572519083,-0.7786259541984732
0.99,0.0732421875,-0.99853515625,0.222900390625,-1.7786259541984732,-1.6641221374045803,-1.0229007633587786
1.0,0.06591796875,-0.989990234375,0.224365234375,-1.4122137404580153,-1.0305343511450382,-1.1221374045801527
1.01,0.0595703125,-0.997802734375,0.2314453125,-1.1450381679389312,-0.6717557251908397,-1.16793893129771
1.02,0.052001953125,-0.98779296875,0.212646484375,-1.1374045801526718,-0.5038167938931297,-1.465648854961832
1.03,0.05419921875,-0.99951171875,0.203857421875,-1.0458015267175573,-0.31297709923664124,-1.6793893129770991
1.04,0.0390625,-1.00244140625,0.2138671875,-1.1221374045801527,-0.8320610687022901,-2.2595419847328246
1.05,0.035888671875,-0.9990234375,0.218505859375,-1.8549618320610688,-1.3358778625954197,-2.7480916030534353
1.06,0.035888671875,-1.008056640625,0.216064453125,-1.4198473282442747,-0.916030534351145,-2.885496183206107
1.07,0.0517578125,-1.0048828125,0.21875,-0.732824427480916,-0.5648854961832062,-2.801526717557252
1.08,0.0498046875,-1.014404296875,0.21728515625,-0.2900763358778626,-0.16030534351145037,-2.7786259541984735
1.09,0.07763671875,-0.9970703125,0.217529296875,-0.16793893129770993,0.5648854961832062,-2.6259541984732824
1.1,0.06982421875,-1.0,0.22607421875,-0.48854961832061067,1.1374045801526718,-2.7709923664122136
1.11,0.061767578125,-1.0068359375,0.221923828125,-0.4580152671755725,1.4885496183206106,-2.877862595419847
1.12,0.0615234375,-1.00341796875,0.221435546875,-0.29770992366412213,1.3511450381679388,-3.2213740458015265
1.13,0.058837890625,-0.998046875,0.232421875,-0.732824427480916,1.2900763358778626,-3.480916030534351
1.14,0.063720703125,-0.995849609375,0.225830078125,-0.6641221374045801,0.8320610687022901,-3.572519083969466
1.15,0.05615234375,-0.99560546875,0.231689453125,-0.31297709923664124,0.7175572519083969,-3.3206106870229006
1.16,0.05712890625,-0.992919921875,0.225341796875,-0.40458015267175573,0.4198473282442748,-3.4656488549618323
1.17,0.076171875,-0.996826171875,0.226318359375,-0.7022900763358778,0.9389312977099237,-3.33587786259542
1.18,0.072021484375,-1.005859375,0.220947265625,-0.8702290076335878,1.366412213740458,-3.5877862595419847
1.19,0.069091796875,-0.9990234375,0.2255859375,-1.0763358778625953,1.4351145038167938,-3.572519083969466
1.2,0.067626953125,-0.996826171875,0.227294921875,-1.0687022900763359,1.717557251908397,-3.5572519083969465
1.21,0.090576171875,-1.01513671875,0.227294921875,-1.2213740458015268,2.3282442748091605,-3.8091603053435112
1.22,0.08251953125,-1.00146484375,0.226806640625,-1.0763358778625953,2.954198473282443,-4.0534351145038165
1.23,0.082763671875,-0.98681640625,0.227294921875,-0.7862595419847328,3.5343511450381677,-4.305343511450381
1.24,0.077880859375,-0.995849609375,0.233642578125,-0.732824427480916,3.8396946564885495,-4.557251908396947
1.25,0.0791015625,-0.994384765625,0.205810546875,-1.3511450381679388,1.9541984732824427,-4.396946564885496
1.26,0.08447265625,-0.9990234375,0.208251953125,-1.5572519083969465,3.885496183206107,-4.351145038167939
1.27,0.083984375,-1.005126953125,0.222900390625,-1.534351145038168,5.816793893129771,-3.931297709923664
1.28,0.085693359375,-1.010498046875,0.230712890625,-1.3206106870229009,4.076335877862595,-3.8091603053435112
1.29,0.072265625,-1.01123046875,0.213134765625,-1.2748091603053435,4.190839694656488,-3.885496183206107
1.3,0.072509765625,-0.9970703125,0.213134765625,-1.4198473282442747,4.129770992366412,-3.9770992366412212
1.31,0.047607421875,-0.991943359375,0.230224609375,-1.1526717557251909,3.8931297709923665,-3.984732824427481
1.32,0.062255859375,-0.995849609375,0.22265625,-1.099236641221374,3.2290076335877864,-3.8702290076335877
1.33,0.058349609375,-0.997314453125,0.220947265625,-1.0687022900763359,2.7022900763358777,-3.9236641221374047
1.34,0.057373046875,-1.0048828125,0.219970703125,-0.7480916030534351,2.030534351145038,-3.763358778625954
1.35,0.061279296875,-1.00244140625,0.227783203125,-0.9236641221374046,1.4732824427480915,-3.6259541984732824
1.36,0.0615234375,-1.0048828125,0.233642578125,-0.8091603053435115,1.1221374045801527,-3.427480916030534
1.37,0.07080078125,-0.989013671875,0.224609375,-0.5343511450381679,1.3282442748091603,-3.1755725190839694
1.38,0.07080078125,-0.98583984375,0.230224609375,-0.7938931297709924,1.0763358778625953,-2.8931297709923665
1.39,0.07421875,-1.00244140625,0.220703125,-0.8396946564885496,1.16793893129771,-2.7709923664122136
1.4,0.083984375,-1.015380859375,0.228271484375,-0.37404580152671757,1.0687022900763359,-2.595419847328244
1.41,0.0830078125,-0.995361328125,0.224853515625,-0.3282442748091603,1.0687022900763359,-2.595419847328244
1.42,0.084716796875,-0.99169921875,0.220458984375,-0.3511450381679389,1.0305343511450382,-2.801526717557252
1.43,0.092041015625,-0.987060546875,0.224853515625,-0.5267175572519084,0.7862595419847328,-2.8625954198473282
1.44,0.0927734375,-0.987060546875,0.226806640625,-0.5801526717557252,0.6335877862595419,-3.015267175572519
1.45,0.084228515625,-0.985595703125,0.228759765625,-0.916030534351145,0.7251908396946565,-3.519083969465649
1.46,0.08251953125,-0.9853515625,0.2470703125,-1.0,0.6030534351145038,-3.5801526717557253
1.47,0.0791015625,-0.982177734375,0.225341796875,-1.083969465648855,0.7099236641221374,-3.6030534351145036
1.48,0.085205078125,-0.9873046875,0.23388671875,-1.0,0.8473282442748091,-3.351145038167939
1.49,0.080322265625,-0.988525390625,0.230712890625,-1.1984732824427482,0.7709923664122137,-3.2900763358778624
1.5,0.0830078125,-0.99072265625,0.2353515625,-1.2748091603053435,1.3206106870229009,-3.2061068702290076
1.51,0.08935546875,-0.99267578125,0.23876953125,-1.4122137404580153,1.6030534351145038,-3.0
1.52,0.092041015625,-0.995361328125,0.232421875,-1.381679389312977,1.7557251908396947,-2.9389312977099236
1.53,0.083740234375,-0.99658203125,0.242431640625,-1.6106870229007633,1.6259541984732824,-2.6412213740458017
1.54,0.084716796875,-0.985595703125,0.239013671875,-1.6946564885496183,1.6870229007633588,-2.6564885496183206
1.55,0.083740234375,-1.007080078125,0.246337890625,-0.9312977099236641,1.5267175572519085,-2.381679389312977
1.56,0.08154296875,-1.0029296875,0.234619140625,-0.5648854961832062,1.3740458015267176,-2.6106870229007635
1.57,0.07421875,-1.00146484375,0.2373046875,-0.5343511450381679,0.9847328244274809,-2.3282442748091605
1.58,0.074462890625,-0.9970703125,0.238525390625,-0.6335877862595419,0.6564885496183206,-2.480916030534351
1.59,0.072021484375,-0.989013671875,0.236572265625,-0.9770992366412213,0.35877862595419846,-2.5114503816793894
1.6,0.07568359375,-0.98876953125,0.229736328125,-1.1297709923664123,-0.10687022900763359,-2.5267175572519083
1.61,0.088623046875,-0.993896484375,0.22216796875,-0.9618320610687023,-0.1450381679389313,-2.450381679389313
1.62,0.08447265625,-0.989990234375,0.23876953125,-1.2442748091603053,-0.1297709923664122,-2.2442748091603053
1.63,0.09814453125,-0.988525390625,0.228759765625,-1.3587786259541985,-0.22137404580152673,-2.50381679389313
1.64,0.09716796875,-0.991455078125,0.231689453125,-1.4580152671755726,0.09923664122137404,-2.6412213740458017
1.65,0.094970703125,-0.99609375,0.228759765625,-1.6564885496183206,-0.22900763358778625,-2.519083969465649
1.66,0.091552734375,-0.986328125,0.232666015625,-1.9312977099236641,0.1984732824427481,-2.6717557251908395
1.67,0.09326171875,-0.99072265625,0.227783203125,-1.6412213740458015,0.07633587786259542,-2.3587786259541983
1.68,0.093017578125,-0.97802734375,0.228759765625,-1.7633587786259541,-0.030534351145038167,-2.2748091603053435
1.69,0.087646484375,-0.990966796875,0.22998046875,-2.0,0.06870229007633588,-2.145038167938931
1.7,0.085205078125,-0.989990234375,0.224609375,-2.2595419847328246,-1.9541984732824427,-1.9236641221374047
1.71,0.083251953125,-0.999755859375,0.222412109375,-2.1603053435114505,-0.15267175572519084,-1.7709923664122138
1.72,0.08203125,-1.006103515625,0.221435546875,-2.015267175572519,-0.3816793893129771,-1.9236641221374047
1.73,0.082275390625,-1.00146484375,0.225341796875,-1.6259541984732824,-0.3435114503816794,-1.5725190839694656
1.74,0.08984375,-1.00146484375,0.22705078125,-1.8473282442748091,-0.21374045801526717,-1.5801526717557253
1.75,0.087890625,-1.00244140625,0.21875,-2.0,-0.12213740458015267,-1.3053435114503817
1.76,0.09228515625,-1.009521484375,0.22216796875,-1.6030534351145038,-0.2366412213740458,-1.3053435114503817
1.77,0.08935546875,-1.00146484375,0.223388671875,-1.7938931297709924,-0.4122137404580153,-1.3587786259541985
1.78,0.094970703125,-1.002197265625,0.223388671875,-1.5954198473282444,-0.4961832061068702,-1.0610687022900764
1.79,0.08984375,-0.997802734375,0.22021484375,-1.1755725190839694,-0.4732824427480916,-1.1908396946564885
1.8,0.086669921875,-0.997802734375,0.226318359375,-1.1068702290076335,-0.5801526717557252,-1.282442748091603
1.81,0.090087890625,-0.99853515625,0.249755859375,-1.0076335877862594,-0.5114503816793893,-1.1603053435114503
1.82,0.0830078125,-0.995361328125,0.227783203125,-0.9236641221374046,-0.549618320610687,-1.1526717557251909
1.83,0.081787109375,-0.99072265625,0.2197265625,-1.3587786259541985,-0.5343511450381679,-1.2900763358778626
1.84,0.083984375,-0.991455078125,0.226318359375,-1.282442748091603,-0.5877862595419847,-1.0916030534351144
1.85,0.0859375,-0.99462890625,0.220947265625,-1.5572519083969465,-0.37404580152671757,-1.015267175572519
1.86,0.091552734375,-0.99365234375,0.230712890625,-1.748091603053435,-0.16030534351145037,-0.7404580152671756
1.87,0.093017578125,-1.000244140625,0.2275390625,-1.4045801526717556,0.45038167938931295,-0.4351145038167939
1.88,0.099609375,-1.005126953125,0.225830078125,-1.2671755725190839,0.549618320610687,-0.6335877862595419
1.89,0.098388671875,-1.00439453125,0.232421875,-1.1908396946564885,0.5877862595419847,-0.7557251908396947
1.9,0.08935546875,-0.9873046875,0.220947265625,-0.7557251908396947,0.7862595419847328,-0.7099236641221374
1.91,0.089599609375,-1.008544921875,0.21875,-0.5877862595419847,1.0458015267175573,-0.732824427480916
1.92,0.089599609375,-0.995849609375,0.22900390625,-0.732824427480916,1.1221374045801527,-0.8549618320610687
1.93,0.0869140625,-1.001953125,0.226318359375,-0.6870229007633588,1.1068702290076335,-0.9770992366412213
1.94,0.0810546875,-0.990966796875,0.222900390625,-1.450381679389313,0.8015267175572519,-1.083969465648855
1.95,0.08447265625,-0.995361328125,0.224365234375,-1.465648854961832,0.648854961832061,-1.2366412213740459
1.96,0.0791015625,-0.993408203125,0.224365234375,-1.3969465648854962,0.9694656488549618,-1.1908396946564885
1.97,0.06494140625,-0.995361328125,0.225341796875,-1.2442748091603053,0.7480916030534351,-1.16793893129771
1.98,0.063720703125,-0.99072265625,0.23095703125,-0.8244274809160306,0.7862595419847328,-0.8702290076335878
1.99,0.079345703125,-0.99609375,0.23291015625,-1.099236641221374,0.8625954198473282,-0.8549618320610687
2.0,0.075927734375,-1.00390625,0.2255859375,-1.3206106870229009,0.6412213740458015,-0.8320610687022901
2.01,0.08154296875,-0.995361328125,0.224365234375,-0.6564885496183206,0.7709923664122137,-0.6717557251908397
2.02,0.078369140625,-0.999755859375,0.221923828125,-0.6106870229007634,0.40458015267175573,-0.6564885496183206
2.03,0.081298828125,-0.995361328125,0.223388671875,-0.6946564885496184,0.40458015267175573,-0.732824427480916
2.04,0.090087890625,-0.990478515625,0.21533203125,-0.916030534351145,0.40458015267175573,-0.6717557251908397
2.05,0.080078125,-0.98876953125,0.223388671875,-1.1068702290076335,0.2366412213740458,-0.6641221374045801
2.06,0.0810546875,-0.99365234375,0.2333984375,-1.2748091603053435,0.22137404580152673,-0.7175572519083969
2.07,0.0791015625,-0.999755859375,0.224609375,-1.6030534351145038,-0.22900763358778625,-0.8091603053435115
2.08,0.081787109375,-0.995361328125,0.228759765625,-1.366412213740458,-0.10687022900763359,-0.9312977099236641
2.09,0.087646484375,-0.997314453125,0.22265625,-1.6870229007633588,-0.09923664122137404,-1.1145038167938932
2.1,0.08837890625,-0.99267578125,0.23095703125,-1.6259541984732824,0.09923664122137404,-0.9465648854961832
2.11,0.08740234375,-0.995849609375,0.21875,-1.5038167938931297,0.16030534351145037,-0.9847328244274809
2.12,0.08251953125,-0.992919921875,0.23193359375,-1.5190839694656488,0.11450381679389313,-0.9770992366412213
2.13,0.082763671875,-0.991455078125,0.23046875,-1.450381679389313,0.11450381679389313,-0.9389312977099237
2.14,0.08642578125,-1.004638671875,0.229248046875,-1.3282442748091603,0.10687022900763359,-0.7709923664122137
2.15,0.091552734375,-1.00146484375,0.233154296875,-0.816793893129771,0.183206106870229,-0.8854961832061069
2.16,0.07861328125,-1.000244140625,0.2314453125,-0.8625954198473282,0.5877862595419847,-0.8854961832061069
2.17,0.083740234375,-0.995849609375,0.218994140625,-1.015267175572519,0.8320610687022901,-0.9465648854961832
2.18,0.081787109375,-0.996826171875,0.219482421875,-1.1221374045801527,0.8091603053435115,-0.9770992366412213
2.19,0.088623046875,-1.000244140625,0.225341796875,-1.0763358778625953,0.9389312977099237,-0.8778625954198473
2.2,0.087890625,-1.01513671875,0.22021484375,-0.916030534351145,0.5877862595419847,-1.099236641221374
2.21,0.089111328125,-0.987060546875,0.224853515625,-0.732824427480916,0.7633587786259542,-1.2442748091603053
2.22,0.092041015625,-0.997802734375,0.22607421875,-0.549618320610687,0.6412213740458015,-1.0916030534351144
2.23,0.079345703125,-0.98876953125,0.222412109375,-0.9465648854961832,0.3511450381679389,-1.465648854961832
2.24,0.075927734375,-1.000732421875,0.216796875,-0.7099236641221374,0.3053435114503817,-1.251908396946565
2.25,0.0810546875,-1.001708984375,0.224853515625,-0.6412213740458015,0.37404580152671757,-1.2290076335877862
2.26,0.079833984375,-0.994384765625,0.224365234375,-0.5267175572519084,0.1450381679389313,-1.1908396946564885
2.27,0.080078125,-0.991455078125,0.218994140625,-0.7480916030534351,-0.015267175572519083,-1.3206106870229009
2.28,0.08251953125,-0.998291015625,0.225341796875,-0.8778625954198473,0.3893129770992366,-1.1450381679389312
2.29,0.08642578125,-0.996826171875,0.20947265625,-0.816793893129771,0.4732824427480916,-1.2213740458015268
2.3,0.08203125,-0.991943359375,0.23193359375,-0.9007633587786259,0.3816793893129771,-1.2366412213740459
2.31,0.080078125,-0.994384765625,0.2275390625,-0.916030534351145,0.40458015267175573,-1.0534351145038168
2.32,0.079833984375,-0.992431640625,0.2099609375,-1.3206106870229009,0.3893129770992366,-0.9465648854961832
2.33,0.081298828125,-0.989013671875,0.225830078125,-1.251908396946565,0.2366412213740458,-0.8396946564885496
2.34,0.076904296875,-0.99609375,0.224853515625,-1.633587786259542,0.11450381679389313,-0.7862595419847328
2.35,0.092041015625,-1.000732421875,0.227294921875,-1.5572519083969465,-1.8931297709923665,-0.7404580152671756
2.36,0.075927734375,-1.005615234375,0.222900390625,-1.5801526717557253,0.022900763358778626,-1.0687022900763359
2.37,0.075439453125,-1.000732421875,0.223388671875,-1.4809160305343512,-0.13740458015267176,-0.9007633587786259
2.38,0.072265625,-0.99609375,0.226806640625,-1.0916030534351144,-0.48091603053435117,-0.9007633587786259
2.39,0.0810546875,-0.99755859375,0.219482421875,-0.9236641221374046,-0.4351145038167939,-0.8396946564885496
2.4,0.082275390625,-0.9951171875,0.221435546875,-1.0076335877862594,-0.48091603053435117,-0.8015267175572519
2.41,0.081298828125,-0.9970703125,0.22265625,-1.083969465648855,-0.1984732824427481,-0.7862595419847328
2.42,0.081787109375,-0.991455078125,0.226806640625,-1.1755725190839694,-0.48091603053435117,-0.7786259541984732
2.43,0.08935546875,-0.993408203125,0.234375,-1.6564885496183206,-0.183206106870229,-0.8854961832061069
2.44,0.088134765625,-0.9931640625,0.23291015625,-1.6641221374045803,1.9312977099236641,-0.9847328244274809
2.45,0.090576171875,-0.991943359375,0.22119140625,-1.5419847328244274,0.08396946564885496,-0.9236641221374046
2.46,0.079833984375,-0.9990234375,0.22802734375,-1.2900763358778626,0.22137404580152673,-1.0
2.47,0.080322265625,-0.999267578125,0.232421875,-1.2442748091603053,0.3511450381679389,-0.9694656488549618
2.48,0.0830078125,-0.992919921875,0.221923828125,-1.1374045801526718,0.549618320610687,-1.3358778625954197
2.49,0.084716796875,-0.994873046875,0.222412109375,-1.0458015267175573,0.7633587786259542,-1.2366412213740459
2.5,0.079345703125,-1.011474609375,0.224609375,-1.099236641221374,0.9389312977099237,-1.4427480916030535
2.51,0.083740234375,-0.991943359375,0.23291015625,-1.366412213740458,0.9312977099236641,-1.5801526717557253
2.52,0.08349609375,-0.993408203125,0.23095703125,-1.5725190839694656,0.8625954198473282,-1.6106870229007633
2.53,0.08251953125,-1.001220703125,0.22705078125,-1.5419847328244274,0.6717557251908397,-1.6030534351145038
2.54,0.082763671875,-0.994140625,0.220947265625,-1.5114503816793894,1.0,-1.717557251908397
2.55,0.0791015625,-1.003173828125,0.2275390625,-1.3282442748091603,0.8931297709923665,-1.7328244274809161
2.56,0.081298828125,-0.999267578125,0.22998046875,-1.297709923664122,0.9312977099236641,-1.8015267175572518
2.57,0.079345703125,-1.001220703125,0.217529296875,-1.0610687022900764,0.9770992366412213,-3.9083969465648853
2.58,0.07666015625,-1.015625,0.22802734375,-0.7633587786259542,1.1526717557251909,-3.8625954198473282
2.59,0.079833984375,-1.004150390625,0.226318359375,-0.21374045801526717,1.083969465648855,-2.030534351145038
2.6,0.08251953125,-1.01416015625,0.233154296875,-0.5343511450381679,1.2900763358778626,-1.9236641221374047
2.61,0.0859375,-1.00439453125,0.2119140625,-1.9541984732824427,1.5877862595419847,-1.9618320610687023
2.62,0.087890625,-0.998291015625,0.219970703125,0.22900763358778625,1.4885496183206106,-1.7328244274809161
2.63,0.09033203125,-0.998046875,0.219482421875,-0.08396946564885496,1.4122137404580153,-1.8244274809160306
2.64,0.0908203125,-1.001953125,0.222412109375,-0.25190839694656486,1.7099236641221374,-1.6259541984732824
2.65,0.090087890625,-0.985107421875,0.2255859375,-0.4122137404580153,1.900763358778626,-1.6870229007633588
2.66,0.08544921875,-0.9912109375,0.203369140625,-0.25190839694656486,2.0076335877862594,-1.702290076335878
2.67,0.086181640625,-0.986572265625,0.223876953125,-0.2366412213740458,2.114503816793893,-1.8244274809160306
2.68,0.081298828125,-0.99853515625,0.218017578125,-0.48854961832061067,1.7938931297709924,-1.8625954198473282
2.69,0.07421875,-0.9931640625,0.218505859375,-0.3816793893129771,1.717557251908397,-2.312977099236641
2.7,0.07177734375,-0.989990234375,0.219482421875,-0.21374045801526717,1.6717557251908397,-2.183206106870229
2.71,0.078125,-0.9951171875,0.218017578125,0.1450381679389313,1.213740458015267,-2.282442748091603
2.72,0.0830078125,-0.994140625,0.218994140625,0.061068702290076333,1.2290076335877862,-2.3435114503816794
2.73,0.08056640625,-0.994140625,0.219482421875,-0.030534351145038167,0.7175572519083969,-2.450381679389313
2.74,0.08349609375,-0.995361328125,0.229736328125,0.08396946564885496,0.48091603053435117,-2.2061068702290076
2.75,0.08544921875,-1.0146484375,0.22802734375,0.11450381679389313,0.4198473282442748,-2.1068702290076335
2.76,0.073974609375,-0.996826171875,0.24951171875,0.1984732824427481,0.3816793893129771,-1.5648854961832062
2.77,0.078125,-1.000732421875,0.232177734375,0.5419847328244275,0.19083969465648856,-1.5038167938931297
2.78,0.079345703125,-0.9990234375,0.226806640625,0.3511450381679389,0.16030534351145037,-1.2290076335877862
2.79,0.08203125,-1.004150390625,0.22509765625,0.16793893129770993,0.022900763358778626,-1.0763358778625953
2.8,0.08251953125,-0.992431640625,0.219482421875,-0.12213740458015267,0.10687022900763359,-0.8244274809160306
2.81,0.086669921875,-0.99267578125,0.22509765625,-0.15267175572519084,0.2748091603053435,-0.7022900763358778
2.82,0.084716796875,-0.993408203125,0.226318359375,-0.366412213740458,0.24427480916030533,-0.8702290076335878
2.83,0.083251953125,-0.992431640625,0.229736328125,-0.6641221374045801,0.24427480916030533,-1.015267175572519
2.84,0.090576171875,-0.98974609375,0.2216796875,-0.7251908396946565,-0.022900763358778626,-1.1145038167938932
2.85,0.087646484375,-0.993408203125,0.228271484375,-0.6870229007633588,-0.09923664122137404,-1.0381679389312977
2.86,0.099853515625,-0.990234375,0.234619140625,-0.48091603053435117,1.9236641221374047,-1.083969465648855
2.87,0.098876953125,-0.990234375,0.23388671875,-0.48854961832061067,-0.10687022900763359,-1.0076335877862594
2.88,0.090576171875,-0.99462890625,0.232421875,-0.48091603053435117,-0.17557251908396945,-1.1603053435114503
2.89,0.096435546875,-0.998779296875,0.23095703125,-0.1984732824427481,1.9312977099236641,-1.099236641221374
2.9,0.087646484375,-0.99658203125,0.209716796875,-0.42748091603053434,0.022900763358778626,-1.3206106870229009
2.91,0.093505859375,-0.992919921875,0.203125,-0.5343511450381679,0.35877862595419846,-1.4580152671755726
2.92,0.0888671875,-0.9931640625,0.219970703125,-0.8091603053435115,-0.061068702290076333,-1.4122137404580153
2.93,0.095703125,-0.99755859375,0.2294921875,-1.2671755725190839,-0.07633587786259542,-1.3129770992366412
2.94,0.090576171875,-1.001953125,0.224853515625,-1.3587786259541985,-0.2900763358778626,-1.282442748091603
2.95,0.08837890625,-0.9931640625,0.22607421875,-1.3358778625954197,-0.3969465648854962,-1.0458015267175573
2.96,0.09228515625,-0.98779296875,0.2333984375,-1.0610687022900764,-0.25190839694656486,-0.8320610687022901
2.97,0.08837890625,-0.999267578125,0.2255859375,-0.7786259541984732,-0.16030534351145037,-0.816793893129771
2.98,0.08349609375,-1.008544921875,0.22412109375,-0.3969465648854962,-0.22900763358778625,-0.8015267175572519
2.99,0.0859375,-1.005615234375,0.227783203125,0.21374045801526717,-0.366412213740458,-0.916030534351145
3.0,0.091064453125,-0.99853515625,0.22265625,0.6106870229007634,-0.7175572519083969,-0.8244274809160306
3.01,0.0927734375,-1.002685546875,0.2353515625,0.5343511450381679,-0.6106870229007634,-0.9236641221374046
3.02,0.082275390625,-1.004150390625,0.220458984375,0.2366412213740458,-0.7862595419847328,-0.9236641221374046
3.03,0.1005859375,-0.995849609375,0.22802734375,0.1450381679389313,-0.7709923664122137,-0.5267175572519084
3.04,0.107421875,-0.999267578125,0.22900390625,0.0916030534351145,-0.09923664122137404,-0.29770992366412213
3.05,0.112060546875,-0.998046875,0.23193359375,0.1297709923664122,0.46564885496183206,-0.15267175572519084
3.06,0.109375,-0.99853515625,0.247802734375,0.19083969465648856,0.8244274809160306,-0.061068702290076333
3.07,0.114990234375,-0.987060546875,0.231201171875,-0.16030534351145037,1.3969465648854962,0.030534351145038167
3.08,0.10546875,-0.9873046875,0.221923828125,-0.2595419847328244,1.3358778625954197,0.1450381679389313
3.09,0.1015625,-0.998291015625,0.22509765625,-0.5343511450381679,1.5801526717557253,0.11450381679389313
3.1,0.095458984375,-0.988037109375,0.2216796875,-0.7251908396946565,1.5267175572519085,0.183206106870229
3.11,0.078857421875,-0.998291015625,0.229736328125,-0.7862595419847328,1.5572519083969465,0.1984732824427481
3.12,0.09033203125,-0.98974609375,0.232177734375,-0.6335877862595419,1.549618320610687,0.37404580152671757
3.13,0.0888671875,-0.9951171875,0.229736328125,-0.9007633587786259,1.5190839694656488,0.7022900763358778
3.14,0.09375,-0.9970703125,0.22900390625,-0.3893129770992366,1.6946564885496183,1.0458015267175573
3.15,0.098876953125,-0.997802734375,0.23046875,-0.19083969465648856,1.5954198473282444,0.9465648854961832
3.16,0.0947265625,-0.996337890625,0.241455078125,-0.3511450381679389,1.381679389312977,1.0381679389312977
3.17,0.09619140625,-0.987548828125,0.243408203125,-0.6183206106870229,1.2442748091603053,0.916030534351145
3.18,0.09912109375,-0.985107421875,0.24169921875,-0.6717557251908397,1.2671755725190839,0.816793893129771
3.19,0.105712890625,-1.0068359375,0.228271484375,-0.6183206106870229,1.16793893129771,0.7557251908396947
3.2,0.100341796875,-1.0,0.233154296875,-0.5725190839694656,1.213740458015267,0.8549618320610687
3.21,0.10107421875,-0.997314453125,0.228271484375,-0.8778625954198473,1.1374045801526718,0.8015267175572519
3.22,0.08935546875,-0.991455078125,0.234619140625,-1.1221374045801527,1.282442748091603,0.8244274809160306
3.23,0.087646484375,-0.99169921875,0.240478515625,-1.4198473282442747,1.618320610687023,0.9694656488549618
3.24,0.088134765625,-0.9853515625,0.238525390625,-1.6946564885496183,1.5801526717557253,0.9923664122137404
3.25,0.082275390625,-0.986572265625,0.23876953125,-2.0610687022900764,1.916030534351145,0.7099236641221374
3.26,0.075927734375,-0.982177734375,0.235107421875,-2.4732824427480917,1.9923664122137406,0.4732824427480916
3.27,0.079345703125,-0.99169921875,0.236083984375,-2.404580152671756,1.7786259541984732,1.9465648854961832
3.28,0.078369140625,-0.988037109375,0.229248046875,-2.450381679389313,1.8549618320610688,-0.1984732824427481
3.29,0.073486328125,-0.987060546875,0.235107421875,-2.351145038167939,1.6030534351145038,-0.16793893129770993
3.3,0.0732421875,-0.991455078125,0.2353515625,-2.1068702290076335,1.3969465648854962,0.2366412213740458
3.31,0.077880859375,-0.98828125,0.22509765625,-2.3206106870229006,1.0305343511450382,0.48854961832061067
3.32,0.087646484375,-0.99560546875,0.223388671875,-2.6259541984732824,0.8396946564885496,0.6870229007633588
3.33,0.089599609375,-0.996826171875,0.218505859375,-3.1603053435114505,0.8854961832061069,0.8778625954198473
3.34,0.087158203125,-0.997314453125,0.223876953125,-3.3053435114503817,1.2061068702290076,0.6870229007633588
3.35,0.0830078125,-0.99462890625,0.2138671875,-3.435114503816794,1.1450381679389312,0.2824427480916031
3.36,0.0849609375,-0.993408203125,0.21923828125,-3.4198473282442747,1.6870229007633588,0.19083969465648856
3.37,0.07861328125,-1.0,0.230712890625,-3.4427480916030535,1.1145038167938932,-0.2366412213740458
3.38,0.05078125,-0.963623046875,0.216796875,-3.885496183206107,2.3740458015267176,1.9083969465648856
3.39,0.059814453125,-1.00634765625,0.197998046875,-4.0458015267175576,-0.29770992366412213,-0.40458015267175573
3.4,0.070068359375,-0.99462890625,0.2236328125,-2.9236641221374047,0.732824427480916,-0.7022900763358778
3.41,0.0771484375,-0.970703125,0.225341796875,-3.6412213740458017,-0.3435114503816794,-0.732824427480916
3.42,0.06103515625,-0.9814453125,0.2216796875,-4.66412213740458,0.46564885496183206,-0.5725190839694656
3.43,0.052490234375,-0.988037109375,0.232177734375,-1.9694656488549618,-0.8473282442748091,-0.42748091603053434
3.44,0.057373046875,-0.984619140625,0.21826171875,-3.381679389312977,-0.8473282442748091,-0.5877862595419847
3.45,0.06201171875,-0.985595703125,0.23046875,-3.3740458015267176,-0.8931297709923665,-0.8320610687022901
3.46,0.064453125,-0.99609375,0.224365234375,-3.183206106870229,-1.8854961832061068,-0.916030534351145
3.47,0.0703125,-0.99755859375,0.216552734375,-3.114503816793893,-1.5954198473282444,-0.8702290076335878
3.48,0.080322265625,-0.99853515625,0.212158203125,-3.312977099236641,-1.5954198473282444,-1.0687022900763359
3.49,0.079345703125,-0.999755859375,0.20849609375,-3.519083969465649,-1.0534351145038168,-0.6183206106870229
3.5,0.08984375,-0.996826171875,0.2109375,-3.6412213740458017,-0.7022900763358778,-0.5877862595419847
3.51,0.096435546875,-0.992431640625,0.2275390625,-4.251908396946565,-0.09923664122137404,-0.4961832061068702
3.52,0.0908203125,-0.998046875,0.224609375,-4.152671755725191,0.0,-0.7099236641221374
3.53,0.0771484375,-1.005615234375,0.218017578125,-4.2748091603053435,0.183206106870229,-0.9236641221374046
3.54,0.066650390625,-1.01513671875,0.2294921875,-4.099236641221374,0.007633587786259542,-1.16793893129771
3.55,0.07421875,-1.010009765625,0.21923828125,-3.984732824427481,0.07633587786259542,-1.2061068702290076
3.56,0.055908203125,-1.014404296875,0.219482421875,-3.5572519083969465,0.11450381679389313,-1.5801526717557253
3.57,0.06201171875,-0.9921875,0.222900390625,-3.1603053435114505,0.0916030534351145,-1.5190839694656488
3.58,0.0576171875,-0.99365234375,0.223876953125,-2.801526717557252,-0.10687022900763359,-1.6946564885496183
3.59,0.062744140625,-0.992919921875,0.218994140625,-2.7709923664122136,-0.19083969465648856,-1.6870229007633588
3.6,0.072509765625,-0.99072265625,0.23095703125,-2.3282442748091605,-0.03816793893129771,-0.9847328244274809
3.61,0.057373046875,-1.001708984375,0.205078125,-3.2748091603053435,-0.6793893129770993,-1.2900763358778626
3.62,0.069091796875,-1.00732421875,0.2470703125,-1.618320610687023,-0.7099236641221374,-1.015267175572519
3.63,0.091552734375,-1.01220703125,0.2236328125,-2.068702290076336,-0.24427480916030533,-0.8091603053435115
3.64,0.062744140625,-1.002685546875,0.243408203125,-1.7251908396946565,-0.33587786259541985,-0.7862595419847328
3.65,0.06591796875,-1.00244140625,0.219482421875,-1.7557251908396947,-0.46564885496183206,-1.2748091603053435
3.66,0.065673828125,-0.999267578125,0.2216796875,-1.8473282442748091,-1.786259541984733,-1.6259541984732824
3.67,0.07177734375,-0.996826171875,0.229736328125,-2.183206106870229,-1.9389312977099236,-1.9236641221374047
3.68,0.06591796875,-1.00634765625,0.234375,-2.1297709923664123,-1.8549618320610688,-2.2213740458015265
3.69,0.093505859375,-1.002197265625,0.241943359375,-1.8091603053435115,-1.4961832061068703,-2.045801526717557
3.7,0.0859375,-0.99658203125,0.248779296875,-1.8778625954198473,-0.6946564885496184,-1.8473282442748091
3.71,0.073486328125,-1.000732421875,0.247314453125,-2.2290076335877864,-0.549618320610687,-1.7633587786259541
3.72,0.082763671875,-1.001220703125,0.2275390625,-2.0839694656488548,-0.6106870229007634,-1.6641221374045803
3.73,0.0810546875,-1.001953125,0.217529296875,-1.4427480916030535,-0.7022900763358778,-1.6106870229007633
3.74,0.081787109375,-1.001220703125,0.22119140625,-1.786259541984733,-0.5954198473282443,-1.2671755725190839
3.75,0.08642578125,-1.006103515625,0.214599609375,-1.9236641221374047,0.030534351145038167,-0.6870229007633588
3.76,0.08203125,-1.02294921875,0.212890625,-2.5343511450381677,1.0763358778625953,-0.5877862595419847
3.77,0.108154296875,-1.016845703125,0.226318359375,-2.3282442748091605,1.8244274809160306,-0.06870229007633588
3.78,0.09521484375,-1.03173828125,0.227783203125,-2.3893129770992365,2.931297709923664,0.2595419847328244
3.79,0.095703125,-1.022705078125,0.232421875,-1.8778625954198473,3.564885496183206,0.4122137404580153
3.8,0.087158203125,-1.01513671875,0.224853515625,-1.3587786259541985,4.076335877862595,0.44274809160305345
3.81,0.093994140625,-1.010498046875,0.2275390625,-0.3511450381679389,4.297709923664122,0.3282442748091603
3.82,0.089111328125,-1.00830078125,0.2294921875,0.09923664122137404,1.9923664122137406,-0.061068702290076333
3.83,0.06982421875,-0.9990234375,0.21875,0.7480916030534351,3.6564885496183206,-0.6259541984732825
3.84,0.07470703125,-0.996337890625,0.205322265625,1.6641221374045803,2.9618320610687023,-0.9847328244274809
3.85,0.050048828125,-1.002197265625,0.205322265625,2.366412213740458,1.984732824427481,-1.1603053435114503
3.86,0.060302734375,-0.99609375,0.195068359375,3.351145038167939,2.213740458015267,-0.8702290076335878
3.87,0.07373046875,-0.999755859375,0.197021484375,3.0916030534351147,1.9389312977099236,-0.8854961832061069
3.88,0.083984375,-0.9921875,0.18017578125,3.0763358778625953,2.6564885496183206,-0.8854961832061069
3.89,0.0849609375,-0.9912109375,0.17626953125,1.6106870229007633,3.8396946564885495,-0.8778625954198473
3.9,0.064453125,-0.98095703125,0.17333984375,1.3435114503816794,4.549618320610687,-1.4427480916030535
3.91,0.069091796875,-0.970458984375,0.185302734375,0.6870229007633588,5.458015267175573,-2.030534351145038
3.92,0.06787109375,-0.9599609375,0.169921875,-0.5419847328244275,5.6106870229007635,-2.969465648854962
3.93,0.04541015625,-0.9619140625,0.166259765625,-0.9389312977099237,4.732824427480916,-3.114503816793893
3.94,0.043212890625,-0.975830078125,0.143310546875,-0.3435114503816794,4.648854961832061,-3.2748091603053435
3.95,0.046875,-1.001220703125,0.142578125,-0.1984732824427481,3.969465648854962,-3.717557251908397
3.96,0.00732421875,-1.01123046875,0.154296875,0.15267175572519084,3.435114503816794,-3.816793893129771
3.97,0.044921875,-1.02392578125,0.15380859375,0.5267175572519084,3.1755725190839694,-5.847328244274809
3.98,0.018798828125,-1.010009765625,0.147705078125,1.282442748091603,2.7022900763358777,-3.8396946564885495
3.99,0.01708984375,-1.014892578125,0.159912109375,0.4732824427480916,2.549618320610687,-3.6946564885496183
4.0,0.020263671875,-1.013916015625,0.137451171875,1.0763358778625953,2.49618320610687,-2.8702290076335877
4.01,0.021484375,-1.0234375,0.14013671875,1.099236641221374,1.366412213740458,-2.1755725190839694
4.02,0.031982421875,-1.034912109375,0.141357421875,1.9465648854961832,1.3511450381679388,-0.9007633587786259
4.03,0.039794921875,-1.02490234375,0.15234375,1.5801526717557253,2.2748091603053435,0.1297709923664122
4.04,0.057861328125,-1.032470703125,0.16552734375,1.3358778625954197,3.4580152671755724,0.9618320610687023
4.05,0.0751953125,-1.025390625,0.182373046875,0.8702290076335878,5.305343511450381,1.0916030534351144
4.06,0.08056640625,-1.02197265625,0.1787109375,0.5038167938931297,6.740458015267175,0.9770992366412213
4.07,0.081787109375,-1.023193359375,0.18310546875,0.7709923664122137,6.938931297709924,0.5954198473282443
4.08,0.07861328125,-1.023681640625,0.1884765625,1.633587786259542,7.0458015267175576,0.1297709923664122
4.09,0.080078125,-1.01953125,0.191650390625,3.1297709923664123,7.435114503816794,0.061068702290076333
4.1,0.076416015625,-1.025634765625,0.194091796875,4.221374045801527,5.916030534351145,-0.17557251908396945
4.11,0.0712890625,-1.017822265625,0.2080078125,5.465648854961832,8.01526717557252,-0.9007633587786259
4.12,0.04931640625,-1.0234375,0.189208984375,6.526717557251908,8.15267175572519,-1.5725190839694656
4.13,0.056640625,-1.013671875,0.19677734375,7.6183206106870225,8.122137404580153,-1.916030534351145
4.14,0.05712890625,-1.015625,0.20947265625,8.50381679389313,7.427480916030534,-2.3206106870229006
4.15,0.045166015625,-1.010009765625,0.20947265625,8.48091603053435,6.603053435114504,-2.7709923664122136
4.16,0.0400390625,-1.0048828125,0.214599609375,8.664122137404581,6.251908396946565,-2.6793893129770994
4.17,0.03955078125,-0.99755859375,0.22314453125,8.938931297709924,6.2748091603053435,-2.2290076335877864
4.18,0.040771484375,-0.987060546875,0.21923828125,9.389312977099237,5.908396946564886,-2.1297709923664123
4.19,0.01806640625,-0.978759765625,0.212646484375,9.633587786259541,4.412213740458015,-1.4961832061068703
4.2,0.007568359375,-0.963623046875,0.21533203125,9.442748091603054,3.183206106870229,-0.7099236641221374
4.21,0.01220703125,-0.962158203125,0.19189453125,9.13740458015267,1.3740458015267176,-0.05343511450381679
4.22,0.017822265625,-0.962890625,0.1796875,8.793893129770993,-0.4198473282442748,0.40458015267175573
4.23,0.01123046875,-0.97265625,0.170166015625,8.32824427480916,-1.8091603053435115,0.8702290076335878
4.24,0.01416015625,-0.983642578125,0.1650390625,7.106870229007634,-2.3740458015267176,1.3587786259541985
4.25,0.022216796875,-1.007080078125,0.146484375,6.290076335877862,-3.50381679389313,1.4351145038167938
4.26,0.016357421875,-1.00732421875,0.14111328125,6.190839694656488,-4.038167938931298,1.1145038167938932
4.27,0.03955078125,-1.00830078125,0.12158203125,6.030534351145038,-5.106870229007634,0.5038167938931297
4.28,0.036865234375,-1.005126953125,0.12548828125,6.259541984732825,-6.4961832061068705,0.061068702290076333
4.29,0.047607421875,-1.013671875,0.128173828125,6.465648854961832,-7.633587786259542,-0.1297709923664122
4.3,0.051025390625,-1.003173828125,0.138427734375,6.267175572519084,-8.17557251908397,0.16793893129770993
4.31,0.05126953125,-1.0078125,0.14697265625,6.00763358778626,-7.870229007633588,0.29770992366412213
4.32,0.036376953125,-1.018798828125,0.144775390625,6.122137404580153,-8.450381679389313,0.46564885496183206
4.33,0.04248046875,-1.016845703125,0.141357421875,6.374045801526718,-8.259541984732824,0.7480916030534351
4.34,0.036376953125,-1.02783203125,0.140380859375,6.732824427480916,-8.389312977099237,1.1374045801526718
4.35,0.03369140625,-1.014892578125,0.142333984375,6.679389312977099,-8.297709923664122,1.3053435114503817
4.36,0.059814453125,-1.00927734375,0.13427734375,6.030534351145038,-7.694656488549619,1.0305343511450382
4.37,0.061767578125,-1.012939453125,0.129150390625,5.877862595419847,-6.099236641221374,0.40458015267175573
4.38,0.04248046875,-1.01708984375,0.126953125,5.740458015267175,-6.083969465648855,-0.8778625954198473
4.39,0.027099609375,-1.017578125,0.130615234375,5.076335877862595,-6.480916030534351,-2.267175572519084
4.4,0.013916015625,-1.01025390625,0.149169921875,4.709923664122138,-6.7251908396946565,-3.6106870229007635
4.41,0.015380859375,-1.016845703125,0.169921875,4.305343511450381,-7.33587786259542,-4.656488549618321
4.42,-0.012939453125,-1.016845703125,0.193115234375,3.7480916030534353,-8.251908396946565,-5.038167938931298
4.43,-0.02685546875,-1.01318359375,0.202392578125,5.801526717557252,-9.641221374045802,-5.1679389312977095
4.44,-0.043212890625,-1.009521484375,0.18017578125,3.4580152671755724,-11.992366412213741,-4.229007633587786
4.45,-0.031982421875,-1.01416015625,0.173828125,3.4427480916030535,-15.114503816793894,-2.687022900763359
4.46,-0.001708984375,-1.008544921875,0.167724609375,3.312977099236641,-18.297709923664122,-0.6106870229007634
4.47,0.034912109375,-1.016845703125,0.156005859375,1.8244274809160306,-20.541984732824428,2.5572519083969465
4.48,0.069091796875,-1.02197265625,0.1513671875,-0.9541984732824428,-20.732824427480917,5.786259541984733
4.49,0.067626953125,-1.0234375,0.155029296875,-4.938931297709924,-18.015267175572518,8.580152671755725
4.5,0.09765625,-1.02587890625,0.20166015625,-8.091603053435115,-16.34351145038168,10.694656488549619
4.51,0.100830078125,-1.020751953125,0.21484375,-9.969465648854962,-15.16030534351145,12.236641221374045
4.52,0.105224609375,-1.0205078125,0.2236328125,-11.305343511450381,-14.877862595419847,11.725190839694656
4.53,0.10791015625,-1.043701171875,0.24169921875,-12.740458015267176,-14.511450381679388,14.793893129770993
4.54,0.138427734375,-1.085205078125,0.2685546875,-13.213740458015268,-10.557251908396946,15.213740458015268
4.55,0.1669921875,-1.152099609375,0.2802734375,-11.206106870229007,-6.938931297709924,14.290076335877863
4.56,0.19873046875,-1.2158203125,0.2958984375,-7.00763358778626,-7.061068702290076,12.709923664122137
4.57,0.22802734375,-1.258056640625,0.34716796875,-1.5801526717557253,-6.648854961832061,10.801526717557252
4.58,0.26171875,-1.326171875,0.43212890625,4.305343511450381,-3.312977099236641,6.854961832061068
4.59,0.230712890625,-1.339111328125,0.54443359375,16.404580152671755,1.1984732824427482,1.717557251908397
4.6,0.162109375,-1.3134765625,0.591552734375,23.801526717557252,1.5190839694656488,-7.854961832061068
4.61,0.121337890625,-1.258544921875,0.612548828125,31.213740458015266,1.5648854961832062,-18.53435114503817
4.62,0.07177734375,-1.136962890625,0.6162109375,37.88549618320611,-2.6030534351145036,-24.129770992366414
4.63,0.047119140625,-1.01416015625,0.63916015625,39.61832061068702,-9.465648854961833,-25.290076335877863
4.64,0.041259765625,-0.876953125,0.658447265625,39.20610687022901,-14.48091603053435,-22.946564885496183
4.65,-0.013427734375,-0.81103515625,0.6064453125,36.05343511450382,-17.14503816793893,-17.900763358778626
4.66,-0.05859375,-0.746826171875,0.552001953125,30.022900763358777,-18.9618320610687,-11.290076335877863
4.67,-0.10498046875,-0.727294921875,0.46875,23.763358778625953,-18.87786259541985,-3.9236641221374047
4.68,-0.0888671875,-0.733154296875,0.404296875,16.282442748091604,-16.603053435114504,2.8091603053435112
4.69,-0.01904296875,-0.7890625,0.412109375,8.534351145038167,-17.80916030534351,7.0
4.7,0.138916015625,-0.9482421875,0.515625,0.816793893129771,-19.69465648854962,7.534351145038168
4.71,0.34375,-1.138671875,0.626953125,-4.702290076335878,-21.083969465648856,2.8396946564885495
4.72,0.529296875,-1.287841796875,0.6650390625,-7.229007633587786,-11.793893129770993,-6.366412213740458
4.73,0.695068359375,-1.255859375,0.568115234375,-7.793893129770993,14.305343511450381,-17.6793893129771
4.74,0.712890625,-1.079833984375,0.456787109375,5.748091603053435,31.0,-28.549618320610687
4.75,0.69384765625,-0.9091796875,0.343505859375,20.732824427480917,31.0381679389313,-32.282442748091604
4.76,0.630615234375,-0.73095703125,0.27001953125,30.045801526717558,35.396946564885496,-31.778625954198475
4.77,0.501708984375,-0.536376953125,0.17041015625,35.908396946564885,45.969465648854964,-28.396946564885496
4.78,0.3818359375,-0.3818359375,0.0634765625,38.32824427480916,55.412213740458014,-24.923664122137403
4.79,0.303955078125,-0.206298828125,-0.022705078125,38.57251908396947,65.8473282442748,-21.12213740458015
4.8,0.20068359375,-0.05859375,-0.103271484375,44.10687022900763,75.48091603053435,-15.931297709923664
4.81,0.13037109375,0.072021484375,-0.1611328125,60.48091603053435,85.80152671755725,-10.488549618320612
4.82,0.10498046875,0.0048828125,-0.2431640625,79.26717557251908,93.27480916030534,-4.67175572519084
4.83,0.05908203125,-0.030029296875,-0.366455078125,96.6412213740458,94.90839694656489,-0.06870229007633588
4.84,0.09716796875,-0.0302734375,-0.43505859375,105.70229007633588,100.77862595419847,4.450381679389313
4.85,0.08544921875,-0.054443359375,-0.5009765625,107.22137404580153,92.7175572519084,10.244274809160306
4.86,0.149169921875,0.00927734375,-0.518798828125,69.29770992366412,81.22900763358778,8.13740458015267
4.87,0.07373046875,0.105712890625,-0.427734375,-10.19083969465649,33.06106870229008,-2.572519083969466
4.88,-0.802490234375,0.005126953125,-0.123291015625,-151.94656488549617,4.2748091603053435,-28.702290076335878
4.89,-2.0,-1.601318359375,0.592529296875,-250.13740458015266,-41.83969465648855,-109.06106870229007
4.9,-2.0,-2.0,1.3759765625,-250.13740458015266,-250.13740458015266,-120.83969465648855
4.91,0.29931640625,-2.0,0.730712890625,-100.0381679389313,-250.13740458015266,-13.816793893129772
4.92,1.996826171875,-2.0,0.44921875,170.45801526717557,50.99236641221374,58.603053435114504
4.93,1.18115234375,-1.29931640625,0.76953125,87.0381679389313,91.69465648854961,64.74809160305344
4.94,0.808837890625,-0.8720703125,0.583740234375,-77.20610687022901,50.74809160305343,35.6412213740458
4.95,0.277587890625,-1.218994140625,0.306884765625,-148.19847328244273,-33.6793893129771,-7.564885496183206
4.96,0.21240234375,-1.937744140625,0.019287109375,-106.3587786259542,-47.36641221374046,-20.00763358778626
4.97,0.180419921875,-1.97900390625,-0.083984375,-17.251908396946565,-4.4961832061068705,-10.19083969465649
4.98,0.046875,-1.59130859375,0.2119140625,27.374045801526716,13.122137404580153,-2.6793893129770994
4.99,-0.0908203125,-1.18603515625,0.354736328125,18.9618320610687,-17.47328244274809,-1.2748091603053435
5.0,0.0009765625,-0.92529296875,0.27001953125,2.954198473282443,-33.45038167938932,3.6564885496183206
5.01,0.05615234375,-0.853271484375,0.174072265625,4.541984732824427,-31.099236641221374,11.312977099236642
5.02,-0.0703125,-0.7421875,0.157470703125,21.366412213740457,-28.213740458015266,22.31297709923664
5.03,-0.085693359375,-0.64111328125,0.207275390625,33.16030534351145,-13.816793893129772,25.442748091603054
5.04,-0.0986328125,-0.51416015625,0.3359375,30.595419847328245,-18.290076335877863,30.85496183206107
5.05,-0.04052734375,-0.445068359375,0.465087890625,16.82442748091603,-4.122137404580153,31.732824427480917
5.06,0.0068359375,-0.4345703125,0.484130859375,11.541984732824428,7.793893129770993,29.99236641221374
5.07,-0.009765625,-0.451171875,0.46044921875,11.396946564885496,8.145038167938932,27.519083969465647
5.08,0.005859375,-0.48388671875,0.36669921875,11.816793893129772,4.969465648854962,24.129770992366414
5.09,0.048583984375,-0.442626953125,0.29736328125,12.076335877862595,-5.824427480916031,21.290076335877863
5.1,0.072998046875,-0.487060546875,0.2734375,8.694656488549619,-18.31297709923664,13.954198473282442
5.11,0.115478515625,-0.55517578125,0.3154296875,-0.8091603053435115,-27.00763358778626,8.114503816793894
5.12,0.125,-0.706787109375,0.28564453125,-5.702290076335878,-52.3587786259542,1.9083969465648856
5.13,0.314453125,-0.839599609375,0.49853515625,3.6412213740458017,-16.99236641221374,-1.4427480916030535
5.14,0.15087890625,-0.8408203125,0.44189453125,-22.748091603053435,-56.31297709923664,-8.770992366412214
5.15,0.314697265625,-1.02783203125,0.331298828125,-31.81679389312977,-13.038167938931299,-10.595419847328245
5.16,0.259521484375,-1.140380859375,0.306396484375,-21.81679389312977,17.458015267175572,-10.458015267175572
5.17,0.081787109375,-1.1767578125,0.322509765625,-21.595419847328245,4.3816793893129775,-10.702290076335878
5.18,0.10009765625,-1.193603515625,0.32958984375,-27.213740458015266,11.366412213740459,-8.641221374045802
5.19,0.066162109375,-1.197265625,0.29931640625,-19.763358778625953,19.38167938931298,-7.740458015267175
5.2,0.030517578125,-1.137451171875,0.27734375,-20.297709923664122,24.480916030534353,-3.0610687022900764
5.21,-0.0048828125,-1.106689453125,0.249755859375,-25.83969465648855,25.64885496183206,-1.015267175572519
5.22,-0.040771484375,-1.1298828125,0.19384765625,-25.862595419847327,19.893129770992367,-0.3282442748091603
5.23,-0.0107421875,-1.174560546875,0.184814453125,-23.442748091603054,10.511450381679388,-0.2900763358778626
5.24,0.04638671875,-1.164794921875,0.181396484375,-18.435114503816795,5.511450381679389,0.4580152671755725
5.25,0.09375,-1.14990234375,0.20166015625,-14.954198473282442,10.320610687022901,2.0763358778625953
5.26,0.089599609375,-1.125,0.199951171875,-13.580152671755725,12.946564885496183,4.244274809160306
5.27,0.06396484375,-1.08984375,0.2060546875,-9.83969465648855,5.419847328244275,6.3816793893129775
5.28,0.088134765625,-1.045654296875,0.191650390625,-6.877862595419847,3.49618320610687,8.50381679389313
5.29,0.095703125,-1.02294921875,0.232421875,-1.0229007633587786,5.778625954198473,9.709923664122137
5.3,0.09423828125,-0.9912109375,0.276611328125,2.1374045801526718,6.931297709923665,9.633587786259541
5.31,0.070556640625,-0.96337890625,0.28662109375,1.717557251908397,9.320610687022901,7.923664122137405
5.32,0.038330078125,-0.95751953125,0.261474609375,1.2900763358778626,11.534351145038167,5.3816793893129775
5.33,0.00341796875,-0.9375,0.21728515625,0.42748091603053434,13.404580152671755,2.8091603053435112
5.34,-0.03857421875,-0.934814453125,0.194580078125,-0.5038167938931297,13.51908396946565,0.648854961832061
5.35,-0.06396484375,-0.93701171875,0.2119140625,-0.7557251908396947,8.938931297709924,-0.2748091603053435
5.36,-0.063232421875,-0.947509765625,0.236328125,-1.450381679389313,6.4961832061068705,-0.15267175572519084
5.37,-0.07470703125,-0.96826171875,0.245361328125,-3.0610687022900764,3.519083969465649,-0.5877862595419847
5.38,-0.043701171875,-0.965087890625,0.2392578125,-4.938931297709924,0.9312977099236641,-0.8625954198473282
5.39,-0.005615234375,-0.970458984375,0.24658203125,-5.244274809160306,-0.916030534351145,-1.0763358778625953
5.4,0.0302734375,-0.974853515625,0.22412109375,-4.6106870229007635,-2.053435114503817,-0.06870229007633588
5.41,0.052734375,-0.97021484375,0.232421875,-3.1374045801526718,-2.618320610687023,-3.3587786259541983
5.42,0.081787109375,-0.983642578125,0.20849609375,-1.0305343511450382,-1.7938931297709924,-4.374045801526718
5.43,0.098876953125,-0.98046875,0.1982421875,1.4198473282442747,0.9618320610687023,-5.305343511450381
5.44,0.096435546875,-0.984375,0.178466796875,3.1755725190839694,3.816793893129771,-6.6183206106870225
5.45,0.0849609375,-0.99755859375,0.182373046875,3.3282442748091605,4.679389312977099,-7.793893129770993
5.46,0.072998046875,-0.985107421875,0.183837890625,2.854961832061069,4.931297709923665,-8.274809160305344
5.47,0.052490234375,-1.01220703125,0.18603515625,3.2213740458015265,4.770992366412214,-9.755725190839694
5.48,0.031982421875,-1.001953125,0.18505859375,3.5114503816793894,4.305343511450381,-6.480916030534351
5.49,-0.005859375,-0.9912109375,0.185546875,2.122137404580153,1.984732824427481,-4.67175572519084
5.5,-0.029052734375,-0.9775390625,0.18603515625,0.7709923664122137,5.687022900763359,-3.816793893129771
5.51,-0.06689453125,-0.957763671875,0.156005859375,-2.0610687022900764,-0.7480916030534351,0.4198473282442748
5.52,-0.05712890625,-0.95654296875,0.12158203125,-3.6564885496183206,-5.183206106870229,2.633587786259542
5.53,-0.044677734375,-0.95068359375,0.126953125,-5.931297709923665,-10.038167938931299,3.732824427480916
5.54,-0.022705078125,-0.95751953125,0.162109375,-8.50381679389313,-14.595419847328245,3.4198473282442747
5.55,0.00341796875,-0.977783203125,0.18359375,-11.83969465648855,-17.717557251908396,3.816793893129771
5.56,0.02490234375,-1.0029296875,0.1904296875,-11.51908396946565,-15.916030534351146,0.12213740458015267
5.57,0.0458984375,-1.0068359375,0.1865234375,-10.061068702290076,-12.954198473282442,-1.6641221374045803
5.58,0.07470703125,-0.973876953125,0.159423828125,-8.702290076335878,-10.854961832061068,-2.763358778625954
5.59,0.081298828125,-0.94091796875,0.14794921875,-7.152671755725191,-9.274809160305344,-2.9236641221374047
5.6,0.10693359375,-0.935546875,0.147216796875,-5.549618320610687,-6.656488549618321,-2.6259541984732824
5.61,0.100830078125,-0.950439453125,0.125,-3.8091603053435112,-4.061068702290076,-2.5114503816793894
5.62,0.072998046875,-0.987548828125,0.14794921875,-1.8091603053435115,-4.320610687022901,-3.2061068702290076
5.63,0.04248046875,-1.023681640625,0.142333984375,-0.33587786259541985,-4.763358778625954,-4.572519083969466
5.64,0.03125,-1.049560546875,0.148193359375,0.06870229007633588,-5.763358778625954,-5.66412213740458
5.65,0.0283203125,-1.050537109375,0.156005859375,1.5038167938931297,-6.870229007633588,-7.366412213740458
5.66,0.02197265625,-1.033203125,0.159912109375,1.6106870229007633,-7.5038167938931295,-8.748091603053435
5.67,0.04150390625,-1.051513671875,0.158935546875,1.465648854961832,-9.511450381679388,-10.183206106870228
5.68,0.02001953125,-1.03515625,0.166259765625,0.5419847328244275,-13.938931297709924,-10.740458015267176
5.69,0.013916015625,-1.0615234375,0.16455078125,1.6412213740458015,-17.900763358778626,-11.122137404580153
5.7,0.013916015625,-1.056884765625,0.172119140625,3.3282442748091605,-23.366412213740457,-10.625954198473282
5.71,0.016845703125,-1.07666015625,0.194580078125,8.183206106870228,-19.66412213740458,-9.396946564885496
5.72,0.009765625,-1.048828125,0.231201171875,2.7938931297709924,-22.137404580152673,-7.969465648854962
5.73,-0.006591796875,-1.05615234375,0.19873046875,1.916030534351145,-28.106870229007633,-6.190839694656488
5.74,0.0732421875,-1.05712890625,0.18017578125,4.480916030534351,-18.51145038167939,-3.7480916030534353
5.75,0.099609375,-1.054443359375,0.181396484375,6.351145038167939,-8.34351145038168,-1.6564885496183206
5.76,0.08984375,-1.06005859375,0.1611328125,6.778625954198473,-12.49618320610687,-1.1450381679389312
5.77,0.16064453125,-1.071533203125,0.118408203125,7.0458015267175576,-4.32824427480916,-1.0381679389312977
5.78,0.16259765625,-1.0869140625,0.150634765625,7.854961832061068,2.122137404580153,-1.099236641221374
5.79,0.14794921875,-1.08984375,0.186767578125,9.564885496183207,-1.7404580152671756,-2.213740458015267
5.8,0.143310546875,-1.09130859375,0.218017578125,8.114503816793894,-1.7557251908396947,-3.198473282442748
5.81,0.1484375,-1.0908203125,0.248779296875,5.9541984732824424,-1.1374045801526718,-3.8091603053435112
5.82,0.14990234375,-1.099853515625,0.26806640625,4.0534351145038165,0.7709923664122137,-4.5038167938931295
5.83,0.142578125,-1.087890625,0.294189453125,2.7022900763358777,3.5419847328244276,-5.229007633587786
5.84,0.1318359375,-1.081787109375,0.29052734375,2.0916030534351147,6.206106870229007,-5.152671755725191
5.85,0.10400390625,-1.0625,0.281005859375,3.8396946564885495,9.580152671755725,-5.083969465648855
5.86,0.077880859375,-1.038818359375,0.27490234375,4.549618320610687,11.358778625954198,-5.152671755725191
5.87,0.025390625,-1.029541015625,0.26123046875,4.1679389312977095,9.793893129770993,-5.687022900763359
5.88,0.014892578125,-1.0009765625,0.23974609375,4.015267175572519,7.145038167938932,-7.816793893129771
5.89,0.021728515625,-0.99560546875,0.23291015625,3.6030534351145036,4.580152671755725,-5.33587786259542
5.9,0.035400390625,-0.980224609375,0.201416015625,2.8244274809160306,1.8091603053435115,-4.343511450381679
5.91,0.052734375,-0.980712890625,0.208984375,1.7557251908396947,0.3053435114503817,-2.854961832061069
5.92,0.078125,-0.997314453125,0.22900390625,1.4732824427480915,0.0916030534351145,-1.633587786259542
5.93,0.107421875,-1.040283203125,0.253662109375,1.1145038167938932,-0.648854961832061,-0.45038167938931295
5.94,0.119140625,-1.09130859375,0.294921875,1.549618320610687,2.4580152671755724,-0.022900763358778626
5.95,0.11376953125,-1.140625,0.3486328125,4.8320610687022905,5.137404580152672,-1.5267175572519085
5.96,0.065185546875,-1.158447265625,0.400390625,7.625954198473282,3.4122137404580153,-4.251908396946565
5.97,0.012451171875,-1.18017578125,0.440185546875,10.541984732824428,0.08396946564885496,-8.374045801526718
5.98,-0.0634765625,-1.183349609375,0.46240234375,11.763358778625955,-0.22900763358778625,-12.34351145038168
5.99,-0.149658203125,-1.1630859375,0.513671875,12.404580152671755,-5.793893129770993,-14.679389312977099
6.0,-0.187255859375,-1.109619140625,0.5361328125,14.251908396946565,-12.458015267175572,-14.374045801526718
6.01,-0.160400390625,-1.04150390625,0.5009765625,19.519083969465647,-15.229007633587786,-10.511450381679388
6.02,-0.06494140625,-0.90380859375,0.4599609375,26.66412213740458,-19.053435114503817,-2.282442748091603
6.03,0.0322265625,-0.7822265625,0.416015625,28.38167938931298,-21.435114503816795,4.870229007633588
6.04,0.14501953125,-0.669189453125,0.36279296875,29.396946564885496,-25.18320610687023,13.229007633587786
6.05,0.23779296875,-0.628662109375,0.34228515625,29.251908396946565,-23.557251908396946,16.15267175572519
6.06,0.283203125,-0.635498046875,0.322021484375,22.33587786259542,-21.69465648854962,17.870229007633586
6.07,0.340576171875,-0.721923828125,0.35888671875,17.328244274809162,-20.358778625954198,16.14503816793893
6.08,0.3798828125,-0.86376953125,0.416015625,10.549618320610687,-19.267175572519083,10.091603053435115
6.09,0.395263671875,-1.06298828125,0.440185546875,2.9389312977099236,-17.633587786259543,1.3969465648854962
6.1,0.345703125,-1.197998046875,0.448974609375,-4.824427480916031,-17.068702290076335,-7.519083969465649
6.11,0.27490234375,-1.25537109375,0.44189453125,-8.030534351145038,-17.87786259541985,-14.13740458015267
6.12,0.231201171875,-1.224609375,0.385986328125,-2.3206106870229006,-17.931297709923665,-16.427480916030536
6.13,0.23876953125,-1.0908203125,0.28857421875,2.0076335877862594,-12.229007633587786,-15.419847328244275
6.14,0.28271484375,-0.902099609375,0.221923828125,6.801526717557252,1.5954198473282444,-13.595419847328245
6.15,0.31640625,-0.74462890625,0.1806640625,3.9923664122137406,5.473282442748092,-7.541984732824427
6.16,0.3740234375,-0.68701171875,0.126220703125,4.870229007633588,0.20610687022900764,-4.8320610687022905
6.17,0.392578125,-0.666259765625,0.084716796875,12.748091603053435,-3.114503816793893,-1.786259541984733
6.18,0.439453125,-0.661376953125,0.04248046875,19.587786259541986,-8.19083969465649,1.1450381679389312
6.19,0.4931640625,-0.565673828125,-0.061767578125,30.19083969465649,-12.977099236641221,4.786259541984733
6.2,0.569580078125,-0.490966796875,-0.12353515625,39.10687022900763,-0.8473282442748091,8.106870229007633
6.21,0.5126953125,-0.373779296875,-0.151611328125,53.02290076335878,11.86259541984733,13.129770992366412
6.22,0.43408203125,-0.344482421875,-0.158447265625,53.42748091603053,25.61832061068702,18.96946564885496
6.23,0.417236328125,-0.3662109375,-0.237060546875,49.82442748091603,47.83969465648855,24.267175572519083
6.24,0.42333984375,-0.3837890625,-0.24658203125,37.38167938931298,62.11450381679389,27.34351145038168
6.25,0.39208984375,-0.399658203125,-0.2333984375,8.84732824427481,53.19847328244275,23.50381679389313
6.26,0.279052734375,-0.479248046875,-0.181884765625,-24.244274809160306,36.717557251908396,20.221374045801525
6.27,0.187744140625,-0.64990234375,0.06982421875,-60.57251908396947,3.3053435114503817,15.725190839694656
6.28,0.02587890625,-0.997314453125,0.4931640625,-97.9618320610687,-44.847328244274806,6.740458015267175
6.29,-0.640380859375,-2.0,1.029296875,-99.73282442748092,-57.68702290076336,-19.923664122137403
6.3,-1.324951171875,-2.0,1.690185546875,-56.847328244274806,-52.6412213740458,-72.25954198473282
6.31,-0.385986328125,-2.0,0.821533203125,-28.87786259541985,32.52671755725191,-54.70992366412214
6.32,0.15087890625,-1.322265625,0.261474609375,-7.778625954198473,60.66412213740458,-16.244274809160306
6.33,0.271240234375,-0.6171875,0.0234375,-4.290076335877862,74.43511450381679,14.755725190839694
6.34,0.328125,-0.71728515625,-0.01953125,-38.603053435114504,33.343511450381676,22.96946564885496
6.35,0.466796875,-1.00830078125,-0.155029296875,-82.54198473282443,9.13740458015267,16.69465648854962
6.36,0.385986328125,-1.406494140625,-0.119384765625,-78.44274809160305,-30.740458015267176,4.656488549618321
6.37,0.177001953125,-1.615966796875,0.1494140625,-28.49618320610687,-59.152671755725194,-0.7251908396946565
6.38,0.2607421875,-1.431396484375,0.452880859375,13.893129770992367,-22.603053435114504,1.3893129770992367
6.39,0.178466796875,-1.039794921875,0.668212890625,19.15267175572519,11.98473282442748,3.198473282442748
6.4,0.07080078125,-0.755859375,0.631591796875,-6.580152671755725,22.610687022900763,3.83206106870229
6.41,0.0244140625,-0.73486328125,0.427734375,-19.541984732824428,17.740458015267176,5.083969465648855
6.42,0.0234375,-0.701416015625,0.2646484375,-7.801526717557252,10.389312977099237,6.114503816793893
6.43,-0.00244140625,-0.677734375,0.246826171875,0.0,10.900763358778626,6.931297709923665
6.44,-0.064453125,-0.65673828125,0.303955078125,1.3740458015267176,-1.549618320610687,5.603053435114504
6.45,-0.079345703125,-0.6689453125,0.35400390625,-2.7404580152671754,-9.320610687022901,4.3893129770992365
6.46,-0.052490234375,-0.67138671875,0.4111328125,-9.755725190839694,-6.1679389312977095,2.8473282442748094
6.47,-0.09375,-0.69921875,0.4580078125,-13.580152671755725,-4.091603053435114,1.4274809160305344
6.48,-0.064697265625,-0.729736328125,0.4375,-12.206106870229007,-3.3282442748091605,0.16793893129770993
6.49,-0.025146484375,-0.72607421875,0.42041015625,-10.236641221374045,0.366412213740458,-0.06870229007633588
6.5,0.001708984375,-0.73974609375,0.3857421875,-12.267175572519085,8.404580152671755,0.03816793893129771
6.51,0.00341796875,-0.80322265625,0.361083984375,-15.419847328244275,7.541984732824427,0.3282442748091603
6.52,0.00048828125,-0.8955078125,0.33984375,-14.267175572519085,4.374045801526718,2.16793893129771
6.53,-0.000244140625,-0.996337890625,0.328857421875,-12.053435114503817,2.4656488549618323,4.251908396946565
6.54,-0.003173828125,-1.074951171875,0.35693359375,-12.687022900763358,-0.2748091603053435,5.320610687022901
6.55,0.04833984375,-1.154296875,0.3701171875,-15.229007633587786,-1.9236641221374047,5.061068702290076
6.56,0.109619140625,-1.218017578125,0.329833984375,-16.83969465648855,0.1984732824427481,4.412213740458015
6.57,0.13720703125,-1.238037109375,0.262939453125,-14.312977099236642,4.740458015267175,2.6946564885496183
6.58,0.12646484375,-1.243408203125,0.247802734375,-8.931297709923664,5.9541984732824424,0.8549618320610687
6.59,0.080322265625,-1.17138671875,0.235107421875,-2.3740458015267176,5.984732824427481,-0.8320610687022901
6.6,0.03759765625,-1.109130859375,0.2470703125,0.8702290076335878,4.435114503816794,-2.267175572519084
6.61,0.021728515625,-1.072021484375,0.237060546875,-0.2748091603053435,2.0229007633587788,-2.83206106870229
6.62,0.017578125,-1.07666015625,0.229248046875,-0.7786259541984732,1.297709923664122,-2.1068702290076335
6.63,0.02001953125,-1.087158203125,0.204345703125,-0.2824427480916031,-3.4580152671755724,-1.5572519083969465
6.64,0.0810546875,-1.09033203125,0.21533203125,3.1068702290076335,-0.816793893129771,0.21374045801526717
6.65,0.10009765625,-1.050048828125,0.229736328125,6.587786259541985,8.557251908396946,2.648854961832061
6.66,0.09375,-1.001220703125,0.2314453125,6.022900763358779,14.83969465648855,4.114503816793893
6.67,0.109130859375,-0.953857421875,0.1962890625,5.854961832061068,19.19083969465649,4.519083969465649
6.68,0.079833984375,-0.96875,0.158447265625,3.2900763358778624,23.083969465648856,4.679389312977099
6.69,0.064208984375,-0.9462890625,0.136474609375,4.022900763358779,25.96946564885496,4.022900763358779
6.7,0.050537109375,-0.92236328125,0.13818359375,3.4885496183206106,26.12213740458015,2.572519083969466
6.71,0.0390625,-0.937744140625,0.15576171875,2.4580152671755724,23.84732824427481,0.732824427480916
6.72,0.00927734375,-0.942138671875,0.186279296875,1.5190839694656488,22.137404580152673,-0.6641221374045801
6.73,-0.02294921875,-0.956298828125,0.19482421875,0.732824427480916,20.51145038167939,-1.1526717557251909
6.74,-0.06396484375,-0.97314453125,0.191650390625,0.4732824427480916,19.49618320610687,-0.5648854961832062
6.75,-0.08447265625,-0.989013671875,0.19482421875,1.0534351145038168,15.053435114503817,0.7557251908396947
6.76,-0.096435546875,-1.0302734375,0.19384765625,1.251908396946565,12.259541984732824,1.9312977099236641
6.77,-0.0908203125,-1.02587890625,0.20849609375,1.0610687022900764,9.541984732824428,2.7938931297709924
6.78,-0.080078125,-1.03564453125,0.176513671875,-0.25190839694656486,6.541984732824427,3.0839694656488548
6.79,-0.04345703125,-1.019287109375,0.156982421875,-0.366412213740458,5.6183206106870225,2.6946564885496183
6.8,-0.015380859375,-0.990478515625,0.151123046875,-0.9847328244274809,4.99236641221374,1.6412213740458015
6.81,0.0224609375,-0.978515625,0.156982421875,-1.2442748091603053,4.297709923664122,1.2748091603053435
6.82,0.065185546875,-0.953369140625,0.171630859375,-0.7099236641221374,4.8396946564885495,0.5801526717557252
6.83,0.0732421875,-0.959716796875,0.179931640625,-1.0381679389312977,3.1526717557251906,-0.2748091603053435
6.84,0.086669921875,-0.953369140625,0.183837890625,0.1984732824427481,7.2748091603053435,-0.8931297709923665
6.85,0.06591796875,-0.95703125,0.171630859375,2.213740458015267,8.038167938931299,-1.7404580152671756
6.86,0.0380859375,-0.94580078125,0.14794921875,2.9618320610687023,7.816793893129771,-2.1908396946564888
6.87,0.022705078125,-0.94482421875,0.126220703125,3.0763358778625953,6.8396946564885495,-2.450381679389313
6.88,0.00390625,-0.9462890625,0.125,3.267175572519084,5.0534351145038165,-2.3206106870229006
6.89,-0.001220703125,-0.940185546875,0.11328125,3.2595419847328246,4.114503816793893,-2.6717557251908395
6.9,-0.03076171875,-0.97802734375,0.1220703125,2.6259541984732824,7.198473282442748,-3.015267175572519
6.91,-0.060546875,-0.973388671875,0.107666015625,0.6870229007633588,2.4885496183206106,-4.137404580152672
6.92,-0.068115234375,-1.000244140625,0.094970703125,-1.3511450381679388,-2.572519083969466,-5.236641221374046
6.93,-0.067138671875,-1.005126953125,0.09912109375,-1.3358778625954197,-5.824427480916031,-6.305343511450381
6.94,-0.0595703125,-1.0244140625,0.1376953125,-1.3129770992366412,-7.656488549618321,-6.801526717557252
6.95,-0.064697265625,-1.023193359375,0.159423828125,-1.5038167938931297,-11.13740458015267,-6.625954198473282
6.96,-0.0576171875,-1.01708984375,0.171142578125,-0.6946564885496184,-12.419847328244275,-5.916030534351145
6.97,-0.04541015625,-1.030029296875,0.1787109375,0.0,-11.244274809160306,-5.091603053435114
6.98,-0.062255859375,-1.023193359375,0.18212890625,-0.7175572519083969,-12.34351145038168,-4.404580152671755
6.99,-0.0234375,-1.02392578125,0.1630859375,-0.9312977099236641,-13.709923664122137,-4.282442748091603
7.0,0.01171875,-1.035400390625,0.144775390625,0.29770992366412213,-13.82442748091603,-4.511450381679389
7.01,0.04736328125,-1.033203125,0.1337890625,1.83206106870229,-13.98473282442748,-5.175572519083969
7.02,0.07568359375,-1.030029296875,0.127197265625,3.6793893129770994,-13.282442748091603,-6.145038167938932
7.03,0.085205078125,-1.029541015625,0.13671875,5.687022900763359,-12.778625954198473,-6.984732824427481
7.04,0.085205078125,-1.001953125,0.1357421875,7.366412213740458,-12.564885496183207,-7.0
7.05,0.062744140625,-0.995849609375,0.140380859375,7.175572519083969,-13.358778625954198,-7.022900763358779
7.06,0.044189453125,-0.974609375,0.146728515625,5.625954198473282,-15.534351145038167,-6.816793893129771
7.07,0.035400390625,-0.98779296875,0.15625,2.2061068702290076,-17.33587786259542,-6.282442748091603
7.08,0.032470703125,-1.00341796875,0.169677734375,-0.07633587786259542,-17.893129770992367,-5.114503816793893
7.09,0.03466796875,-1.02001953125,0.183349609375,-3.198473282442748,-16.27480916030534,-2.8702290076335877
7.1,0.027587890625,-1.03857421875,0.206298828125,-2.053435114503817,-14.099236641221374,-0.816793893129771
7.11,-0.027587890625,-1.065185546875,0.232177734375,0.816793893129771,-12.106870229007633,0.2366412213740458
7.12,-0.05126953125,-1.072265625,0.1923828125,2.6564885496183206,-13.045801526717558,-0.6946564885496184
7.13,-0.072021484375,-1.0888671875,0.176025390625,3.5114503816793894,-15.358778625954198,-2.2900763358778624
7.14,-0.068115234375,-1.094970703125,0.171875,2.83206106870229,-18.870229007633586,-3.2595419847328246
7.15,-0.030517578125,-1.107421875,0.178466796875,1.3129770992366412,-20.732824427480917,-2.595419847328244
7.16,0.025390625,-1.126220703125,0.20849609375,1.3893129770992367,-20.282442748091604,-0.4732824427480916
7.17,0.12255859375,-1.126220703125,0.253173828125,2.145038167938931,-16.923664122137403,1.8625954198473282
7.18,0.146240234375,-1.110107421875,0.282470703125,2.5267175572519083,-12.763358778625955,3.8396946564885495
7.19,0.173828125,-1.08203125,0.286865234375,2.7099236641221376,-8.419847328244275,5.114503816793893
7.2,0.199462890625,-1.048828125,0.28857421875,3.572519083969466,-5.267175572519084,5.236641221374046
7.21,0.19091796875,-1.02783203125,0.26953125,4.534351145038168,-2.4656488549618323,4.221374045801527
7.22,0.183837890625,-1.02490234375,0.29443359375,5.038167938931298,-0.29770992366412213,2.9389312977099236
7.23,0.177978515625,-1.040283203125,0.30517578125,4.480916030534351,3.3282442748091605,1.6717557251908397
7.24,0.145751953125,-1.06396484375,0.33935546875,5.7251908396946565,4.877862595419847,0.20610687022900764
7.25,0.15625,-1.093505859375,0.360595703125,4.801526717557252,8.992366412213741,-1.8473282442748091
7.26,0.167724609375,-1.0966796875,0.3798828125,3.50381679389313,11.954198473282442,-4.465648854961832
7.27,0.15478515625,-1.12060546875,0.384033203125,3.5801526717557253,13.374045801526718,-6.687022900763359
7.28,0.133544921875,-1.107666015625,0.392578125,6.809160305343512,14.19083969465649,-9.969465648854962
7.29,0.06494140625,-1.07373046875,0.420654296875,10.251908396946565,11.86259541984733,-13.931297709923664
7.3,-0.00341796875,-1.013427734375,0.435791015625,12.67175572519084,8.290076335877863,-17.045801526717558
7.31,-0.059326171875,-0.961669921875,0.450439453125,14.129770992366412,3.198473282442748,-18.328244274809162
7.32,-0.0830078125,-0.90087890625,0.471923828125,13.702290076335878,-3.7480916030534353,-16.893129770992367
7.33,-0.077880859375,-0.8544921875,0.48095703125,18.50381679389313,-9.740458015267176,-13.13740458015267
7.34,0.006103515625,-0.81005859375,0.4609375,22.9618320610687,-12.335877862595419,-7.916030534351145
7.35,0.067138671875,-0.796142578125,0.460205078125,25.84732824427481,-13.381679389312977,-3.267175572519084
7.36,0.0986328125,-0.7861328125,0.426025390625,25.12213740458015,-11.86259541984733,0.9312977099236641
7.37,0.135986328125,-0.804931640625,0.3955078125,22.984732824427482,-9.625954198473282,4.7251908396946565
7.38,0.171142578125,-0.855224609375,0.390625,18.977099236641223,-9.053435114503817,6.687022900763359
7.39,0.2138671875,-0.917724609375,0.394775390625,12.595419847328245,-8.702290076335878,6.587786259541985
7.4,0.24169921875,-1.015380859375,0.406494140625,5.9541984732824424,-8.931297709923664,3.480916030534351
7.41,0.28173828125,-1.120361328125,0.42431640625,4.740458015267175,-10.961832061068701,-1.213740458015267
7.42,0.343017578125,-1.15673828125,0.48291015625,7.198473282442748,-10.587786259541986,-6.8320610687022905
7.43,0.329833984375,-1.122802734375,0.464599609375,7.6183206106870225,-12.870229007633588,-12.618320610687023
7.44,0.306396484375,-1.009521484375,0.400634765625,6.816793893129771,-10.854961832061068,-16.770992366412212
7.45,0.2509765625,-0.87646484375,0.339111328125,3.519083969465649,-13.664122137404581,-17.366412213740457
7.46,0.234375,-0.7607421875,0.29541015625,-0.5801526717557252,-15.419847328244275,-15.442748091603054
7.47,0.22705078125,-0.718505859375,0.2626953125,-2.66412213740458,-7.938931297709924,-11.183206106870228
7.48,0.21728515625,-0.68603515625,0.230224609375,-0.21374045801526717,-11.465648854961833,-6.717557251908397
7.49,0.18701171875,-0.694091796875,0.1787109375,4.419847328244275,-7.580152671755725,-2.6412213740458017
7.5,0.1689453125,-0.69775390625,0.0830078125,10.419847328244275,3.49618320610687,2.312977099236641
7.51,0.214111328125,-0.70068359375,0.001220703125,13.351145038167939,12.778625954198473,8.450381679389313
7.52,0.2783203125,-0.703369140625,-0.05029296875,15.755725190839694,8.86259541984733,14.236641221374045
7.53,0.34765625,-0.684814453125,-0.09716796875,19.801526717557252,-2.5801526717557253,18.290076335877863
7.54,0.438232421875,-0.61767578125,-0.0732421875,25.14503816793893,-1.717557251908397,20.770992366412212
7.55,0.453125,-0.517578125,-0.046630859375,22.87786259541985,10.099236641221374,23.282442748091604
7.56,0.47412109375,-0.437255859375,-0.046630859375,18.717557251908396,26.916030534351144,24.48854961832061
7.57,0.421142578125,-0.407958984375,-0.120849609375,13.198473282442748,37.6412213740458,22.770992366412212
7.58,0.33935546875,-0.419677734375,-0.149169921875,8.748091603053435,36.49618320610687,19.870229007633586
7.59,0.246826171875,-0.447265625,-0.07861328125,3.8702290076335877,28.267175572519083,14.396946564885496
7.6,0.141357421875,-0.515625,0.0869140625,-14.488549618320612,10.83206106870229,4.793893129770993
7.61,0.031005859375,-0.762451171875,0.39111328125,-56.3206106870229,-21.00763358778626,-6.1679389312977095
7.62,-0.53564453125,-1.6416015625,0.78173828125,-86.69465648854961,-33.83206106870229,-29.17557251908397
7.63,-1.240478515625,-2.0,1.375,-78.94656488549619,-47.25954198473283,-56.83969465648855
7.64,-0.120849609375,-2.0,0.77587890625,-47.396946564885496,0.7557251908396947,-38.534351145038165
7.65,0.44091796875,-1.54296875,0.36279296875,-26.52671755725191,34.70992366412214,1.7557251908396947
7.66,0.45654296875,-1.18994140625,0.1962890625,-38.213740458015266,54.6412213740458,25.137404580152673
7.67,0.500732421875,-1.27099609375,0.198974609375,-53.229007633587784,27.427480916030536,19.770992366412212
7.68,0.346435546875,-1.591796875,0.11962890625,-48.51145038167939,-7.931297709923665,6.656488549618321
7.69,0.03564453125,-1.770263671875,0.258056640625,-23.984732824427482,-22.015267175572518,-4.809160305343512
7.7,-0.054443359375,-1.65771484375,0.41748046875,0.5267175572519084,-20.793893129770993,-7.778625954198473
7.71,-0.069580078125,-1.412109375,0.473876953125,11.351145038167939,-6.343511450381679,-6.33587786259542
7.72,-0.07470703125,-1.21923828125,0.462890625,8.564885496183207,-1.251908396946565,-3.8702290076335877
7.73,-0.005859375,-1.0595703125,0.34814453125,11.106870229007633,15.206106870229007,4.282442748091603
7.74,-0.042724609375,-0.94091796875,0.2734375,13.335877862595419,16.34351145038168,8.053435114503817
7.75,-0.028076171875,-0.822021484375,0.275634765625,17.763358778625953,14.122137404580153,15.145038167938932
7.76,-0.019775390625,-0.7109375,0.279296875,17.916030534351144,10.335877862595419,18.15267175572519
7.77,-0.0166015625,-0.643310546875,0.32080078125,13.740458015267176,7.732824427480916,19.229007633587788
7.78,0.00048828125,-0.577880859375,0.361328125,7.8320610687022905,5.3893129770992365,19.03053435114504
7.79,0.021484375,-0.5048828125,0.383544921875,2.2061068702290076,3.145038167938931,17.778625954198475
7.8,0.060791015625,-0.474365234375,0.3740234375,-5.183206106870229,4.091603053435114,16.282442748091604
7.81,0.08740234375,-0.468505859375,0.344482421875,-8.877862595419847,5.862595419847328,14.366412213740459
7.82,0.081787109375,-0.49609375,0.339111328125,-8.51908396946565,11.923664122137405,13.65648854961832
7.83,0.047607421875,-0.55615234375,0.321533203125,-8.274809160305344,14.725190839694656,9.908396946564885
7.84,0.017333984375,-0.623046875,0.320556640625,-8.236641221374045,17.31297709923664,9.16030534351145
7.85,-0.0400390625,-0.728271484375,0.323486328125,-7.557251908396947,17.778625954198475,8.86259541984733
7.86,-0.04736328125,-0.798095703125,0.342041015625,-6.916030534351145,16.49618320610687,7.931297709923665
7.87,-0.046630859375,-0.903076171875,0.33056640625,-8.969465648854962,12.114503816793894,5.603053435114504
7.88,0.01171875,-0.98193359375,0.30908203125,-14.763358778625955,9.969465648854962,1.9923664122137406
7.89,0.07080078125,-1.047607421875,0.305419921875,-19.916030534351144,7.190839694656488,-2.2290076335877864
7.9,0.122314453125,-1.087646484375,0.30078125,-21.27480916030534,7.022900763358779,-6.183206106870229
7.91,0.167236328125,-1.101806640625,0.321533203125,-21.793893129770993,9.236641221374045,-8.641221374045802
7.92,0.18994140625,-1.129150390625,0.314208984375,-20.290076335877863,14.045801526717558,-10.580152671755725
7.93,0.1904296875,-1.082275390625,0.302490234375,-17.931297709923665,17.977099236641223,-12.038167938931299
7.94,0.132568359375,-1.082763671875,0.25634765625,-15.98473282442748,22.328244274809162,-12.183206106870228
7.95,0.072509765625,-1.100830078125,0.245361328125,-10.961832061068701,20.633587786259543,-11.82442748091603
7.96,0.073486328125,-1.143310546875,0.223876953125,-6.343511450381679,31.015267175572518,-10.32824427480916
7.97,0.00537109375,-1.19970703125,0.2392578125,2.7022900763358777,34.66412213740458,-8.534351145038167
7.98,-0.0126953125,-1.190185546875,0.230712890625,2.8473282442748094,40.41984732824427,-9.625954198473282
7.99,-0.02783203125,-1.17626953125,0.210693359375,2.1526717557251906,43.10687022900763,-6.458015267175573
8.0,-0.023193359375,-1.14453125,0.171875,4.083969465648855,41.282442748091604,-5.32824427480916
8.01,-0.02001953125,-1.084716796875,0.186279296875,6.236641221374046,33.61068702290076,-4.213740458015267
8.02,-0.011474609375,-1.02685546875,0.19970703125,6.519083969465649,26.129770992366414,-2.9923664122137406
8.03,-0.02392578125,-1.0126953125,0.216796875,8.106870229007633,24.18320610687023,-2.3206106870229006
8.04,-0.057373046875,-0.976318359375,0.244384765625,8.65648854961832,19.366412213740457,-1.7938931297709924
8.05,-0.07568359375,-0.953857421875,0.249267578125,8.419847328244275,17.396946564885496,-1.3740458015267176
8.06,-0.105712890625,-0.9365234375,0.242919921875,8.358778625954198,13.229007633587786,-1.083969465648855
8.07,-0.097412109375,-0.92724609375,0.22119140625,7.3816793893129775,11.763358778625955,-1.0458015267175573
8.08,-0.10205078125,-0.9140625,0.22021484375,4.145038167938932,10.549618320610687,-0.9236641221374046
8.09,-0.108642578125,-0.9150390625,0.229736328125,0.8473282442748091,8.106870229007633,-1.099236641221374
8.1,-0.1025390625,-0.9375,0.190185546875,-0.648854961832061,7.114503816793893,-0.9312977099236641
8.11,-0.083251953125,-0.93359375,0.184814453125,-1.5572519083969465,5.763358778625954,-0.7480916030534351
8.12,-0.056396484375,-0.95263671875,0.1748046875,-3.099236641221374,4.396946564885496,-0.8931297709923665
8.13,-0.03564453125,-0.966064453125,0.188232421875,-4.465648854961832,4.282442748091603,-1.366412213740458
8.14,-0.010986328125,-0.975830078125,0.18115234375,-4.633587786259542,2.33587786259542,-1.9923664122137406
8.15,0.009033203125,-0.98193359375,0.16357421875,-2.7404580152671754,0.6793893129770993,-2.480916030534351
8.16,0.017333984375,-0.97705078125,0.157470703125,0.8702290076335878,0.42748091603053434,-2.6259541984732824
8.17,0.021728515625,-0.95849609375,0.156982421875,3.404580152671756,0.7786259541984732,-2.900763358778626
8.18,0.016357421875,-0.9453125,0.17626953125,3.435114503816794,1.015267175572519,-3.312977099236641
8.19,0.000732421875,-0.9453125,0.177490234375,3.236641221374046,0.44274809160305345,-3.366412213740458
8.2,-0.003662109375,-0.944091796875,0.173828125,2.946564885496183,0.916030534351145,-3.183206106870229
8.21,-0.020751953125,-0.964599609375,0.181884765625,2.5572519083969465,0.13740458015267176,-3.1297709923664123
8.22,-0.021240234375,-0.97265625,0.174560546875,1.5801526717557253,0.6564885496183206,-3.4198473282442747
8.23,-0.0283203125,-0.992431640625,0.1845703125,-0.1450381679389313,2.633587786259542,-4.076335877862595
8.24,-0.030517578125,-1.0126953125,0.15673828125,-2.114503816793893,3.4198473282442747,-5.022900763358779
8.25,-0.018798828125,-1.01416015625,0.14501953125,-2.2595419847328246,0.8931297709923665,-6.541984732824427
8.26,0.001220703125,-1.013427734375,0.16015625,-1.702290076335878,-1.9541984732824427,-7.748091603053435
8.27,0.034423828125,-0.996337890625,0.16943359375,0.40458015267175573,-2.0381679389312977,-8.282442748091603
8.28,0.05419921875,-0.975341796875,0.16845703125,2.381679389312977,-2.9618320610687023,-8.083969465648854
8.29,0.04736328125,-0.981201171875,0.192626953125,3.7786259541984735,-2.183206106870229,-7.66412213740458
8.3,0.0361328125,-0.9873046875,0.1728515625,5.083969465648855,-2.854961832061069,-7.748091603053435
8.31,0.00439453125,-0.997802734375,0.179443359375,6.0458015267175576,-3.9160305343511452,-7.67175572519084
8.32,-0.02490234375,-0.988037109375,0.195556640625,6.030534351145038,-4.763358778625954,-7.977099236641221
8.33,-0.03515625,-1.000732421875,0.181396484375,5.99236641221374,-6.221374045801527,-8.17557251908397
8.34,-0.05517578125,-1.017578125,0.184814453125,6.32824427480916,-6.977099236641221,-8.16030534351145
8.35,-0.062255859375,-1.025634765625,0.1796875,6.343511450381679,-5.969465648854962,-7.732824427480916
8.36,-0.0751953125,-1.028564453125,0.1787109375,5.022900763358779,-4.854961832061068,-7.1679389312977095
8.37,-0.072998046875,-1.027587890625,0.153564453125,3.1526717557251906,-5.015267175572519,-6.282442748091603
8.38,-0.07373046875,-1.001953125,0.140869140625,0.9770992366412213,-6.1679389312977095,-5.541984732824427
8.39,-0.048095703125,-1.004638671875,0.13134765625,-1.2900763358778626,-7.755725190839694,-4.717557251908397
8.4,-0.03125,-1.022216796875,0.144287109375,-2.1603053435114505,-9.916030534351146,-4.190839694656488
8.41,-0.03173828125,-1.06005859375,0.1552734375,-4.061068702290076,-13.938931297709924,-4.9465648854961835
8.42,-0.01953125,-1.103515625,0.16552734375,-5.549618320610687,-15.992366412213741,-5.969465648854962
8.43,-0.0087890625,-1.13525390625,0.18798828125,-6.343511450381679,-18.50381679389313,-6.717557251908397
8.44,0.003173828125,-1.15380859375,0.188720703125,-5.9541984732824424,-19.0,-6.435114503816794
8.45,0.036376953125,-1.142578125,0.199951171875,-3.687022900763359,-18.16793893129771,-5.6106870229007635
8.46,0.052490234375,-1.111572265625,0.188720703125,-1.1603053435114503,-17.83206106870229,-4.33587786259542
8.47,0.07080078125,-1.109130859375,0.18505859375,0.7022900763358778,-17.763358778625953,-3.572519083969466
8.48,0.08056640625,-1.099609375,0.18017578125,2.213740458015267,-16.793893129770993,-3.053435114503817
8.49,0.07275390625,-1.099853515625,0.186767578125,1.5114503816793894,-15.83206106870229,-3.045801526717557
8.5,0.074951171875,-1.098388671875,0.1875,0.5801526717557252,-15.198473282442748,-2.946564885496183
8.51,0.04931640625,-1.089111328125,0.19287109375,0.29770992366412213,-14.778625954198473,-2.7709923664122136
8.52,0.056640625,-1.0615234375,0.2041015625,-0.9541984732824428,-13.763358778625955,-3.0610687022900764
8.53,0.064453125,-1.009521484375,0.215087890625,-3.7480916030534353,-13.297709923664122,-2.9160305343511452
8.54,0.0654296875,-0.992919921875,0.204345703125,-7.137404580152672,-12.541984732824428,-2.8473282442748094
8.55,0.0712890625,-1.003173828125,0.185302734375,-7.427480916030534,-11.198473282442748,-2.6030534351145036
8.56,0.078125,-1.01025390625,0.172607421875,-6.480916030534351,-9.267175572519085,-2.236641221374046
8.57,0.0810546875,-1.019287109375,0.161865234375,-6.748091603053435,-8.297709923664122,-2.3435114503816794
8.58,0.078125,-1.028564453125,0.18359375,-7.213740458015267,-7.419847328244275,-3.3206106870229006
8.59,0.119873046875,-1.035400390625,0.224853515625,-8.221374045801527,-5.633587786259542,-3.854961832061069
8.6,0.139892578125,-1.04931640625,0.2783203125,-7.748091603053435,-3.1755725190839694,-4.198473282442748
8.61,0.14990234375,-1.0595703125,0.298828125,-5.557251908396947,0.9770992366412213,-4.6106870229007635
8.62,0.15966796875,-1.072998046875,0.360595703125,-3.381679389312977,4.931297709923665,-4.977099236641221
8.63,0.164306640625,-1.065673828125,0.3857421875,-0.12213740458015267,6.778625954198473,-6.1603053435114505
8.64,0.125244140625,-1.049560546875,0.42333984375,4.137404580152672,6.259541984732825,-8.244274809160306
8.65,0.08642578125,-1.03173828125,0.45361328125,7.0534351145038165,3.1908396946564888,-9.938931297709924
8.66,0.060302734375,-0.991455078125,0.4775390625,9.610687022900763,-0.648854961832061,-10.274809160305344
8.67,0.010009765625,-0.968505859375,0.496826171875,12.786259541984732,-1.4274809160305344,-8.557251908396946
8.68,-0.01708984375,-0.89501953125,0.487548828125,14.679389312977099,-4.297709923664122,-4.679389312977099
8.69,-0.000732421875,-0.826904296875,0.46435546875,14.351145038167939,-8.16030534351145,-0.3053435114503817
8.7,0.051513671875,-0.79736328125,0.40966796875,17.480916030534353,-14.16030534351145,4.961832061068702
8.71,0.101318359375,-0.7666015625,0.372314453125,21.366412213740457,-10.938931297709924,9.419847328244275
8.72,0.1376953125,-0.76318359375,0.346923828125,20.610687022900763,-6.015267175572519,12.86259541984733
8.73,0.14208984375,-0.786376953125,0.3408203125,19.03053435114504,-5.297709923664122,14.755725190839694
8.74,0.202392578125,-0.898193359375,0.358154296875,16.80916030534351,-4.633587786259542,15.076335877862595
8.75,0.223388671875,-0.97900390625,0.34375,11.534351145038167,-3.8931297709923665,13.48091603053435
8.76,0.280029296875,-1.056396484375,0.34423828125,0.030534351145038167,-0.9541984732824428,9.145038167938932
8.77,0.3212890625,-1.14697265625,0.381103515625,-2.1755725190839694,-3.4580152671755724,2.8625954198473282
8.78,0.3515625,-1.18701171875,0.407470703125,3.648854961832061,-5.67175572519084,-4.297709923664122
8.79,0.351318359375,-1.159423828125,0.452880859375,10.290076335877863,-7.076335877862595,-10.16030534351145
8.8,0.342529296875,-1.090576171875,0.438232421875,15.603053435114504,-8.755725190839694,-12.763358778625955
8.81,0.28271484375,-1.006103515625,0.3935546875,17.778625954198475,-11.916030534351146,-12.358778625954198
8.82,0.268798828125,-0.92333984375,0.31640625,15.82442748091603,-9.236641221374045,-10.778625954198473
8.83,0.227783203125,-0.8837890625,0.279052734375,15.389312977099237,-8.13740458015267,-8.259541984732824
8.84,0.183837890625,-0.8525390625,0.244384765625,14.16030534351145,-9.908396946564885,-5.587786259541985
8.85,0.176025390625,-0.847412109375,0.227294921875,12.82442748091603,-13.007633587786259,-1.7099236641221374
8.86,0.18212890625,-0.849609375,0.215576171875,13.702290076335878,-13.488549618320612,2.763358778625954
8.87,0.228271484375,-0.825439453125,0.174072265625,19.81679389312977,-11.412213740458014,6.320610687022901
8.88,0.280517578125,-0.755859375,0.1259765625,26.389312977099237,-8.488549618320612,8.893129770992367
8.89,0.33642578125,-0.673583984375,0.0869140625,23.557251908396946,-2.648854961832061,8.183206106870228
8.9,0.3564453125,-0.569580078125,0.064453125,16.6793893129771,-2.122137404580153,5.732824427480916
8.91,0.387451171875,-0.482666015625,-0.026611328125,13.282442748091603,-5.015267175572519,2.786259541984733
8.92,0.426513671875,-0.43115234375,-0.061279296875,14.206106870229007,-3.8473282442748094,1.3282442748091603
8.93,0.38427734375,-0.39013671875,-0.0869140625,18.076335877862597,0.2748091603053435,2.2290076335877864
8.94,0.332275390625,-0.400390625,-0.09375,21.282442748091604,4.00763358778626,6.396946564885496
8.95,0.27880859375,-0.44140625,-0.09912109375,20.198473282442748,11.564885496183207,11.648854961832061
8.96,0.233154296875,-0.50146484375,-0.133056640625,12.969465648854962,18.64885496183206,17.015267175572518
8.97,0.156494140625,-0.5703125,-0.107421875,0.44274809160305345,23.82442748091603,20.106870229007633
8.98,0.033203125,-0.681884765625,0.076416015625,-20.80916030534351,17.893129770992367,18.46564885496183
8.99,-0.165771484375,-0.923583984375,0.4306640625,-57.80916030534351,-5.343511450381679,10.793893129770993
9.0,-0.56787109375,-1.724365234375,0.83837890625,-63.0763358778626,-28.19083969465649,-3.7022900763358777
9.01,-1.02197265625,-2.0,1.22412109375,-49.541984732824424,-30.916030534351144,-29.450381679389313
9.02,-0.305419921875,-2.0,0.896728515625,-54.900763358778626,-15.19083969465649,-38.47328244274809
9.03,0.376953125,-1.510009765625,0.399169921875,-32.94656488549618,-2.7099236641221376,-7.961832061068702
9.04,0.71923828125,-1.163330078125,0.20556640625,-21.076335877862597,9.366412213740459,16.47328244274809
9.05,0.66552734375,-1.3193359375,0.2412109375,-36.16793893129771,-3.2595419847328246,14.106870229007633
9.06,0.5341796875,-1.697509765625,0.257568359375,-27.61832061068702,-33.18320610687023,2.213740458015267
9.07,0.340576171875,-1.86181640625,0.38671875,4.33587786259542,-12.145038167938932,-6.916030534351145
9.08,0.02978515625,-1.640380859375,0.613525390625,22.49618320610687,4.587786259541985,-12.587786259541986
9.09,-0.129638671875,-1.365478515625,0.676513671875,15.206106870229007,10.0,-14.213740458015268
9.1,-0.18505859375,-1.23291015625,0.54052734375,3.7022900763358777,18.595419847328245,-9.633587786259541
9.11,-0.158447265625,-1.14111328125,0.369873046875,13.83206106870229,28.82442748091603,2.549618320610687
9.12,-0.126220703125,-0.978271484375,0.318115234375,28.954198473282442,28.81679389312977,10.755725190839694
9.13,-0.12744140625,-0.807373046875,0.354736328125,24.580152671755727,19.541984732824428,15.67175572519084
9.14,-0.08154296875,-0.7294921875,0.4033203125,12.946564885496183,10.038167938931299,17.984732824427482
9.15,-0.001953125,-0.67822265625,0.399169921875,8.48091603053435,9.106870229007633,19.435114503816795
9.16,0.0283203125,-0.638671875,0.3974609375,4.709923664122138,10.854961832061068,20.213740458015266
9.17,0.063720703125,-0.587158203125,0.38525390625,-0.1450381679389313,12.251908396946565,19.870229007633586
9.18,0.075927734375,-0.589111328125,0.342041015625,-8.221374045801527,12.244274809160306,17.984732824427482
9.19,0.072265625,-0.59765625,0.297607421875,-11.007633587786259,12.687022900763358,14.595419847328245
9.2,0.0703125,-0.625732421875,0.269287109375,-9.82442748091603,13.977099236641221,13.603053435114504
9.21,0.01708984375,-0.67431640625,0.326171875,-8.007633587786259,14.15267175572519,8.648854961832061
9.22,-0.020751953125,-0.69580078125,0.35302734375,-6.312977099236641,13.305343511450381,5.931297709923665
9.23,-0.062255859375,-0.71826171875,0.379638671875,-4.305343511450381,12.358778625954198,3.3740458015267176
9.24,-0.097900390625,-0.743896484375,0.384033203125,-4.236641221374046,10.366412213740459,3.8473282442748094
9.25,-0.137939453125,-0.7783203125,0.356201171875,-5.213740458015267,7.870229007633588,1.6259541984732824
9.26,-0.1455078125,-0.810791015625,0.3505859375,-7.015267175572519,-0.06870229007633588,1.9770992366412214
9.27,-0.096923828125,-0.822998046875,0.349853515625,-13.450381679389313,-8.755725190839694,1.8778625954198473
9.28,-0.000732421875,-0.910400390625,0.340576171875,-12.17557251908397,-6.465648854961832,1.1526717557251909
9.29,0.071044921875,-0.94775390625,0.364013671875,-9.870229007633588,-8.694656488549619,-0.6946564885496184
9.3,0.13134765625,-0.98095703125,0.40478515625,-8.641221374045802,-3.8473282442748094,-2.198473282442748
9.31,0.12939453125,-1.02001953125,0.416015625,-5.717557251908397,1.1374045801526718,-2.0
9.32,0.114013671875,-1.057373046875,0.418701171875,-3.0229007633587788,5.6183206106870225,-6.0
9.33,0.0693359375,-1.0673828125,0.396484375,-1.7099236641221374,3.969465648854962,-8.259541984732824
9.34,0.041015625,-1.04833984375,0.37890625,-0.007633587786259542,6.038167938931298,-8.778625954198473
9.35,0.026611328125,-1.045166015625,0.349365234375,-0.5725190839694656,13.17557251908397,-8.366412213740459
9.36,0.0009765625,-1.041748046875,0.342041015625,-0.9618320610687023,15.48091603053435,-7.145038167938932
9.37,-0.012451171875,-1.0400390625,0.32958984375,-2.8396946564885495,18.458015267175572,-7.816793893129771
9.38,-0.005126953125,-1.051025390625,0.31689453125,-2.83206106870229,20.435114503816795,-4.152671755725191
9.39,0.00244140625,-1.041015625,0.30712890625,-1.1297709923664123,23.12213740458015,-2.687022900763359
9.4,0.00927734375,-1.0107421875,0.29638671875,-1.0534351145038168,24.740458015267176,-1.5114503816793894
9.41,0.01318359375,-0.991943359375,0.273681640625,-1.900763358778626,23.671755725190838,-0.9236641221374046
9.42,-0.009765625,-1.0,0.25927734375,-1.2595419847328244,20.396946564885496,-0.7404580152671756
9.43,-0.022216796875,-0.964599609375,0.255859375,-0.26717557251908397,19.49618320610687,-1.1450381679389312
9.44,-0.037109375,-0.959716796875,0.265380859375,-0.4961832061068702,14.86259541984733,-1.5801526717557253
9.45,-0.05810546875,-0.94873046875,0.263671875,-1.3893129770992367,12.076335877862595,-2.5114503816793894
9.46,-0.076171875,-0.95654296875,0.26220703125,-1.1068702290076335,8.351145038167939,-3.900763358778626
9.47,-0.083984375,-0.9716796875,0.259033203125,-0.4198473282442748,3.732824427480916,-5.427480916030534
9.48,-0.087158203125,-0.9609375,0.244873046875,-1.213740458015267,0.015267175572519083,-6.648854961832061
9.49,-0.0908203125,-0.9462890625,0.23046875,-2.6946564885496183,-3.6946564885496183,-7.00763358778626
9.5,-0.08349609375,-0.945068359375,0.21630859375,-3.3969465648854964,-6.67175572519084,-6.0
9.51,-0.06103515625,-0.950927734375,0.216552734375,-2.954198473282443,-8.610687022900763,-4.648854961832061
9.52,-0.0419921875,-0.9423828125,0.236083984375,-2.3969465648854964,-8.82442748091603,-3.0076335877862594
9.53,-0.01220703125,-0.9560546875,0.244873046875,-2.5801526717557253,-8.259541984732824,-2.1374045801526718
9.54,0.0029296875,-0.97314453125,0.23388671875,-2.2290076335877864,-6.748091603053435,-1.7557251908396947
9.55,0.012939453125,-0.979248046875,0.225830078125,-1.816793893129771,-4.809160305343512,-2.16793893129771
9.56,0.012451171875,-0.986328125,0.229736328125,-1.4274809160305344,-4.458015267175573,-2.66412213740458
9.57,0.0224609375,-0.98583984375,0.234130859375,-1.2900763358778626,-3.50381679389313,-2.9923664122137406
9.58,0.047607421875,-0.987060546875,0.232177734375,-0.816793893129771,-2.5877862595419847,-3.480916030534351
9.59,0.052978515625,-1.0087890625,0.235595703125,0.1450381679389313,-1.3511450381679388,-4.480916030534351
9.6,0.0517578125,-1.030029296875,0.260009765625,0.46564885496183206,-0.8015267175572519,-5.442748091603053
9.61,0.033203125,-1.036376953125,0.259765625,0.732824427480916,-0.3282442748091603,-6.885496183206107
9.62,0.01708984375,-1.044189453125,0.25244140625,0.5343511450381679,0.17557251908396945,-5.977099236641221
9.63,0.01513671875,-1.016357421875,0.251708984375,0.648854961832061,0.4961832061068702,-8.526717557251908
9.64,-0.01171875,-1.022216796875,0.25390625,0.17557251908396945,-0.9694656488549618,-8.870229007633588
9.65,-0.01708984375,-1.009033203125,0.239990234375,-0.2900763358778626,-2.1526717557251906,-8.557251908396946
9.66,-0.00634765625,-1.00439453125,0.2412109375,-0.20610687022900764,-2.954198473282443,-8.022900763358779
9.67,0.00244140625,-0.991943359375,0.244384765625,-0.022900763358778626,-3.404580152671756,-6.809160305343512
9.68,0.00732421875,-0.9814453125,0.229248046875,-0.17557251908396945,-3.6946564885496183,-5.641221374045801
9.69,0.021728515625,-0.983154296875,0.226318359375,-0.4351145038167939,-3.3053435114503817,-4.541984732824427
9.7,0.034912109375,-0.994384765625,0.209716796875,-1.2366412213740459,-2.1297709923664123,-4.0534351145038165
9.71,0.039794921875,-0.99072265625,0.20849609375,-2.6412213740458017,-1.2366412213740459,-4.206106870229007
9.72,0.060302734375,-1.001953125,0.212890625,-3.4732824427480917,-0.8473282442748091,-4.595419847328245
9.73,0.060791015625,-0.995849609375,0.205322265625,-4.015267175572519,-0.9465648854961832,-5.526717557251908
9.74,0.06689453125,-0.994384765625,0.2138671875,-4.259541984732825,-0.8778625954198473,-6.122137404580153
9.75,0.0654296875,-0.988037109375,0.21337890625,-4.412213740458015,0.22137404580152673,-7.190839694656488
9.76,0.0390625,-0.9990234375,0.224365234375,-5.770992366412214,1.3053435114503817,-7.6106870229007635
9.77,0.031494140625,-0.9931640625,0.227783203125,-3.053435114503817,3.549618320610687,-8.213740458015268
9.78,0.02880859375,-0.980224609375,0.214111328125,-2.519083969465649,6.076335877862595,-8.259541984732824
9.79,-0.002685546875,-0.99658203125,0.200439453125,-2.236641221374046,7.564885496183206,-8.610687022900763
9.8,-0.015625,-1.00732421875,0.185546875,-1.099236641221374,8.16793893129771,-8.931297709923664
9.81,-0.032958984375,-1.012451171875,0.16845703125,-0.03816793893129771,9.748091603053435,-9.442748091603054
9.82,-0.04541015625,-1.014404296875,0.166015625,0.7480916030534351,6.580152671755725,-9.564885496183207
9.83,-0.077392578125,-1.013916015625,0.163330078125,0.8625954198473282,3.946564885496183,-9.51908396946565
9.84,-0.0361328125,-0.986572265625,0.156982421875,0.05343511450381679,0.7938931297709924,-9.48091603053435
9.85,-0.050048828125,-1.007568359375,0.176025390625,-1.1755725190839694,-1.9465648854961832,-9.404580152671755
9.86,-0.0439453125,-1.04150390625,0.19384765625,-1.6793893129770991,-3.648854961832061,-8.595419847328245
9.87,-0.0126953125,-1.0654296875,0.210693359375,-1.4351145038167938,-5.351145038167939,-7.183206106870229
9.88,0.025634765625,-1.07763671875,0.220703125,-2.4427480916030535,-5.557251908396947,-5.015267175572519
9.89,0.083251953125,-1.075439453125,0.241455078125,-2.6259541984732824,-4.435114503816794,-1.7709923664122138
9.9,0.11962890625,-1.075927734375,0.216796875,-2.877862595419847,-2.2977099236641223,0.08396946564885496
9.91,0.138916015625,-1.087646484375,0.22314453125,-3.564885496183206,0.7786259541984732,4.938931297709924
9.92,0.118408203125,-1.114501953125,0.22509765625,-3.7022900763358777,2.877862595419847,6.572519083969466
9.93,0.068115234375,-1.1552734375,0.248291015625,-4.763358778625954,2.984732824427481,6.473282442748092
9.94,0.0458984375,-1.190185546875,0.274169921875,-6.099236641221374,1.549618320610687,5.343511450381679
9.95,0.02783203125,-1.210693359375,0.31103515625,-6.793893129770993,0.22900763358778625,4.351145038167939
9.96,0.014892578125,-1.2041015625,0.343994140625,-4.442748091603053,0.16030534351145037,4.320610687022901
9.97,0.009521484375,-1.198974609375,0.355224609375,-0.7862595419847328,-0.549618320610687,3.519083969465649
9.98,0.019775390625,-1.1474609375,0.345458984375,1.7786259541984732,-2.6106870229007635,0.6870229007633588
9.99,0.055908203125,-1.100830078125,0.34765625,1.6106870229007633,-3.4732824427480917,-2.50381679389313
10.0,0.087646484375,-1.041748046875,0.351806640625,0.6259541984732825,-2.145038167938931,-5.687022900763359
10.01,0.12744140625,-0.986572265625,0.3349609375,2.3740458015267176,-1.4809160305343512,-8.34351145038168
10.02,0.134033203125,-0.95263671875,0.312744140625,3.7404580152671754,-0.6793893129770993,-11.030534351145038
10.03,0.12841796875,-0.948486328125,0.300048828125,4.519083969465649,0.7251908396946565,-12.557251908396946
10.04,0.102294921875,-0.963623046875,0.310791015625,5.259541984732825,2.068702290076336,-13.366412213740459
10.05,0.0810546875,-0.955322265625,0.33251953125,5.076335877862595,1.4045801526717556,-13.877862595419847
10.06,0.082275390625,-0.932373046875,0.365966796875,4.572519083969466,-0.1450381679389313,-14.129770992366412
10.07,0.090087890625,-0.919921875,0.401123046875,4.67175572519084,-0.6106870229007634,-14.419847328244275
10.08,0.07958984375,-0.8955078125,0.4228515625,6.1679389312977095,-0.16793893129770993,-13.84732824427481
10.09,0.058349609375,-0.85693359375,0.447509765625,8.435114503816793,-3.480916030534351,-12.435114503816793
10.1,0.072265625,-0.816162109375,0.4462890625,10.427480916030534,-6.022900763358779,-9.938931297709924
10.11,0.089599609375,-0.793701171875,0.439697265625,10.312977099236642,-6.488549618320611,-6.687022900763359
10.12,0.131591796875,-0.7724609375,0.41455078125,8.427480916030534,-1.2671755725190839,-2.7480916030534353
10.13,0.11474609375,-0.80517578125,0.376953125,7.4961832061068705,-3.236641221374046,2.480916030534351
10.14,0.131103515625,-0.819580078125,0.3642578125,5.519083969465649,-5.435114503816794,7.67175572519084
10.15,0.1845703125,-0.831787109375,0.37451171875,3.030534351145038,-6.717557251908397,10.549618320610687
10.16,0.196044921875,-0.90234375,0.359375,0.48091603053435117,-9.641221374045802,10.557251908396946
10.17,0.235595703125,-0.9453125,0.37548828125,-2.595419847328244,-12.305343511450381,7.5038167938931295
10.18,0.263916015625,-1.013671875,0.409423828125,-2.519083969465649,-12.49618320610687,2.732824427480916
10.19,0.2783203125,-1.037109375,0.425537109375,-3.83206106870229,-7.893129770992366,-2.427480916030534
10.2,0.29296875,-1.02783203125,0.40966796875,-1.7404580152671756,-5.022900763358779,-5.450381679389313
10.21,0.304443359375,-0.967529296875,0.39306640625,-4.633587786259542,-2.6564885496183206,-7.778625954198473
10.22,0.3056640625,-0.91845703125,0.3701171875,-2.5877862595419847,-1.1221374045801527,-5.106870229007634
10.23,0.303955078125,-0.90087890625,0.32958984375,0.20610687022900764,1.816793893129771,-4.152671755725191
10.24,0.30517578125,-0.920654296875,0.32080078125,5.572519083969466,6.0458015267175576,-3.2748091603053435
10.25,0.296142578125,-0.934814453125,0.286376953125,9.198473282442748,5.938931297709924,-2.7938931297709924
10.26,0.285888671875,-0.90576171875,0.23046875,12.67175572519084,5.984732824427481,-1.3587786259541985
10.27,0.2685546875,-0.845458984375,0.16455078125,13.732824427480915,4.656488549618321,1.0763358778625953
10.28,0.22900390625,-0.7822265625,0.1220703125,14.740458015267176,2.0,3.732824427480916
10.29,0.2255859375,-0.751220703125,0.092041015625,10.312977099236642,8.282442748091603,6.5038167938931295
10.3,0.238525390625,-0.72998046875,0.065185546875,4.847328244274809,9.83969465648855,8.51908396946565
10.31,0.26220703125,-0.704345703125,0.024169921875,1.1984732824427482,8.091603053435115,8.221374045801527
10.32,0.312744140625,-0.651611328125,-0.04150390625,4.152671755725191,10.709923664122137,6.66412213740458
10.33,0.301025390625,-0.5498046875,-0.107666015625,17.251908396946565,15.900763358778626,5.3893129770992365
10.34,0.229736328125,-0.454833984375,-0.116943359375,30.740458015267176,22.33587786259542,6.557251908396947
10.35,0.15283203125,-0.41552734375,-0.1162109375,39.02290076335878,19.671755725190838,10.389312977099237
10.36,0.1533203125,-0.3662109375,-0.160400390625,42.33587786259542,26.625954198473284,15.648854961832061
10.37,0.148193359375,-0.33447265625,-0.205810546875,42.16030534351145,36.725190839694655,25.419847328244273
10.38,0.209716796875,-0.33544921875,-0.2138671875,26.85496183206107,43.43511450381679,33.282442748091604
10.39,0.2353515625,-0.40625,-0.103515625,-17.53435114503817,33.770992366412216,37.045801526717554
10.4,0.239501953125,-0.610595703125,0.1552734375,-87.61832061068702,-11.473282442748092,35.62595419847328
10.41,-0.1435546875,-1.123046875,0.675537109375,-165.12213740458014,-74.6793893129771,31.259541984732824
10.42,-1.56787109375,-2.0,1.306640625,-184.19847328244273,-124.3206106870229,-14.099236641221374
10.43,-1.220947265625,-2.0,1.662353515625,-115.7557251908397,-86.94656488549619,-40.2442748091603
10.44,0.550537109375,-2.0,0.627197265625,-32.30534351145038,60.61068702290076,-5.374045801526718
10.45,0.68212890625,-1.047119140625,0.3056640625,-28.259541984732824,67.12213740458016,17.48854961832061
10.46,0.602294921875,-0.77490234375,0.05859375,-33.847328244274806,30.625954198473284,22.053435114503817
10.47,0.649658203125,-0.95166015625,-0.081787109375,-41.717557251908396,6.091603053435114,13.435114503816793
10.48,0.623291015625,-1.145751953125,-0.112548828125,-54.83969465648855,13.992366412213741,-2.4198473282442747
10.49,0.240234375,-1.399658203125,0.065673828125,-38.038167938931295,-15.603053435114504,-19.48854961832061
10.5,-0.033203125,-1.525146484375,0.39501953125,1.1374045801526718,-32.50381679389313,-29.099236641221374
10.51,-0.00048828125,-1.3291015625,0.728759765625,31.900763358778626,-3.549618320610687,-28.419847328244273
10.52,0.009521484375,-1.104736328125,0.718017578125,26.0381679389313,45.770992366412216,-21.801526717557252
10.53,-0.177001953125,-0.89208984375,0.651611328125,5.366412213740458,44.83206106870229,-17.0381679389313
10.54,-0.191162109375,-0.797607421875,0.409423828125,-2.381679389312977,29.671755725190838,-9.32824427480916
10.55,-0.194091796875,-0.685791015625,0.295654296875,-0.7557251908396947,25.50381679389313,-0.7251908396946565
10.56,-0.218017578125,-0.5947265625,0.288818359375,0.48854961832061067,22.00763358778626,6.969465648854962
10.57,-0.226318359375,-0.548583984375,0.37841796875,2.1603053435114505,16.198473282442748,13.122137404580153
10.58,-0.22119140625,-0.57373046875,0.397705078125,5.9465648854961835,3.717557251908397,15.526717557251908
10.59,-0.157958984375,-0.633056640625,0.382568359375,8.877862595419847,-8.335877862595419,15.511450381679388
10.6,-0.0615234375,-0.66552734375,0.33447265625,14.396946564885496,2.2595419847328246,15.580152671755725
10.61,-0.050048828125,-0.680908203125,0.32080078125,11.374045801526718,11.625954198473282,13.687022900763358
10.62,-0.058349609375,-0.68994140625,0.31005859375,-0.022900763358778626,5.977099236641221,10.053435114503817
10.63,-0.007568359375,-0.783203125,0.30322265625,-11.84732824427481,3.0916030534351147,6.488549618320611
10.64,0.02490234375,-0.884521484375,0.319091796875,-10.603053435114504,1.2213740458015268,5.755725190839694
10.65,0.016845703125,-0.925537109375,0.353271484375,-10.67175572519084,1.2671755725190839,1.3511450381679388
10.66,0.011474609375,-0.955322265625,0.3486328125,-13.916030534351146,0.6870229007633588,-0.8396946564885496
10.67,0.014404296875,-0.984375,0.3271484375,-16.49618320610687,5.236641221374046,-1.7709923664122138
10.68,-0.000244140625,-0.99072265625,0.30712890625,-17.61832061068702,7.32824427480916,-2.427480916030534
10.69,0.0068359375,-1.0029296875,0.29638671875,-25.358778625954198,7.824427480916031,-3.5572519083969465
10.7,0.031494140625,-1.03466796875,0.293701171875,-29.519083969465647,9.038167938931299,-5.099236641221374
10.71,0.05029296875,-1.08251953125,0.281005859375,-33.534351145038165,11.961832061068701,-6.076335877862595
10.72,0.03955078125,-1.137451171875,0.2626953125,-29.870229007633586,14.946564885496183,-6.312977099236641
10.73,0.026123046875,-1.14892578125,0.229736328125,-24.076335877862597,16.9618320610687,-6.473282442748092
10.74,0.0205078125,-1.154296875,0.205810546875,-18.51145038167939,18.27480916030534,-6.076335877862595
10.75,0.013427734375,-1.144775390625,0.177001953125,-14.251908396946565,18.358778625954198,-5.709923664122138
10.76,0.0068359375,-1.1240234375,0.139404296875,-9.80916030534351,20.34351145038168,-4.320610687022901
10.77,-0.01318359375,-1.11181640625,0.130126953125,-3.1068702290076335,21.290076335877863,-2.427480916030534
10.78,-0.029052734375,-1.082275390625,0.138671875,2.519083969465649,21.0,-0.1450381679389313
10.79,-0.04345703125,-1.054931640625,0.13330078125,6.33587786259542,19.442748091603054,1.6412213740458015
10.8,-0.044677734375,-1.020263671875,0.16015625,10.17557251908397,14.412213740458014,2.2290076335877864
10.81,-0.029052734375,-1.004150390625,0.179931640625,13.381679389312977,9.610687022900763,1.5190839694656488
10.82,-0.0390625,-0.9892578125,0.216796875,14.389312977099237,4.885496183206107,0.7709923664122137
10.83,-0.05126953125,-0.967529296875,0.236083984375,13.885496183206106,1.366412213740458,-0.08396946564885496
10.84,-0.059814453125,-0.952880859375,0.24853515625,12.145038167938932,3.030534351145038,-1.9312977099236641
10.85,-0.0546875,-0.927978515625,0.23779296875,9.664122137404581,7.786259541984733,0.8320610687022901
10.86,-0.0625,-0.89892578125,0.18798828125,6.427480916030534,11.931297709923664,2.267175572519084
10.87,-0.027587890625,-0.8994140625,0.134033203125,3.931297709923664,13.541984732824428,3.7480916030534353
10.88,-0.013427734375,-0.92138671875,0.080810546875,0.31297709923664124,12.419847328244275,4.091603053435114
10.89,0.027099609375,-0.936767578125,0.09228515625,-5.145038167938932,9.648854961832061,2.877862595419847
10.9,0.0380859375,-0.977294921875,0.114990234375,-7.3816793893129775,2.0229007633587788,0.9083969465648855
10.91,0.036376953125,-1.020751953125,0.146240234375,-7.213740458015267,2.2977099236641223,-0.5648854961832062
10.92,0.0361328125,-1.0419921875,0.18310546875,-5.916030534351145,4.465648854961832,-2.145038167938931
10.93,0.0185546875,-1.05224609375,0.1845703125,-4.3893129770992365,4.717557251908397,-3.351145038167939
10.94,0.00732421875,-1.049560546875,0.1630859375,-3.114503816793893,4.32824427480916,-4.366412213740458
10.95,-0.014404296875,-1.03857421875,0.13916015625,-1.4732824427480915,4.778625954198473,-4.717557251908397
10.96,-0.000732421875,-1.026123046875,0.117919921875,0.29770992366412213,5.33587786259542,-4.923664122137405
10.97,-0.011962890625,-1.007080078125,0.123291015625,1.2213740458015268,5.106870229007634,-5.366412213740458
10.98,-0.00146484375,-0.995361328125,0.096923828125,2.0,4.221374045801527,-5.2748091603053435
10.99,0.014404296875,-0.98876953125,0.09619140625,3.2519083969465647,3.6106870229007635,-5.488549618320611
11.0,0.03466796875,-0.998046875,0.108154296875,4.564885496183206,5.412213740458015,-5.763358778625954
11.01,0.04736328125,-1.007568359375,0.114990234375,5.480916030534351,6.763358778625954,-6.770992366412214
11.02,0.031982421875,-1.030517578125,0.117919921875,7.236641221374046,6.99236641221374,-7.748091603053435
11.03,0.037109375,-0.9912109375,0.12158203125,8.893129770992367,8.885496183206106,-8.076335877862595
11.04,0.017578125,-0.97412109375,0.126220703125,9.244274809160306,10.312977099236642,-7.916030534351145
11.05,0.0107421875,-0.955078125,0.12744140625,8.83969465648855,9.709923664122137,-7.717557251908397
11.06,-0.00146484375,-0.9404296875,0.120361328125,8.16030534351145,7.641221374045801,-7.450381679389313
11.07,-0.01123046875,-0.9384765625,0.123779296875,7.190839694656488,6.099236641221374,-7.022900763358779
11.08,-0.016357421875,-0.9580078125,0.1220703125,6.748091603053435,4.305343511450381,-6.687022900763359
11.09,-0.044677734375,-0.95751953125,0.114990234375,6.2748091603053435,0.44274809160305345,-6.786259541984733
11.1,-0.058837890625,-0.99462890625,0.137451171875,6.068702290076335,-1.83206106870229,-6.870229007633588
11.11,-0.04736328125,-1.005859375,0.136962890625,6.435114503816794,-3.213740458015267,-6.9465648854961835
11.12,-0.053955078125,-1.007080078125,0.1142578125,6.6106870229007635,-4.3816793893129775,-6.854961832061068
11.13,-0.050048828125,-0.989013671875,0.11767578125,6.816793893129771,-4.175572519083969,-6.519083969465649
11.14,-0.032470703125,-0.9921875,0.11376953125,7.083969465648855,-3.381679389312977,-5.809160305343512
11.15,-0.02880859375,-0.988525390625,0.098388671875,7.290076335877862,-2.969465648854962,-4.801526717557252
11.16,-0.002197265625,-0.99609375,0.085205078125,7.32824427480916,-2.4580152671755724,-4.061068702290076
11.17,-0.025146484375,-0.984619140625,0.09130859375,7.183206106870229,-2.5267175572519083,-3.480916030534351
11.18,-0.0341796875,-0.99951171875,0.095703125,7.145038167938932,-2.687022900763359,-3.099236641221374
11.19,-0.0322265625,-1.01513671875,0.096923828125,7.473282442748092,-1.618320610687023,-2.7786259541984735
11.2,-0.048095703125,-1.02978515625,0.106689453125,7.801526717557252,-0.7862595419847328,-2.2748091603053435
11.21,-0.0361328125,-1.052978515625,0.11865234375,8.725190839694656,-0.12213740458015267,-1.3740458015267176
11.22,-0.02880859375,-1.075439453125,0.120849609375,9.755725190839694,0.7480916030534351,-0.732824427480916
11.23,-0.012939453125,-1.100830078125,0.130615234375,9.86259541984733,1.0305343511450382,-0.5343511450381679
11.24,0.006591796875,-1.121826171875,0.126220703125,9.13740458015267,1.6412213740458015,-0.22900763358778625
11.25,0.038818359375,-1.118896484375,0.17138671875,9.206106870229007,3.0229007633587788,0.4580152671755725
11.26,0.058349609375,-1.092529296875,0.177490234375,10.381679389312977,5.305343511450381,0.04580152671755725
