Time(s),AccX,AccY,AccZ,GyrX,GyrY,GyrZ
0.0,0.123291015625,-0.998046875,0.19873046875,-1.9083969465648856,0.3053435114503817,-1.2748091603053435
0.01,0.117919921875,-0.997314453125,0.202392578125,-1.916030534351145,0.2366412213740458,-1.3587786259541985
0.02,0.123779296875,-1.0029296875,0.192138671875,-1.7938931297709924,0.3816793893129771,-1.282442748091603
0.03,0.111083984375,-1.000732421875,0.190185546875,-1.7099236641221374,0.25190839694656486,-1.2748091603053435
0.04,0.117919921875,-1.004638671875,0.200439453125,-1.549618320610687,0.5267175572519084,-1.1984732824427482
0.05,0.12646484375,-1.001953125,0.18798828125,-1.3358778625954197,0.2824427480916031,-1.213740458015267
0.06,0.123779296875,-1.006103515625,0.197998046875,-1.1450381679389312,0.3969465648854962,-1.3282442748091603
0.07,0.128173828125,-1.000244140625,0.206298828125,-0.8931297709923665,0.21374045801526717,-1.549618320610687
0.08,0.119873046875,-0.9951171875,0.20361328125,-0.916030534351145,0.030534351145038167,-1.6946564885496183
0.09,0.11767578125,-0.99658203125,0.20458984375,-0.9923664122137404,1.9312977099236641,-1.6717557251908397
0.1,0.119384765625,-0.9921875,0.201416015625,-0.7938931297709924,0.0,-1.6946564885496183
0.11,0.1220703125,-0.99462890625,0.2060546875,-1.0,-0.022900763358778626,-1.5038167938931297
0.12,0.10986328125,-1.0,0.203125,-1.0916030534351144,-0.04580152671755725,-1.5572519083969465
0.13,0.136474609375,-1.012939453125,0.209716796875,-1.1603053435114503,-0.11450381679389313,-1.6488549618320612
0.14,0.119873046875,-1.00439453125,0.210205078125,-1.1603053435114503,-0.09923664122137404,-1.6488549618320612
0.15,0.12255859375,-0.999755859375,0.20947265625,-0.6793893129770993,-0.04580152671755725,-1.5419847328244274
0.16,0.1259765625,-0.999755859375,0.205322265625,-0.7022900763358778,-0.1984732824427481,-1.4427480916030535
0.17,0.12109375,-0.992431640625,0.21337890625,-0.7862595419847328,0.022900763358778626,-1.4198473282442747
0.18,0.118408203125,-0.995849609375,0.20556640625,-1.1297709923664123,-0.030534351145038167,-1.3893129770992367
0.19,0.11962890625,-0.994873046875,0.20458984375,-1.1908396946564885,0.06870229007633588,-1.3435114503816794
0.2,0.109619140625,-0.998779296875,0.21337890625,-1.099236641221374,-1.9236641221374047,-1.381679389312977
0.21,0.109619140625,-1.005859375,0.205810546875,-1.1068702290076335,-0.10687022900763359,-1.1450381679389312
0.22,0.134765625,-0.9853515625,0.20947265625,-1.0763358778625953,-0.15267175572519084,-1.2748091603053435
0.23,0.128173828125,-0.998779296875,0.208740234375,-0.8625954198473282,-0.366412213740458,-1.3053435114503817
0.24,0.130126953125,-0.99658203125,0.19873046875,-1.0305343511450382,0.06870229007633588,-1.3206106870229009
0.25,0.124755859375,-0.9951171875,0.203125,-1.1755725190839694,-0.06870229007633588,-1.2900763358778626
0.26,0.140380859375,-0.99072265625,0.20361328125,-1.4885496183206106,-0.08396946564885496,-1.3740458015267176
0.27,0.126708984375,-0.996337890625,0.197021484375,-1.4961832061068703,-0.030534351145038167,-1.4351145038167938
0.28,0.127197265625,-0.9990234375,0.200439453125,-1.3740458015267176,-0.0916030534351145,-1.3740458015267176
0.29,0.1220703125,-1.013427734375,0.202392578125,-1.5267175572519085,0.0,-1.4122137404580153
0.3,0.125,-1.002197265625,0.201904296875,-1.251908396946565,-0.07633587786259542,-1.748091603053435
0.31,0.12060546875,-0.992431640625,0.19873046875,-1.3358778625954197,-0.24427480916030533,-1.7251908396946565
0.32,0.128173828125,-0.99853515625,0.20703125,-1.3969465648854962,-0.16030534351145037,-1.83206106870229
0.33,0.12841796875,-0.993896484375,0.2001953125,-1.251908396946565,-1.9236641221374047,-1.7786259541984732
0.34,0.127685546875,-0.98486328125,0.201171875,-1.2061068702290076,0.12213740458015267,-1.5725190839694656
0.35,0.11083984375,-0.997314453125,0.20068359375,-1.2366412213740459,0.2748091603053435,-1.6564885496183206
0.36,0.110595703125,-1.004150390625,0.2158203125,-1.2213740458015268,0.022900763358778626,-1.8625954198473282
0.37,0.12744140625,-1.006103515625,0.2080078125,-1.0610687022900764,1.9389312977099236,-1.7786259541984732
0.38,0.123779296875,-1.003173828125,0.202392578125,-0.7557251908396947,-0.2900763358778626,-1.786259541984733
0.39,0.12939453125,-1.00341796875,0.2080078125,-0.8473282442748091,-0.20610687022900764,-1.8015267175572518
0.4,0.1259765625,-1.000244140625,0.200927734375,-0.7862595419847328,-0.2366412213740458,-1.8549618320610688
0.41,0.1337890625,-0.9951171875,0.20703125,-0.9541984732824428,0.11450381679389313,-1.748091603053435
0.42,0.12939453125,-1.012451171875,0.208984375,-0.7022900763358778,0.10687022900763359,-1.916030534351145
0.43,0.129638671875,-0.99560546875,0.209716796875,-0.8473282442748091,0.2748091603053435,-1.7786259541984732
0.44,0.12890625,-0.9931640625,0.218505859375,-0.8015267175572519,0.42748091603053434,-1.8625954198473282
0.45,0.12451171875,-0.99462890625,0.1884765625,-0.8931297709923665,0.3053435114503817,-1.8473282442748091
0.46,0.12744140625,-0.994140625,0.212158203125,-1.0534351145038168,0.33587786259541985,-3.9083969465648853
0.47,0.1181640625,-0.991455078125,0.20263671875,-0.8702290076335878,0.3053435114503817,-2.030534351145038
0.48,0.127197265625,-0.9990234375,0.204833984375,-1.1603053435114503,0.183206106870229,-1.8091603053435115
0.49,0.11279296875,-0.99365234375,0.205810546875,-0.8854961832061069,0.15267175572519084,-1.9694656488549618
0.5,0.123779296875,-0.99609375,0.217529296875,-1.1297709923664123,0.04580152671755725,-2.183206106870229
0.51,0.128173828125,-1.001708984375,0.20751953125,-1.1450381679389312,-0.2900763358778626,-2.0610687022900764
0.52,0.124267578125,-1.001708984375,0.199462890625,-1.1297709923664123,-0.2824427480916031,-1.984732824427481
0.53,0.123046875,-0.9990234375,0.21630859375,-0.648854961832061,-0.33587786259541985,-2.282442748091603
0.54,0.125732421875,-1.000244140625,0.210205078125,-0.5190839694656488,-0.45038167938931295,-2.2061068702290076
0.55,0.126708984375,-0.996826171875,0.20068359375,-0.48854961832061067,-0.2900763358778626,-2.0916030534351147
0.56,0.1396484375,-0.99560546875,0.201416015625,-0.7862595419847328,-0.2824427480916031,-3.877862595419847
0.57,0.129150390625,-0.99755859375,0.20947265625,-0.816793893129771,-0.6564885496183206,-2.145038167938931
0.58,0.1298828125,-0.998779296875,0.217041015625,-0.5801526717557252,-0.7480916030534351,-1.9312977099236641
0.59,0.132568359375,-0.998291015625,0.20703125,-0.44274809160305345,-0.7022900763358778,-2.0839694656488548
0.6,0.1318359375,-1.00634765625,0.2109375,-0.37404580152671757,-0.7480916030534351,-2.0763358778625953
0.61,0.12744140625,-1.003662109375,0.21484375,1.9465648854961832,-0.7175572519083969,-2.1908396946564888
0.62,0.129638671875,-0.998291015625,0.2099609375,-0.022900763358778626,-0.5038167938931297,-2.4122137404580153
0.63,0.127685546875,-0.992919921875,0.207275390625,0.1297709923664122,-0.5572519083969466,-2.6106870229007635
0.64,0.130859375,-1.01318359375,0.21533203125,-0.5190839694656488,-0.9083969465648855,-2.198473282442748
0.65,0.134521484375,-1.014404296875,0.206787109375,-0.0916030534351145,-0.8015267175572519,-2.3053435114503817
0.66,0.130126953125,-0.99462890625,0.18994140625,-0.1297709923664122,-1.0687022900763359,-2.282442748091603
0.67,0.13037109375,-0.9970703125,0.19775390625,-0.40458015267175573,-1.251908396946565,-2.480916030534351
0.68,0.133056640625,-0.99951171875,0.20263671875,-0.40458015267175573,-1.2748091603053435,-2.404580152671756
0.69,0.132568359375,-1.0009765625,0.20703125,-0.2900763358778626,-1.381679389312977,-2.381679389312977
0.7,0.1279296875,-0.999755859375,0.2158203125,-0.4351145038167939,-1.4809160305343512,-2.1755725190839694
0.71,0.13818359375,-0.99365234375,0.2041015625,-0.32061068702290074,-1.3587786259541985,-2.1526717557251906
0.72,0.13330078125,-1.015380859375,0.204833984375,0.0,-1.3969465648854962,-2.0076335877862594
0.73,0.13818359375,-1.01416015625,0.211181640625,0.11450381679389313,-1.3740458015267176,-2.2061068702290076
0.74,0.135009765625,-0.99951171875,0.208251953125,0.648854961832061,-1.3053435114503817,-1.984732824427481
0.75,0.138671875,-0.995849609375,0.2080078125,0.6946564885496184,-1.1297709923664123,-1.8854961832061068
0.76,0.136962890625,-0.98779296875,0.2099609375,0.6412213740458015,-1.083969465648855,-1.7557251908396947
0.77,0.13720703125,-0.99267578125,0.203125,0.07633587786259542,-0.9007633587786259,-1.7557251908396947
0.78,0.138916015625,-0.98095703125,0.1953125,-0.4122137404580153,-0.8854961832061069,-1.8396946564885497
0.79,0.14013671875,-0.984619140625,0.193603515625,-0.6793893129770993,-0.8625954198473282,-1.8931297709923665
0.8,0.146240234375,-0.98681640625,0.2060546875,-0.7862595419847328,-0.7099236641221374,-2.0076335877862594
0.81,0.1376953125,-0.995849609375,0.2080078125,-0.9083969465648855,-0.6717557251908397,-0.007633587786259542
0.82,0.133056640625,-0.996826171875,0.21728515625,-0.9847328244274809,-0.5954198473282443,-2.053435114503817
0.83,0.13720703125,-0.99169921875,0.20068359375,-0.6106870229007634,-0.3893129770992366,-3.9083969465648853
0.84,0.138916015625,-0.990478515625,0.195556640625,-0.8320610687022901,-0.5419847328244275,-1.8015267175572518
0.85,0.138671875,-0.9892578125,0.193115234375,-1.0,-0.32061068702290074,-1.8702290076335877
0.86,0.135498046875,-0.996826171875,0.20751953125,-0.6793893129770993,-0.17557251908396945,-1.366412213740458
0.87,0.13525390625,-0.996337890625,0.200927734375,-0.9236641221374046,-0.07633587786259542,-1.5648854961832062
0.88,0.135498046875,-0.995361328125,0.2060546875,-0.6717557251908397,-0.13740458015267176,-1.3435114503816794
0.89,0.1337890625,-0.994140625,0.211181640625,-0.8244274809160306,-0.16030534351145037,-1.1908396946564885
0.9,0.133056640625,-0.995361328125,0.2021484375,-1.0229007633587786,-0.1450381679389313,-1.3282442748091603
0.91,0.139892578125,-0.996826171875,0.201904296875,-0.8854961832061069,-0.2748091603053435,-1.1526717557251909
0.92,0.134033203125,-0.9990234375,0.2060546875,-0.6564885496183206,-0.32061068702290074,-1.297709923664122
0.93,0.126953125,-0.994140625,0.208984375,-0.8473282442748091,-0.6106870229007634,-1.465648854961832
0.94,0.132568359375,-0.998046875,0.202392578125,-0.5267175572519084,-0.7862595419847328,-1.3206106870229009
0.95,0.134521484375,-0.99609375,0.212646484375,-0.5419847328244275,-0.648854961832061,-1.1297709923664123
0.96,0.127685546875,-0.985107421875,0.196044921875,-0.6564885496183206,-0.7480916030534351,-1.1603053435114503
0.97,0.13818359375,-0.99609375,0.20263671875,-0.4122137404580153,-0.732824427480916,-1.183206106870229
0.98,0.145263671875,-1.0,0.196044921875,-0.5343511450381679,-0.6641221374045801,-0.9389312977099237
0.99,0.1376953125,-0.98486328125,0.210693359375,-0.7404580152671756,-0.7404580152671756,-1.0229007633587786
1.0,0.132568359375,-0.994873046875,0.202880859375,-1.0076335877862594,-0.6412213740458015,-1.213740458015267
1.01,0.128173828125,-0.990234375,0.199462890625,-1.4045801526717556,-0.916030534351145,-1.0
1.02,0.12744140625,-0.990234375,0.21240234375,-1.4809160305343512,-0.8931297709923665,-1.0229007633587786
1.03,0.12646484375,-0.989501953125,0.18896484375,-1.4961832061068703,-0.7862595419847328,-0.8320610687022901
1.04,0.142578125,-1.00341796875,0.20947265625,-1.381679389312977,-0.8396946564885496,-0.6870229007633588
1.05,0.13818359375,-0.994384765625,0.2109375,-1.6946564885496183,-0.732824427480916,-0.6030534351145038
1.06,0.139892578125,-0.9990234375,0.208251953125,-1.3740458015267176,-0.5038167938931297,-0.6259541984732825
1.07,0.138427734375,-0.99951171875,0.207275390625,-1.2061068702290076,-0.2824427480916031,-0.5648854961832062
1.08,0.132080078125,-1.002197265625,0.212890625,-0.9618320610687023,-0.3053435114503817,-0.4198473282442748
1.09,0.13671875,-0.995361328125,0.20263671875,-0.7786259541984732,-0.2748091603053435,-0.3969465648854962
1.1,0.12939453125,-0.987060546875,0.208740234375,-0.8320610687022901,-0.2595419847328244,-0.549618320610687
1.11,0.132568359375,-0.99169921875,0.1923828125,-0.9770992366412213,-0.25190839694656486,-0.45038167938931295
1.12,0.1328125,-0.994384765625,0.209228515625,-1.213740458015267,-0.4122137404580153,-0.3816793893129771
1.13,0.133544921875,-0.99755859375,0.206787109375,-1.3893129770992367,-0.1984732824427481,-0.44274809160305345
1.14,0.127685546875,-0.98974609375,0.206787109375,-1.2213740458015268,-0.22137404580152673,-0.3893129770992366
1.15,0.128173828125,-0.98876953125,0.202880859375,-1.366412213740458,-0.4351145038167939,-0.33587786259541985
1.16,0.1259765625,-0.99658203125,0.206787109375,-1.3893129770992367,-0.3969465648854962,-0.25190839694656486
1.17,0.128173828125,-1.009765625,0.207763671875,-1.5190839694656488,-0.6106870229007634,-0.20610687022900764
1.18,0.132080078125,-0.984619140625,0.208251953125,-1.3129770992366412,-0.5190839694656488,-0.32061068702290074
1.19,0.136962890625,-1.009033203125,0.20654296875,-0.8854961832061069,-0.5877862595419847,-0.45038167938931295
1.2,0.1318359375,-1.0,0.21337890625,-0.48854961832061067,-0.5038167938931297,-0.46564885496183206
1.21,0.13330078125,-0.9970703125,0.205322265625,-0.4961832061068702,-0.366412213740458,-0.5648854961832062
1.22,0.13330078125,-0.991943359375,0.20166015625,-0.19083969465648856,-0.48091603053435117,-0.6946564885496184
1.23,0.13671875,-0.9833984375,0.203369140625,-0.0916030534351145,-0.32061068702290074,-0.5648854961832062
1.24,0.148193359375,-0.999267578125,0.21533203125,-1.9236641221374047,-0.12213740458015267,-0.42748091603053434
1.25,0.12890625,-0.99951171875,0.18896484375,0.05343511450381679,-0.03816793893129771,-0.44274809160305345
1.26,0.13232421875,-0.99609375,0.210205078125,-0.12213740458015267,0.1450381679389313,-0.31297709923664124
1.27,0.129638671875,-0.9970703125,0.21484375,-0.183206106870229,1.9312977099236641,-0.17557251908396945
1.28,0.135009765625,-1.001708984375,0.211669921875,-0.26717557251908397,0.48091603053435117,-0.4122137404580153
1.29,0.133056640625,-0.997802734375,0.21728515625,-0.6030534351145038,0.03816793893129771,-0.2900763358778626
1.3,0.138427734375,-0.99755859375,0.2021484375,-0.7938931297709924,0.04580152671755725,-0.3893129770992366
1.31,0.15087890625,-1.009521484375,0.215087890625,-1.0229007633587786,0.26717557251908397,-0.31297709923664124
1.32,0.13037109375,-0.989990234375,0.2119140625,-1.1068702290076335,0.12213740458015267,-0.5648854961832062
1.33,0.13818359375,-0.999755859375,0.2265625,-1.6870229007633588,0.030534351145038167,-0.6564885496183206
1.34,0.13916015625,-0.995361328125,0.206787109375,-1.450381679389313,0.15267175572519084,-0.8396946564885496
1.35,0.140380859375,-1.002197265625,0.218017578125,-1.4809160305343512,-1.9389312977099236,-0.9312977099236641
1.36,0.1416015625,-0.998779296875,0.209716796875,-1.1603053435114503,0.22137404580152673,-0.8320610687022901
1.37,0.135009765625,-0.999755859375,0.212158203125,-1.4580152671755726,0.44274809160305345,-0.8091603053435115
1.38,0.136474609375,-1.00830078125,0.205810546875,-1.183206106870229,0.26717557251908397,-0.7786259541984732
1.39,0.136474609375,-0.997314453125,0.211181640625,-0.7557251908396947,0.3053435114503817,-0.7633587786259542
1.4,0.134033203125,-0.986083984375,0.193115234375,-0.6259541984732825,0.6870229007633588,-0.7557251908396947
1.41,0.129638671875,-0.98974609375,0.204833984375,-0.7480916030534351,0.7175572519083969,-0.8473282442748091
1.42,0.132080078125,-1.001220703125,0.22802734375,-0.3893129770992366,0.7557251908396947,-0.4732824427480916
1.43,0.129638671875,-0.997314453125,0.210205078125,-0.6183206106870229,0.6335877862595419,-0.5954198473282443
1.44,0.125,-0.99560546875,0.201904296875,-0.7709923664122137,0.6717557251908397,-0.5572519083969466
1.45,0.12744140625,-0.99462890625,0.21337890625,-1.0305343511450382,0.45038167938931295,-0.7862595419847328
1.46,0.136474609375,-0.995849609375,0.21044921875,-1.0,0.3893129770992366,-0.816793893129771
1.47,0.131103515625,-0.99462890625,0.208984375,-1.2366412213740459,0.3435114503816794,-0.8091603053435115
1.48,0.138671875,-0.9970703125,0.2138671875,-1.1603053435114503,0.25190839694656486,-0.732824427480916
1.49,0.1318359375,-0.996337890625,0.21630859375,-0.8473282442748091,0.3282442748091603,-0.648854961832061
1.5,0.130859375,-1.004150390625,0.2060546875,-0.5648854961832062,0.6335877862595419,-0.8091603053435115
1.51,0.138671875,-0.999267578125,0.2060546875,-0.3969465648854962,0.48854961832061067,-0.7099236641221374
1.52,0.131103515625,-1.013916015625,0.20751953125,-0.24427480916030533,0.549618320610687,-0.6793893129770993
1.53,0.127197265625,-1.005126953125,0.205322265625,0.08396946564885496,0.4732824427480916,-0.6106870229007634
1.54,0.13427734375,-0.9912109375,0.205810546875,0.11450381679389313,0.44274809160305345,-0.5114503816793893
1.55,0.12744140625,-0.986083984375,0.20703125,0.3053435114503817,0.4351145038167939,-0.6106870229007634
1.56,0.133544921875,-0.998046875,0.21728515625,0.5954198473282443,0.5419847328244275,-0.45038167938931295
1.57,0.133056640625,-0.99853515625,0.20849609375,0.17557251908396945,0.4732824427480916,-0.37404580152671757
1.58,0.14013671875,-0.9931640625,0.209228515625,0.0916030534351145,0.6793893129770993,-0.6335877862595419
1.59,0.138916015625,-0.99755859375,0.199462890625,0.04580152671755725,0.4961832061068702,-0.5419847328244275
1.6,0.13330078125,-0.9990234375,0.216064453125,0.32061068702290074,0.5038167938931297,-0.4198473282442748
1.61,0.134521484375,-0.98486328125,0.205078125,0.48091603053435117,0.549618320610687,-0.44274809160305345
1.62,0.133056640625,-0.99365234375,0.212890625,0.4961832061068702,0.6412213740458015,-0.37404580152671757
1.63,0.13037109375,-0.99609375,0.21240234375,0.21374045801526717,0.8244274809160306,-0.35877862595419846
1.64,0.12939453125,-1.008056640625,0.208251953125,0.24427480916030533,0.916030534351145,-0.3893129770992366
1.65,0.1328125,-0.9970703125,0.213134765625,0.33587786259541985,0.6946564885496184,-0.22900763358778625
1.66,0.134765625,-1.001708984375,0.20654296875,0.3893129770992366,0.366412213740458,-0.16030534351145037
1.67,0.13427734375,-1.001220703125,0.218994140625,0.549618320610687,0.4198473282442748,-0.06870229007633588
1.68,0.12841796875,-1.0,0.226318359375,0.3282442748091603,0.1450381679389313,-0.06870229007633588
1.69,0.111572265625,-0.99365234375,0.21875,0.16793893129770993,0.3969465648854962,-0.11450381679389313
1.7,0.130126953125,-0.992919921875,0.21826171875,-0.1297709923664122,0.48854961832061067,-1.916030534351145
1.71,0.131591796875,-0.990234375,0.20849609375,-0.0916030534351145,0.6717557251908397,-0.32061068702290074
1.72,0.13671875,-0.9892578125,0.22314453125,-0.07633587786259542,0.7938931297709924,-0.4122137404580153
1.73,0.13232421875,-0.98583984375,0.2158203125,-0.2900763358778626,0.5190839694656488,-0.5801526717557252
1.74,0.134033203125,-0.993896484375,0.22412109375,-0.5190839694656488,0.7175572519083969,-0.5648854961832062
1.75,0.13037109375,-0.99169921875,0.219482421875,-0.16793893129770993,0.5572519083969466,-0.7251908396946565
1.76,0.126708984375,-0.99365234375,0.21875,-0.17557251908396945,0.6030534351145038,-0.7862595419847328
1.77,0.136474609375,-0.990966796875,0.211669921875,-1.9541984732824427,0.5038167938931297,-0.7557251908396947
1.78,0.132568359375,-0.99267578125,0.2333984375,-0.09923664122137404,0.5419847328244275,-1.0534351145038168
1.79,0.12744140625,-0.9921875,0.222412109375,0.21374045801526717,0.7099236641221374,-1.0381679389312977
1.8,0.13427734375,-0.994384765625,0.23291015625,0.21374045801526717,0.8931297709923665,-1.1068702290076335
1.81,0.1259765625,-0.99365234375,0.2041015625,0.2366412213740458,0.7251908396946565,-1.1755725190839694
1.82,0.120361328125,-0.99462890625,0.20947265625,0.06870229007633588,0.6412213740458015,-0.9465648854961832
1.83,0.124755859375,-0.98828125,0.2060546875,-0.3511450381679389,0.46564885496183206,-1.1450381679389312
1.84,0.12255859375,-0.996826171875,0.206787109375,-0.44274809160305345,0.26717557251908397,-0.8549618320610687
1.85,0.12548828125,-0.972900390625,0.211669921875,-0.6335877862595419,0.2748091603053435,-0.6564885496183206
1.86,0.1171875,-0.996826171875,0.211669921875,-0.6870229007633588,0.2366412213740458,-0.5954198473282443
1.87,0.1259765625,-1.00146484375,0.21630859375,-0.4961832061068702,0.13740458015267176,-0.33587786259541985
1.88,0.127197265625,-1.001953125,0.219482421875,-1.9541984732824427,0.5038167938931297,-0.1984732824427481
1.89,0.12548828125,-1.0029296875,0.218017578125,0.0916030534351145,0.4351145038167939,-0.3282442748091603
1.9,0.114013671875,-0.996337890625,0.219970703125,-0.16793893129770993,0.6259541984732825,-0.2900763358778626
1.91,0.126220703125,-0.98681640625,0.21240234375,-0.35877862595419846,0.6717557251908397,-0.4351145038167939
1.92,0.125,-0.988037109375,0.2216796875,-0.5114503816793893,0.8778625954198473,-0.3053435114503817
1.93,0.125244140625,-0.99267578125,0.208984375,-0.8625954198473282,0.7480916030534351,-0.183206106870229
1.94,0.1259765625,-0.9912109375,0.218505859375,-1.213740458015267,0.732824427480916,-0.4122137404580153
1.95,0.1181640625,-0.993408203125,0.216552734375,-1.3969465648854962,0.7022900763358778,-0.2748091603053435
1.96,0.130126953125,-0.998046875,0.21826171875,-1.213740458015267,0.8320610687022901,-0.2595419847328244
1.97,0.12353515625,-0.99658203125,0.2255859375,-1.0229007633587786,0.7786259541984732,-0.25190839694656486
1.98,0.12890625,-0.99658203125,0.217041015625,-0.916030534351145,1.0076335877862594,-0.21374045801526717
1.99,0.128662109375,-0.99755859375,0.217529296875,-0.5572519083969466,1.2748091603053435,-0.17557251908396945
2.0,0.128173828125,-1.013671875,0.216552734375,-0.5877862595419847,1.2366412213740459,-0.2595419847328244
2.01,0.121337890625,-0.99951171875,0.225341796875,-0.42748091603053434,1.16793893129771,-0.2900763358778626
2.02,0.125732421875,-0.994384765625,0.213134765625,-0.648854961832061,1.0076335877862594,-0.3511450381679389
2.03,0.117919921875,-0.990966796875,0.21533203125,-0.7404580152671756,1.0916030534351144,-0.366412213740458
2.04,0.116455078125,-0.9931640625,0.227294921875,-1.1145038167938932,0.9389312977099237,-0.3282442748091603
2.05,0.12255859375,-0.988037109375,0.211181640625,-1.0916030534351144,0.9312977099236641,-0.3282442748091603
2.06,0.115478515625,-0.969482421875,0.2158203125,-1.3282442748091603,0.8625954198473282,-0.22137404580152673
2.07,0.110107421875,-0.98681640625,0.214599609375,-1.7938931297709924,0.7480916030534351,-0.3969465648854962
2.08,0.124267578125,-0.99267578125,0.20361328125,-2.045801526717557,0.7480916030534351,-0.33587786259541985
2.09,0.125,-0.988037109375,0.213134765625,-2.1374045801526718,1.0610687022900764,-0.5114503816793893
2.1,0.128662109375,-0.9951171875,0.21533203125,-1.916030534351145,1.2671755725190839,-0.3511450381679389
2.11,0.125,-0.99267578125,0.214599609375,-1.8931297709923665,1.4351145038167938,-0.5954198473282443
2.12,0.109619140625,-0.9970703125,0.216552734375,-1.9083969465648856,1.549618320610687,-0.4580152671755725
2.13,0.125732421875,-0.98828125,0.2236328125,-1.6030534351145038,1.3740458015267176,-0.48854961832061067
2.14,0.122314453125,-1.0009765625,0.231201171875,-1.4045801526717556,1.6259541984732824,-0.5725190839694656
2.15,0.116455078125,-0.98779296875,0.22216796875,-0.9312977099236641,1.7709923664122138,-0.5190839694656488
2.16,0.11328125,-0.984619140625,0.23388671875,-0.6335877862595419,1.5648854961832062,-0.2900763358778626
2.17,0.11474609375,-0.990966796875,0.22216796875,-0.8625954198473282,1.4427480916030535,-0.6183206106870229
2.18,0.11865234375,-0.994140625,0.22021484375,-1.0763358778625953,1.5419847328244274,-0.45038167938931295
2.19,0.119140625,-0.992431640625,0.223876953125,-1.2366412213740459,1.4351145038167938,-0.3511450381679389
2.2,0.117919921875,-0.9990234375,0.227294921875,-1.0687022900763359,1.3282442748091603,-0.4198473282442748
2.21,0.13671875,-0.99658203125,0.22607421875,-1.2366412213740459,1.2900763358778626,-0.5267175572519084
2.22,0.11865234375,-1.001220703125,0.22509765625,-0.916030534351145,1.2595419847328244,-0.6412213740458015
2.23,0.126220703125,-0.986083984375,0.232177734375,-0.6335877862595419,1.0763358778625953,-0.6870229007633588
2.24,0.122314453125,-0.988525390625,0.232421875,-0.5419847328244275,1.2213740458015268,-0.6412213740458015
2.25,0.120361328125,-0.997802734375,0.216064453125,-0.8625954198473282,1.297709923664122,-0.8091603053435115
2.26,0.119140625,-0.9921875,0.217041015625,-1.0687022900763359,1.2290076335877862,-0.7022900763358778
2.27,0.11376953125,-0.990478515625,0.216796875,-1.015267175572519,1.16793893129771,-0.732824427480916
2.28,0.115234375,-0.994140625,0.218017578125,-0.9007633587786259,1.0229007633587786,-0.8091603053435115
2.29,0.117431640625,-1.014404296875,0.226806640625,-1.1908396946564885,0.9389312977099237,-0.8320610687022901
2.3,0.119873046875,-0.985107421875,0.21875,-1.2290076335877862,0.8473282442748091,-0.7557251908396947
2.31,0.117431640625,-0.99560546875,0.2041015625,-1.2290076335877862,0.9847328244274809,-0.5877862595419847
2.32,0.118408203125,-0.99755859375,0.227294921875,-1.0381679389312977,0.7862595419847328,-0.6717557251908397
2.33,0.12744140625,-0.9931640625,0.21240234375,-1.0305343511450382,0.8549618320610687,-0.7175572519083969
2.34,0.118896484375,-0.9951171875,0.214111328125,-1.366412213740458,1.16793893129771,-0.7862595419847328
2.35,0.115966796875,-0.988037109375,0.2138671875,-1.381679389312977,0.7557251908396947,-0.8091603053435115
2.36,0.117919921875,-0.98486328125,0.2216796875,-1.4732824427480915,0.8931297709923665,-0.8320610687022901
2.37,0.12109375,-0.985107421875,0.205078125,-1.4732824427480915,0.6335877862595419,-0.8778625954198473
2.38,0.1201171875,-0.994140625,0.20751953125,-1.5190839694656488,0.7709923664122137,-0.8625954198473282
2.39,0.112060546875,-1.00341796875,0.21826171875,-1.3587786259541985,0.648854961832061,-0.8244274809160306
2.4,0.1201171875,-1.000244140625,0.210205078125,-1.366412213740458,0.816793893129771,-0.9083969465648855
2.41,0.118896484375,-0.99853515625,0.22314453125,-1.2290076335877862,0.9083969465648855,-0.8854961832061069
2.42,0.1201171875,-1.003662109375,0.22119140625,-1.183206106870229,1.0916030534351144,-0.8854961832061069
2.43,0.115478515625,-0.991455078125,0.22119140625,-0.8015267175572519,0.8549618320610687,-0.9312977099236641
2.44,0.113525390625,-0.998046875,0.226318359375,-0.8931297709923665,0.549618320610687,-0.9923664122137404
2.45,0.122314453125,-0.998779296875,0.205322265625,-0.8244274809160306,0.5038167938931297,-1.083969465648855
2.46,0.11767578125,-0.993896484375,0.2197265625,-0.7633587786259542,0.5877862595419847,-1.0610687022900764
2.47,0.119873046875,-0.993408203125,0.210205078125,-1.099236641221374,0.6946564885496184,-0.9694656488549618
2.48,0.119384765625,-0.9951171875,0.2138671875,-1.16793893129771,0.46564885496183206,-0.9389312977099237
2.49,0.11083984375,-1.0,0.214599609375,-1.2366412213740459,0.7709923664122137,-1.0687022900763359
2.5,0.1171875,-1.003662109375,0.218017578125,-1.4809160305343512,0.48091603053435117,-1.213740458015267
2.51,0.119384765625,-0.99755859375,0.213623046875,-1.5572519083969465,0.5267175572519084,-1.1908396946564885
2.52,0.112548828125,-1.001220703125,0.22607421875,-1.6641221374045803,0.29770992366412213,-1.3282442748091603
2.53,0.120361328125,-0.99951171875,0.217529296875,-1.3206106870229009,0.33587786259541985,-1.2748091603053435
2.54,0.11865234375,-1.000732421875,0.2119140625,-1.5419847328244274,0.3969465648854962,-1.1984732824427482
2.55,0.11767578125,-0.9931640625,0.218505859375,-1.5648854961832062,0.19083969465648856,-1.2366412213740459
2.56,0.1171875,-0.99658203125,0.218505859375,-1.5648854961832062,0.37404580152671757,-1.0381679389312977
2.57,0.114501953125,-0.995849609375,0.21826171875,-1.6793893129770991,0.1450381679389313,-1.0916030534351144
2.58,0.11083984375,-0.992919921875,0.220458984375,-1.381679389312977,-0.09923664122137404,-1.1221374045801527
2.59,0.114990234375,-0.99609375,0.203369140625,-1.5114503816793894,0.061068702290076333,-1.0763358778625953
2.6,0.11279296875,-0.994873046875,0.21044921875,-1.6259541984732824,0.022900763358778626,-1.3282442748091603
2.61,0.115966796875,-1.001220703125,0.219482421875,-1.5954198473282444,-0.20610687022900764,-1.3206106870229009
2.62,0.114013671875,-0.9931640625,0.21826171875,-1.4885496183206106,-0.2824427480916031,-1.0916030534351144
2.63,0.111083984375,-1.0009765625,0.218505859375,-1.5038167938931297,-0.3893129770992366,-1.2748091603053435
2.64,0.1181640625,-0.99169921875,0.2138671875,-1.4274809160305344,-0.3816793893129771,-1.1603053435114503
2.65,0.119873046875,-0.99267578125,0.218994140625,-1.2366412213740459,-0.48854961832061067,-1.1603053435114503
2.66,0.116455078125,-0.991943359375,0.20361328125,-1.2442748091603053,-0.3893129770992366,-1.083969465648855
2.67,0.11474609375,-0.99365234375,0.21435546875,-1.213740458015267,-0.40458015267175573,-1.0381679389312977
2.68,0.12060546875,-0.998046875,0.208984375,-1.381679389312977,-0.16030534351145037,-1.0076335877862594
2.69,0.119384765625,-0.9931640625,0.2109375,-1.251908396946565,-0.29770992366412213,-1.0534351145038168
2.7,0.11865234375,-0.99169921875,0.217529296875,-1.549618320610687,-0.32061068702290074,-1.2748091603053435
2.71,0.1201171875,-0.999755859375,0.2158203125,-1.4961832061068703,-0.35877862595419846,-1.3282442748091603
2.72,0.119384765625,-0.997314453125,0.215087890625,-1.5877862595419847,-0.2748091603053435,-1.3740458015267176
2.73,0.118408203125,-0.998291015625,0.214111328125,-1.5038167938931297,-0.3511450381679389,-1.3969465648854962
2.74,0.1220703125,-0.999267578125,0.234130859375,-1.450381679389313,-0.3893129770992366,-1.4122137404580153
2.75,0.12109375,-0.99853515625,0.21826171875,-1.1145038167938932,-0.6641221374045801,-1.366412213740458
2.76,0.117431640625,-0.993408203125,0.21240234375,-1.1145038167938932,-0.5343511450381679,-1.2213740458015268
2.77,0.115478515625,-0.99951171875,0.21728515625,-0.9312977099236641,-0.44274809160305345,-1.1221374045801527
2.78,0.115966796875,-1.002685546875,0.210205078125,-0.7862595419847328,-0.37404580152671757,-1.1068702290076335
2.79,0.1181640625,-0.99365234375,0.219482421875,-0.8549618320610687,-0.3511450381679389,-1.2213740458015268
2.8,0.114501953125,-0.9970703125,0.217529296875,-0.8702290076335878,-0.24427480916030533,-1.1984732824427482
2.81,0.118896484375,-0.99365234375,0.22119140625,-0.916030534351145,-0.37404580152671757,-1.282442748091603
2.82,0.119384765625,-0.998046875,0.233154296875,-0.9236641221374046,-0.3435114503816794,-1.1526717557251909
2.83,0.12109375,-0.98876953125,0.232666015625,-0.8320610687022901,-0.42748091603053434,-1.1755725190839694
2.84,0.116455078125,-0.990966796875,0.216796875,-0.8549618320610687,-0.4732824427480916,-1.0534351145038168
2.85,0.124267578125,-0.999755859375,0.22216796875,-0.8015267175572519,-0.5648854961832062,-1.1603053435114503
2.86,0.12353515625,-1.0,0.222900390625,-0.6641221374045801,-0.6259541984732825,-1.2213740458015268
2.87,0.11865234375,-0.99853515625,0.216796875,-0.6335877862595419,-0.648854961832061,-1.3053435114503817
2.88,0.123046875,-0.996826171875,0.208984375,-0.5954198473282443,-0.5877862595419847,-1.2748091603053435
2.89,0.116455078125,-0.985595703125,0.20361328125,-0.7099236641221374,-0.6183206106870229,-1.2061068702290076
2.9,0.1220703125,-0.990966796875,0.208984375,-0.6717557251908397,-0.3893129770992366,-1.015267175572519
2.91,0.116943359375,-0.990478515625,0.2109375,-0.8931297709923665,-0.7404580152671756,-1.083969465648855
2.92,0.117919921875,-0.996337890625,0.214599609375,-0.9312977099236641,-0.6717557251908397,-1.1221374045801527
2.93,0.117919921875,-0.99365234375,0.212646484375,-1.0229007633587786,-0.6717557251908397,-1.0305343511450382
2.94,0.121337890625,-1.00146484375,0.216552734375,-1.183206106870229,-0.5343511450381679,-0.8625954198473282
2.95,0.124755859375,-0.995849609375,0.2099609375,-1.1603053435114503,-0.6259541984732825,-0.9618320610687023
2.96,0.12353515625,-0.994140625,0.21044921875,-1.183206106870229,-0.46564885496183206,-0.9923664122137404
2.97,0.121337890625,-0.990234375,0.21240234375,-1.2748091603053435,-0.44274809160305345,-1.0229007633587786
2.98,0.120849609375,-0.99609375,0.2177734375,-1.3053435114503817,-0.4732824427480916,-1.0916030534351144
2.99,0.126708984375,-0.990234375,0.216064453125,-1.2748091603053435,-0.24427480916030533,-0.9541984732824428
3.0,0.1201171875,-1.0,0.21435546875,-1.1145038167938932,-0.46564885496183206,-1.1603053435114503
3.01,0.119873046875,-0.994140625,0.214599609375,-1.2061068702290076,-0.32061068702290074,-1.1297709923664123
3.02,0.11962890625,-0.991943359375,0.2275390625,-1.2671755725190839,0.022900763358778626,-1.1145038167938932
3.03,0.114013671875,-0.999267578125,0.21435546875,-1.1603053435114503,-0.11450381679389313,-0.7251908396946565
3.04,0.1240234375,-0.991943359375,0.2080078125,-1.282442748091603,0.183206106870229,-0.8854961832061069
3.05,0.12255859375,-0.99169921875,0.210205078125,-1.2748091603053435,0.16793893129770993,-1.1297709923664123
3.06,0.11962890625,-1.001953125,0.212890625,-1.2671755725190839,0.24427480916030533,-1.0381679389312977
3.07,0.122314453125,-1.000732421875,0.21240234375,-1.282442748091603,0.3893129770992366,-1.1374045801526718
3.08,0.12255859375,-0.99267578125,0.212646484375,-1.2442748091603053,0.31297709923664124,-1.0229007633587786
3.09,0.12060546875,-0.998046875,0.220947265625,-1.2366412213740459,0.1984732824427481,-1.099236641221374
3.1,0.124267578125,-0.9921875,0.211181640625,-1.297709923664122,0.3282442748091603,-1.099236641221374
3.11,0.11962890625,-0.99560546875,0.219970703125,-1.1908396946564885,0.17557251908396945,-1.0458015267175573
3.12,0.12109375,-0.99609375,0.213623046875,-1.251908396946565,0.37404580152671757,-1.0381679389312977
3.13,0.11962890625,-0.990966796875,0.2060546875,-1.2442748091603053,0.16030534351145037,-1.1145038167938932
3.14,0.127197265625,-0.994873046875,0.21728515625,-1.1450381679389312,0.366412213740458,-1.1984732824427482
3.15,0.11865234375,-0.99609375,0.2236328125,-1.1526717557251909,0.48854961832061067,-1.1221374045801527
3.16,0.12158203125,-0.986328125,0.217529296875,-1.1450381679389312,0.48091603053435117,-1.213740458015267
3.17,0.124267578125,-0.9892578125,0.216796875,-0.9389312977099237,0.4198473282442748,-1.2900763358778626
3.18,0.109619140625,-1.000244140625,0.216552734375,-0.7099236641221374,0.48854961832061067,-1.3435114503816794
3.19,0.1220703125,-0.9951171875,0.2158203125,-0.7175572519083969,0.5190839694656488,-1.2595419847328244
3.2,0.114501953125,-1.00341796875,0.20751953125,-0.6870229007633588,0.5572519083969466,-1.251908396946565
3.21,0.119873046875,-0.99462890625,0.21533203125,-0.5801526717557252,0.5801526717557252,-1.3053435114503817
3.22,0.121826171875,-0.99267578125,0.217529296875,-0.8396946564885496,0.6641221374045801,-1.3053435114503817
3.23,0.11865234375,-1.00146484375,0.210693359375,-0.816793893129771,0.8702290076335878,-1.1450381679389312
3.24,0.124755859375,-1.000732421875,0.20751953125,-0.8778625954198473,0.6793893129770993,-1.251908396946565
3.25,0.11865234375,-0.995849609375,0.22021484375,-0.8396946564885496,0.44274809160305345,-1.1297709923664123
3.26,0.12255859375,-1.00439453125,0.208251953125,-0.7022900763358778,0.5419847328244275,-1.099236641221374
3.27,0.11572265625,-0.99560546875,0.2294921875,-0.5190839694656488,0.6564885496183206,-0.9770992366412213
3.28,0.119384765625,-0.999267578125,0.229248046875,-0.4122137404580153,0.6259541984732825,-1.0305343511450382
3.29,0.1162109375,-0.99609375,0.21728515625,-0.6641221374045801,0.549618320610687,-1.0763358778625953
3.3,0.1201171875,-0.991943359375,0.2109375,-0.7099236641221374,0.44274809160305345,-0.9618320610687023
3.31,0.1171875,-1.000244140625,0.2099609375,-0.4961832061068702,0.45038167938931295,-1.1145038167938932
3.32,0.1171875,-1.003173828125,0.217529296875,-0.5419847328244275,0.6259541984732825,-1.1145038167938932
3.33,0.11865234375,-0.99462890625,0.214111328125,-0.5648854961832062,0.48854961832061067,-0.9389312977099237
3.34,0.118408203125,-1.002685546875,0.210205078125,-0.8473282442748091,0.5648854961832062,-1.0076335877862594
3.35,0.121337890625,-1.012451171875,0.206298828125,-0.8549618320610687,0.816793893129771,-0.9923664122137404
3.36,0.1201171875,-0.99365234375,0.216796875,-0.8320610687022901,0.6259541984732825,-0.9312977099236641
3.37,0.118408203125,-0.99609375,0.21533203125,-0.8854961832061069,0.6946564885496184,-0.8091603053435115
3.38,0.114990234375,-1.004150390625,0.203857421875,-0.8854961832061069,0.5954198473282443,-1.0
3.39,0.121337890625,-0.99853515625,0.20703125,-0.6259541984732825,0.6030534351145038,-1.1145038167938932
3.4,0.1123046875,-0.995849609375,0.21435546875,-0.7709923664122137,0.45038167938931295,-1.099236641221374
3.41,0.1123046875,-0.994384765625,0.216552734375,-0.6335877862595419,0.7709923664122137,-0.8473282442748091
3.42,0.115478515625,-0.998046875,0.207763671875,-0.8625954198473282,0.4351145038167939,-1.1603053435114503
3.43,0.114501953125,-0.986328125,0.215087890625,-0.8702290076335878,0.2900763358778626,-1.0381679389312977
3.44,0.11376953125,-0.991455078125,0.2099609375,-1.1603053435114503,0.3511450381679389,-1.0076335877862594
3.45,0.11328125,-0.993896484375,0.20947265625,-1.2061068702290076,0.33587786259541985,-0.9847328244274809
3.46,0.112548828125,-0.99951171875,0.2138671875,-1.4580152671755726,0.40458015267175573,-0.9770992366412213
3.47,0.1220703125,-0.984619140625,0.21728515625,-1.366412213740458,0.22900763358778625,-1.16793893129771
3.48,0.119140625,-0.990478515625,0.211669921875,-1.3587786259541985,0.15267175572519084,-1.0763358778625953
3.49,0.119140625,-0.995849609375,0.20556640625,-1.381679389312977,0.1450381679389313,-1.2748091603053435
3.5,0.11767578125,-0.990478515625,0.209228515625,-1.5725190839694656,0.15267175572519084,-1.1755725190839694
3.51,0.115966796875,-0.994384765625,0.192138671875,-1.5725190839694656,0.2748091603053435,-1.1221374045801527
3.52,0.117431640625,-0.9931640625,0.22119140625,-1.6793893129770991,0.2824427480916031,-1.2290076335877862
3.53,0.11181640625,-0.998779296875,0.21484375,-1.748091603053435,0.2900763358778626,-1.1297709923664123
3.54,0.113525390625,-1.011962890625,0.213623046875,-1.8778625954198473,-1.9083969465648856,-1.2290076335877862
3.55,0.11767578125,-0.9970703125,0.233154296875,-1.7557251908396947,-0.061068702290076333,-1.4580152671755726
3.56,0.11328125,-0.99462890625,0.21533203125,-1.786259541984733,-0.25190839694656486,-1.2442748091603053
3.57,0.113037109375,-1.003662109375,0.21484375,-1.717557251908397,-0.12213740458015267,-1.4198473282442747
3.58,0.114013671875,-0.99169921875,0.223388671875,-1.7938931297709924,-0.1297709923664122,-1.2595419847328244
3.59,0.114013671875,-0.9951171875,0.222900390625,-1.7709923664122138,-0.20610687022900764,-1.2900763358778626
3.6,0.116455078125,-0.997802734375,0.22021484375,-1.786259541984733,-0.1984732824427481,-1.3740458015267176
3.61,0.11328125,-0.99609375,0.215087890625,-1.6641221374045803,-0.08396946564885496,-1.3587786259541985
3.62,0.120849609375,-0.996337890625,0.206298828125,-1.748091603053435,-0.29770992366412213,-1.099236641221374
3.63,0.115966796875,-1.010009765625,0.229248046875,-1.549618320610687,-0.33587786259541985,-1.1908396946564885
3.64,0.110107421875,-0.9892578125,0.216796875,-1.786259541984733,-0.2900763358778626,-1.3053435114503817
3.65,0.119873046875,-0.995849609375,0.2275390625,-1.7328244274809161,-0.4351145038167939,-1.2290076335877862
3.66,0.116455078125,-0.997314453125,0.208984375,-1.6030534351145038,-0.3053435114503817,-0.9618320610687023
3.67,0.11669921875,-0.99609375,0.214111328125,-1.5648854961832062,-0.31297709923664124,-1.0916030534351144
3.68,0.116455078125,-1.0009765625,0.225830078125,-1.6870229007633588,-0.4122137404580153,-1.099236641221374
3.69,0.11474609375,-0.99951171875,0.220703125,-1.633587786259542,-0.44274809160305345,-1.1068702290076335
3.7,0.11669921875,-0.9970703125,0.2099609375,-1.7328244274809161,-0.366412213740458,-1.0916030534351144
3.71,0.118896484375,-0.99853515625,0.232177734375,-1.5419847328244274,-0.2900763358778626,-1.183206106870229
3.72,0.123779296875,-0.993408203125,0.2333984375,-1.5877862595419847,-0.48854961832061067,-1.2213740458015268
3.73,0.1123046875,-0.9931640625,0.220458984375,-1.5419847328244274,-0.45038167938931295,-1.3511450381679388
3.74,0.115966796875,-0.997314453125,0.21142578125,-1.7404580152671756,-0.7862595419847328,-1.3053435114503817
3.75,0.11962890625,-0.9892578125,0.2119140625,-1.4045801526717556,-0.6793893129770993,-1.282442748091603
3.76,0.111083984375,-0.992919921875,0.216796875,-1.3358778625954197,-0.6793893129770993,-1.1984732824427482
3.77,0.114013671875,-0.984619140625,0.214111328125,-1.549618320610687,-0.6717557251908397,-1.3129770992366412
3.78,0.114013671875,-0.9931640625,0.216552734375,-1.5267175572519085,-0.5343511450381679,-1.1984732824427482
3.79,0.117919921875,-0.985107421875,0.2265625,-1.5038167938931297,-0.3511450381679389,-1.3435114503816794
3.8,0.119873046875,-0.994873046875,0.2236328125,-1.4045801526717556,-0.13740458015267176,-1.099236641221374
3.81,0.122802734375,-0.992431640625,0.216064453125,-1.4885496183206106,-0.16793893129770993,-1.2900763358778626
3.82,0.120849609375,-0.994384765625,0.220458984375,-1.6946564885496183,-0.25190839694656486,-1.4122137404580153
3.83,0.121826171875,-0.990234375,0.21435546875,-1.6488549618320612,-0.25190839694656486,-1.4122137404580153
3.84,0.120849609375,-0.997802734375,0.216796875,-1.3358778625954197,-0.5877862595419847,-1.465648854961832
3.85,0.119384765625,-0.995849609375,0.21337890625,-1.4732824427480915,-0.5419847328244275,-1.3893129770992367
3.86,0.117919921875,-0.9912109375,0.232421875,-1.4274809160305344,-0.5572519083969466,-1.4885496183206106
3.87,0.111572265625,-0.99462890625,0.229248046875,-1.549618320610687,-0.6717557251908397,-1.5725190839694656
3.88,0.116455078125,-0.9951171875,0.218505859375,-1.549618320610687,-0.5877862595419847,-1.6106870229007633
3.89,0.11328125,-1.00244140625,0.221435546875,-1.6564885496183206,-0.6717557251908397,-1.6106870229007633
3.9,0.118896484375,-0.997802734375,0.208251953125,-1.6641221374045803,-0.6870229007633588,-1.4961832061068703
3.91,0.119384765625,-1.00048828125,0.212158203125,-1.5038167938931297,-0.4961832061068702,-1.3358778625954197
3.92,0.11572265625,-0.996826171875,0.21240234375,-1.3282442748091603,-0.45038167938931295,-1.2290076335877862
3.93,0.1181640625,-1.01416015625,0.216796875,-1.0305343511450382,-0.5038167938931297,-1.3511450381679388
3.94,0.121337890625,-1.00244140625,0.217529296875,-1.1526717557251909,-0.4580152671755725,-1.2442748091603053
3.95,0.116455078125,-0.98583984375,0.215087890625,-1.1374045801526718,-0.5877862595419847,-1.2595419847328244
3.96,0.12255859375,-0.99609375,0.216552734375,-1.0687022900763359,-0.8015267175572519,-1.4809160305343512
3.97,0.120361328125,-0.991943359375,0.217529296875,-1.2366412213740459,-0.7862595419847328,-1.5038167938931297
3.98,0.122314453125,-0.990966796875,0.207763671875,-1.4198473282442747,-0.8244274809160306,-1.618320610687023
3.99,0.1181640625,-0.987548828125,0.209716796875,-1.4122137404580153,-0.9312977099236641,-1.6030534351145038
4.0,0.11474609375,-0.996337890625,0.210693359375,-1.8854961832061068,-0.7022900763358778,-1.618320610687023
4.01,0.11767578125,-0.98681640625,0.203857421875,-1.83206106870229,-0.7633587786259542,-1.534351145038168
4.02,0.11669921875,-1.011474609375,0.209716796875,-1.8473282442748091,-0.6717557251908397,-1.6412213740458015
4.03,0.125,-0.99560546875,0.214599609375,-1.748091603053435,-0.5114503816793893,-1.6641221374045803
4.04,0.1220703125,-0.99169921875,0.216064453125,-1.5648854961832062,-0.5801526717557252,-1.3969465648854962
4.05,0.119140625,-0.998779296875,0.2041015625,-1.5419847328244274,-0.7251908396946565,-1.5572519083969465
4.06,0.113525390625,-1.001953125,0.20703125,-1.6488549618320612,-0.6946564885496184,-1.4961832061068703
4.07,0.121826171875,-0.99658203125,0.210205078125,-1.4427480916030535,-0.8931297709923665,-1.1755725190839694
4.08,0.120361328125,-0.996337890625,0.207763671875,-1.366412213740458,-0.9465648854961832,-1.2748091603053435
4.09,0.118896484375,-0.9970703125,0.208984375,-1.465648854961832,-1.0,-1.3740458015267176
4.1,0.117919921875,-1.013916015625,0.21240234375,-1.381679389312977,-0.7938931297709924,-1.4732824427480915
4.11,0.12353515625,-0.997802734375,0.19580078125,-1.5267175572519085,-1.0458015267175573,-1.4045801526717556
4.12,0.119384765625,-0.99951171875,0.210205078125,-1.3435114503816794,-1.0,-1.5801526717557253
4.13,0.12109375,-0.99560546875,0.208984375,-1.1221374045801527,-1.213740458015267,-1.6259541984732824
4.14,0.116455078125,-0.994384765625,0.202880859375,-1.1755725190839694,-1.3206106870229009,-1.7328244274809161
4.15,0.1220703125,-0.9892578125,0.21142578125,-1.3053435114503817,-1.213740458015267,-1.6717557251908397
4.16,0.11181640625,-0.99560546875,0.2158203125,-1.5267175572519085,-1.3282442748091603,-1.7099236641221374
4.17,0.109375,-0.99365234375,0.194580078125,-1.3129770992366412,-1.2061068702290076,-1.8702290076335877
4.18,0.1259765625,-0.999755859375,0.2119140625,-1.3740458015267176,-1.0305343511450382,-1.83206106870229
4.19,0.125732421875,-0.9990234375,0.2109375,-1.4351145038167938,-1.1908396946564885,-1.9770992366412214
4.2,0.127197265625,-0.9970703125,0.207763671875,-1.7328244274809161,-1.2900763358778626,-2.0076335877862594
4.21,0.12353515625,-1.00341796875,0.20654296875,-1.6946564885496183,-1.2900763358778626,-2.2442748091603053
4.22,0.128173828125,-0.998046875,0.208740234375,-1.3740458015267176,-1.16793893129771,-2.2213740458015265
4.23,0.12939453125,-0.9853515625,0.213134765625,-1.6106870229007633,-0.9694656488549618,-2.3206106870229006
4.24,0.13134765625,-0.99560546875,0.213134765625,-1.6946564885496183,-0.6412213740458015,-2.4427480916030535
4.25,0.126708984375,-1.000732421875,0.216064453125,-1.4885496183206106,-0.366412213740458,-2.2290076335877864
4.26,0.127197265625,-0.997802734375,0.216552734375,-1.4809160305343512,-0.7862595419847328,-2.366412213740458
4.27,0.1220703125,-0.992431640625,0.209228515625,-1.083969465648855,-0.6412213740458015,-2.450381679389313
4.28,0.12255859375,-0.989501953125,0.21826171875,-0.8244274809160306,-0.5801526717557252,-2.4427480916030535
4.29,0.124755859375,-0.99951171875,0.2138671875,-0.8473282442748091,-0.8320610687022901,-2.351145038167939
4.3,0.109619140625,-0.993896484375,0.21484375,-0.7709923664122137,-0.7709923664122137,-2.4885496183206106
4.31,0.11767578125,-0.998046875,0.20654296875,-0.9312977099236641,-0.6259541984732825,-2.4198473282442747
4.32,0.1181640625,-0.997314453125,0.2099609375,-1.1908396946564885,-1.0076335877862594,-2.2900763358778624
4.33,0.124267578125,-0.993408203125,0.20361328125,-1.2748091603053435,-1.0458015267175573,-2.2442748091603053
4.34,0.12255859375,-0.994384765625,0.20068359375,-1.4122137404580153,-1.3969465648854962,-2.1755725190839694
4.35,0.12744140625,-0.985595703125,0.2109375,-1.4427480916030535,-1.3511450381679388,-2.282442748091603
4.36,0.12158203125,-0.99462890625,0.203369140625,-1.5725190839694656,-1.2366412213740459,-2.0076335877862594
4.37,0.13623046875,-0.989013671875,0.20751953125,-1.6793893129770991,-1.4198473282442747,-2.068702290076336
4.38,0.123046875,-0.992431640625,0.203857421875,-2.1297709923664123,-1.2366412213740459,-0.007633587786259542
4.39,0.137939453125,-0.997802734375,0.20703125,-2.0839694656488548,-1.4274809160305344,-1.7709923664122138
4.4,0.126708984375,-1.00390625,0.20556640625,-2.0763358778625953,-1.2213740458015268,-1.6106870229007633
4.41,0.126953125,-1.004150390625,0.210693359375,-1.9770992366412214,-1.2213740458015268,-1.4885496183206106
4.42,0.1259765625,-1.0048828125,0.20263671875,-1.8854961832061068,-1.2748091603053435,-1.3511450381679388
4.43,0.1259765625,-0.998779296875,0.20068359375,-1.5648854961832062,-1.2748091603053435,-1.3053435114503817
4.44,0.128173828125,-1.003662109375,0.1962890625,-1.3358778625954197,-1.3129770992366412,-1.1068702290076335
4.45,0.13134765625,-1.000244140625,0.2041015625,-1.6793893129770991,-1.2366412213740459,-1.381679389312977
4.46,0.13427734375,-1.004150390625,0.2119140625,-1.9770992366412214,-1.1450381679389312,-1.282442748091603
4.47,0.13916015625,-0.996826171875,0.213134765625,-3.854961832061069,-0.9847328244274809,-1.2290076335877862
4.48,0.13427734375,-1.002197265625,0.207763671875,-1.6793893129770991,-0.916030534351145,-1.213740458015267
4.49,0.138671875,-1.0009765625,0.21826171875,-1.465648854961832,-0.45038167938931295,-1.16793893129771
4.5,0.126708984375,-1.000244140625,0.211669921875,-1.2900763358778626,-0.45038167938931295,-1.1984732824427482
4.51,0.125732421875,-1.00146484375,0.20068359375,-1.0,-0.4732824427480916,-1.3435114503816794
4.52,0.125244140625,-0.99365234375,0.2080078125,-1.083969465648855,-0.2900763358778626,-1.3511450381679388
4.53,0.1337890625,-1.004638671875,0.215087890625,-0.8549618320610687,-0.2748091603053435,-1.099236641221374
4.54,0.12646484375,-1.013916015625,0.213134765625,-0.4961832061068702,-0.6564885496183206,-1.1755725190839694
4.55,0.12451171875,-0.999755859375,0.191650390625,-0.44274809160305345,-0.7480916030534351,-1.2595419847328244
4.56,0.122314453125,-0.99365234375,0.21630859375,-0.6412213740458015,-1.083969465648855,-1.2595419847328244
4.57,0.119140625,-0.99609375,0.208251953125,-0.6946564885496184,-0.9541984732824428,-1.1221374045801527
4.58,0.129150390625,-0.996337890625,0.201171875,-0.9541984732824428,-1.0381679389312977,-0.9847328244274809
4.59,0.126953125,-0.996337890625,0.19677734375,-1.0534351145038168,-0.8015267175572519,-0.9618320610687023
4.6,0.13232421875,-0.993408203125,0.205810546875,-1.381679389312977,-0.5343511450381679,-0.9847328244274809
4.61,0.12646484375,-0.99365234375,0.208251953125,-1.297709923664122,-0.6183206106870229,-1.1297709923664123
4.62,0.134033203125,-0.99560546875,0.207763671875,-1.3206106870229009,-0.4198473282442748,-0.9618320610687023
4.63,0.133544921875,-1.001220703125,0.20654296875,-1.3969465648854962,-0.37404580152671757,-0.9007633587786259
4.64,0.133544921875,-0.995361328125,0.20654296875,-1.381679389312977,-0.15267175572519084,-0.9847328244274809
4.65,0.132568359375,-1.0029296875,0.205810546875,-1.2595419847328244,-0.2366412213740458,-0.9694656488549618
4.66,0.1328125,-0.9951171875,0.202392578125,-1.16793893129771,1.9083969465648856,-1.1603053435114503
4.67,0.13916015625,-0.99951171875,0.20703125,-1.0305343511450382,-0.09923664122137404,-1.0534351145038168
4.68,0.12744140625,-1.001708984375,0.208984375,-1.1984732824427482,-0.3435114503816794,-1.083969465648855
4.69,0.1396484375,-0.995361328125,0.198974609375,-1.213740458015267,-0.22137404580152673,-1.2442748091603053
4.7,0.1240234375,-0.997314453125,0.204345703125,-0.9923664122137404,-0.26717557251908397,-0.9923664122137404
4.71,0.116455078125,-0.99267578125,0.208251953125,-0.9694656488549618,-0.13740458015267176,-0.6564885496183206
4.72,0.120361328125,-0.990966796875,0.20849609375,-1.183206106870229,-0.4198473282442748,-0.7099236641221374
4.73,0.124267578125,-0.9951171875,0.212646484375,-1.3358778625954197,-0.22900763358778625,-0.5725190839694656
4.74,0.12744140625,-0.990478515625,0.2060546875,-1.5725190839694656,-0.3435114503816794,-0.5801526717557252
4.75,0.12158203125,-1.013427734375,0.203857421875,-1.6106870229007633,-0.4732824427480916,-0.816793893129771
4.76,0.13134765625,-0.997314453125,0.191650390625,-1.5114503816793894,-0.2595419847328244,-0.6030534351145038
4.77,0.127685546875,-0.991943359375,0.189697265625,-1.5114503816793894,-0.3816793893129771,-0.9312977099236641
4.78,0.12548828125,-0.99072265625,0.208251953125,-1.534351145038168,-0.40458015267175573,-0.8549618320610687
4.79,0.125,-0.995361328125,0.202392578125,-1.465648854961832,-0.3969465648854962,-0.9312977099236641
4.8,0.12548828125,-1.005615234375,0.206298828125,-1.4885496183206106,-0.6564885496183206,-1.0687022900763359
4.81,0.128173828125,-0.994384765625,0.212158203125,-1.4809160305343512,-0.37404580152671757,-1.0381679389312977
4.82,0.11328125,-0.9931640625,0.204833984375,-1.3587786259541985,-0.33587786259541985,-1.1984732824427482
4.83,0.135986328125,-1.01416015625,0.209228515625,-1.2671755725190839,-0.2824427480916031,-1.1908396946564885
4.84,0.13037109375,-0.99755859375,0.205810546875,-1.16793893129771,-0.21374045801526717,-1.0610687022900764
4.85,0.13427734375,-0.998779296875,0.203369140625,-1.3129770992366412,-0.35877862595419846,-1.1221374045801527
4.86,0.12939453125,-0.99951171875,0.19970703125,-1.4198473282442747,0.022900763358778626,-1.0610687022900764
4.87,0.12744140625,-0.996826171875,0.208251953125,-1.3511450381679388,0.1297709923664122,-0.8091603053435115
4.88,0.126953125,-0.994384765625,0.2001953125,-1.3511450381679388,0.13740458015267176,-1.0534351145038168
4.89,0.12744140625,-0.9912109375,0.2001953125,-1.366412213740458,0.2748091603053435,-1.0534351145038168
4.9,0.130126953125,-0.9912109375,0.21728515625,-1.3206106870229009,0.31297709923664124,-1.1603053435114503
4.91,0.12890625,-0.997314453125,0.196533203125,-1.6641221374045803,0.2366412213740458,-1.213740458015267
4.92,0.130615234375,-0.9931640625,0.208740234375,-1.6259541984732824,0.40458015267175573,-1.083969465648855
4.93,0.126708984375,-0.991455078125,0.211181640625,-1.3511450381679388,-0.05343511450381679,-1.099236641221374
4.94,0.123779296875,-1.00048828125,0.2001953125,-1.1450381679389312,0.08396946564885496,-1.16793893129771
4.95,0.1240234375,-0.99853515625,0.20703125,-1.1068702290076335,-1.9389312977099236,-1.2900763358778626
4.96,0.110107421875,-1.00634765625,0.2001953125,-0.9007633587786259,0.21374045801526717,-1.1908396946564885
4.97,0.12109375,-1.00390625,0.19384765625,-0.6793893129770993,0.35877862595419846,-1.1374045801526718
4.98,0.123779296875,-1.008544921875,0.21044921875,-0.3893129770992366,0.10687022900763359,-0.9847328244274809
4.99,0.129150390625,-1.004638671875,0.2060546875,-0.24427480916030533,0.1984732824427481,-0.9312977099236641
5.0,0.124755859375,-1.000732421875,0.1923828125,-0.22900763358778625,0.1984732824427481,-0.9694656488549618
5.01,0.130615234375,-1.00048828125,0.200439453125,-0.22900763358778625,-1.916030534351145,-1.16793893129771
5.02,0.125244140625,-0.995361328125,0.207275390625,-0.40458015267175573,0.32061068702290074,-1.1526717557251909
5.03,0.12646484375,-0.994873046875,0.197998046875,-0.4961832061068702,0.19083969465648856,-1.251908396946565
5.04,0.12158203125,-0.993408203125,0.2138671875,-0.7709923664122137,0.2824427480916031,-1.1374045801526718
5.05,0.135009765625,-0.992919921875,0.19091796875,-0.8244274809160306,0.2824427480916031,-0.8702290076335878
5.06,0.122314453125,-0.991943359375,0.206298828125,-0.9312977099236641,0.3969465648854962,-1.1068702290076335
5.07,0.12548828125,-0.99853515625,0.217529296875,-0.7938931297709924,0.5419847328244275,-1.015267175572519
5.08,0.119384765625,-1.00048828125,0.202392578125,-0.9770992366412213,0.549618320610687,-0.916030534351145
5.09,0.121826171875,-0.988525390625,0.21240234375,-1.1984732824427482,0.7099236641221374,-0.916030534351145
5.1,0.12353515625,-0.9990234375,0.2138671875,-1.2290076335877862,0.8244274809160306,-0.9389312977099237
5.11,0.1240234375,-0.986083984375,0.207275390625,-1.083969465648855,1.2442748091603053,-0.8473282442748091
5.12,0.118408203125,-0.99560546875,0.18798828125,-1.251908396946565,1.0763358778625953,-0.7709923664122137
5.13,0.122802734375,-0.997802734375,0.197509765625,-1.0687022900763359,1.3129770992366412,-0.7099236641221374
5.14,0.119140625,-0.996826171875,0.197998046875,-0.916030534351145,1.2442748091603053,-0.48091603053435117
5.15,0.119384765625,-0.99560546875,0.1875,-0.8625954198473282,1.0381679389312977,-0.42748091603053434
5.16,0.120849609375,-1.00244140625,0.19775390625,-1.297709923664122,1.0381679389312977,-0.549618320610687
5.17,0.122802734375,-0.9990234375,0.20654296875,-1.7251908396946565,0.7938931297709924,-0.7404580152671756
5.18,0.117431640625,-0.9921875,0.199951171875,-2.2290076335877864,1.0,-0.7633587786259542
5.19,0.116455078125,-0.98583984375,0.202392578125,-2.450381679389313,0.9923664122137404,-0.9770992366412213
5.2,0.11865234375,-0.996337890625,0.18798828125,-2.2290076335877864,0.7099236641221374,-1.2748091603053435
5.21,0.114501953125,-0.995361328125,0.200927734375,-2.1068702290076335,0.6412213740458015,-1.6564885496183206
5.22,0.11669921875,-0.994140625,0.18896484375,-2.0381679389312977,0.9847328244274809,-1.8854961832061068
5.23,0.122314453125,-0.9921875,0.19580078125,-2.435114503816794,0.9007633587786259,-1.7709923664122138
5.24,0.1259765625,-0.995361328125,0.198974609375,-2.595419847328244,1.1526717557251909,-1.9389312977099236
5.25,0.128173828125,-1.003662109375,0.1953125,-2.3893129770992365,1.702290076335878,-1.748091603053435
5.26,0.125244140625,-1.004638671875,0.19677734375,-3.8396946564885495,2.053435114503817,-2.015267175572519
5.27,0.1376953125,-1.008544921875,0.188720703125,-3.8931297709923665,2.3893129770992365,-2.2519083969465647
5.28,0.14013671875,-1.003662109375,0.197998046875,-2.1068702290076335,2.6564885496183206,-2.3587786259541983
5.29,0.115234375,-0.986328125,0.190185546875,-2.5114503816793894,2.687022900763359,-2.549618320610687
5.3,0.115478515625,-0.994140625,0.196533203125,-2.6030534351145036,2.687022900763359,-2.6717557251908395
5.31,0.107666015625,-0.985595703125,0.19580078125,-2.816793893129771,2.6564885496183206,-2.6030534351145036
5.32,0.109619140625,-0.994873046875,0.19482421875,-2.83206106870229,2.50381679389313,-2.763358778625954
5.33,0.123779296875,-0.99951171875,0.200927734375,-2.83206106870229,2.145038167938931,-2.6106870229007635
5.34,0.114013671875,-0.985107421875,0.2060546875,-2.6717557251908395,2.1526717557251906,-2.687022900763359
5.35,0.11572265625,-1.003173828125,0.2021484375,-2.816793893129771,2.3435114503816794,-2.9083969465648853
5.36,0.1162109375,-1.015380859375,0.194091796875,-2.6030534351145036,2.1755725190839694,-3.1755725190839694
5.37,0.103271484375,-1.0009765625,0.2021484375,-2.648854961832061,1.9083969465648856,-3.3282442748091605
5.38,0.115234375,-0.997802734375,0.19677734375,-2.5343511450381677,1.5877862595419847,-3.3282442748091605
5.39,0.115478515625,-0.997314453125,0.196044921875,-2.5419847328244276,1.1450381679389312,-3.3893129770992365
5.4,0.124755859375,-0.99462890625,0.1953125,-2.519083969465649,0.6106870229007634,-3.4122137404580153
5.41,0.121337890625,-0.994384765625,0.193359375,-2.450381679389313,0.3816793893129771,-3.564885496183206
5.42,0.115478515625,-0.99072265625,0.19384765625,-2.618320610687023,0.3053435114503817,-3.66412213740458
5.43,0.113525390625,-0.989013671875,0.183349609375,-2.7404580152671754,0.0916030534351145,-3.7022900763358777
5.44,0.117431640625,-0.990966796875,0.187744140625,-3.068702290076336,0.0,-3.8931297709923665
5.45,0.12060546875,-0.9951171875,0.18994140625,-3.4656488549618323,-0.2900763358778626,-3.931297709923664
5.46,0.115966796875,-1.005126953125,0.19580078125,-3.427480916030534,-0.25190839694656486,-4.1679389312977095
5.47,0.116943359375,-1.0068359375,0.201416015625,-3.145038167938931,-0.29770992366412213,-4.32824427480916
5.48,0.1396484375,-1.00146484375,0.202880859375,-2.984732824427481,-0.5877862595419847,-4.6183206106870225
5.49,0.12841796875,-0.99462890625,0.2099609375,-2.786259541984733,-0.4198473282442748,-4.66412213740458
5.5,0.111328125,-1.0126953125,0.201416015625,-2.786259541984733,-0.8244274809160306,-4.625954198473282
5.51,0.1298828125,-1.00634765625,0.217529296875,-2.7709923664122136,-0.9618320610687023,-4.305343511450381
5.52,0.13330078125,-1.005126953125,0.2138671875,-2.66412213740458,-0.8625954198473282,-4.297709923664122
5.53,0.12939453125,-1.00732421875,0.199462890625,-2.50381679389313,-1.1221374045801527,-4.3816793893129775
5.54,0.128662109375,-1.005126953125,0.19189453125,-2.114503816793893,-1.3740458015267176,-4.312977099236641
5.55,0.12744140625,-1.01171875,0.198974609375,-1.6793893129770991,-1.9312977099236641,-4.3893129770992365
5.56,0.115966796875,-1.00830078125,0.196533203125,-1.3969465648854962,-2.7709923664122136,-4.473282442748092
5.57,0.115234375,-1.005859375,0.2080078125,-0.7633587786259542,-3.122137404580153,-4.374045801526718
5.58,0.115966796875,-0.989501953125,0.20458984375,-0.48854961832061067,-3.49618320610687,-4.2748091603053435
5.59,0.121337890625,-0.997314453125,0.2177734375,-1.015267175572519,-4.022900763358779,-5.801526717557252
5.6,0.132080078125,-1.00390625,0.200439453125,0.25190839694656486,-3.9770992366412212,-3.687022900763359
5.61,0.133544921875,-1.00048828125,0.194580078125,0.7633587786259542,-3.9770992366412212,-3.3587786259541983
5.62,0.13330078125,-0.992431640625,0.20556640625,0.3435114503816794,-4.297709923664122,-3.4122137404580153
5.63,0.139404296875,-0.99462890625,0.211181640625,0.1984732824427481,-4.458015267175573,-3.213740458015267
5.64,0.135009765625,-0.994384765625,0.201171875,0.2366412213740458,-5.114503816793893,-3.2900763358778624
5.65,0.137451171875,-0.9951171875,0.209716796875,0.1450381679389313,-5.290076335877862,-3.045801526717557
5.66,0.143310546875,-0.988525390625,0.202392578125,-1.9236641221374047,-5.412213740458015,-3.0381679389312977
5.67,0.135498046875,-0.985595703125,0.20263671875,-0.3282442748091603,-5.396946564885496,-2.8931297709923665
5.68,0.145263671875,-0.987060546875,0.194580078125,-0.7862595419847328,-5.473282442748092,-3.114503816793893
5.69,0.15185546875,-1.003662109375,0.1982421875,-1.3129770992366412,-5.351145038167939,-2.5877862595419847
5.7,0.16015625,-1.006103515625,0.19482421875,-0.3435114503816794,-5.236641221374046,-2.49618320610687
5.71,0.1533203125,-1.015380859375,0.192138671875,-0.16030534351145037,-4.770992366412214,-2.5343511450381677
5.72,0.161376953125,-1.006591796875,0.21435546875,0.2748091603053435,-4.465648854961832,-2.3587786259541983
5.73,0.16259765625,-1.01171875,0.196533203125,0.7022900763358778,-3.7099236641221376,-2.3587786259541983
5.74,0.1689453125,-1.00927734375,0.203125,1.366412213740458,-3.267175572519084,-2.4198473282442747
5.75,0.171142578125,-1.00244140625,0.217041015625,1.4885496183206106,-3.1068702290076335,-2.687022900763359
5.76,0.167236328125,-1.0029296875,0.213134765625,1.6030534351145038,-2.816793893129771,-2.854961832061069
5.77,0.161865234375,-1.000244140625,0.213623046875,1.7099236641221374,-2.8931297709923665,-3.0229007633587788
5.78,0.163818359375,-0.991455078125,0.220458984375,1.7251908396946565,-2.885496183206107,-3.1755725190839694
5.79,0.16259765625,-1.00537109375,0.234130859375,2.053435114503817,-3.2061068702290076,-3.198473282442748
5.8,0.14404296875,-1.012939453125,0.216552734375,2.5572519083969465,-3.366412213740458,-3.3740458015267176
5.81,0.1533203125,-1.013671875,0.203857421875,2.450381679389313,-3.3587786259541983,-3.366412213740458
5.82,0.159423828125,-0.998779296875,0.207763671875,2.3587786259541983,-3.480916030534351,-2.9770992366412212
5.83,0.1552734375,-0.99072265625,0.215576171875,2.618320610687023,-3.114503816793893,-2.351145038167939
5.84,0.154296875,-0.99365234375,0.21142578125,3.0229007633587788,-2.732824427480916,-1.816793893129771
5.85,0.15625,-0.993408203125,0.211181640625,3.4885496183206106,-2.564885496183206,-1.1984732824427482
5.86,0.15966796875,-0.998779296875,0.20849609375,3.984732824427481,-2.4198473282442747,-0.6259541984732825
5.87,0.155517578125,-0.98779296875,0.208984375,4.0458015267175576,-2.053435114503817,-0.13740458015267176
5.88,0.14990234375,-0.99462890625,0.2138671875,4.404580152671755,-1.816793893129771,0.22900763358778625
5.89,0.153564453125,-0.990478515625,0.20458984375,4.297709923664122,-1.549618320610687,0.33587786259541985
5.9,0.16015625,-0.9794921875,0.2099609375,3.984732824427481,-1.2900763358778626,0.42748091603053434
5.91,0.163330078125,-0.981689453125,0.2177734375,3.2900763358778624,-1.3435114503816794,0.42748091603053434
5.92,0.16650390625,-0.981689453125,0.20947265625,2.7557251908396947,-1.4274809160305344,0.35877862595419846
5.93,0.161376953125,-0.99267578125,0.2158203125,2.4885496183206106,-1.2595419847328244,0.25190839694656486
5.94,0.154296875,-0.98583984375,0.21142578125,2.1297709923664123,-1.251908396946565,-0.12213740458015267
5.95,0.162353515625,-0.999755859375,0.21142578125,1.717557251908397,-1.282442748091603,-0.5801526717557252
5.96,0.16015625,-0.986572265625,0.197265625,1.2213740458015268,-1.1450381679389312,-0.7557251908396947
5.97,0.155029296875,-0.993408203125,0.206787109375,0.8778625954198473,-0.8549618320610687,-1.2061068702290076
5.98,0.1572265625,-0.9921875,0.204833984375,0.7786259541984732,-0.8854961832061069,-1.5190839694656488
5.99,0.14794921875,-0.9921875,0.205078125,0.8320610687022901,-0.7099236641221374,-1.534351145038168
6.0,0.156005859375,-0.99853515625,0.2109375,0.7786259541984732,-1.183206106870229,-1.633587786259542
6.01,0.156005859375,-0.98583984375,0.189453125,1.1374045801526718,-1.3893129770992367,-1.5648854961832062
6.02,0.139404296875,-0.99560546875,0.206298828125,1.4351145038167938,-1.6564885496183206,-1.3587786259541985
6.03,0.14208984375,-0.991455078125,0.204833984375,1.2748091603053435,-1.748091603053435,-1.1450381679389312
6.04,0.14599609375,-0.982421875,0.2001953125,0.7404580152671756,-1.9083969465648856,-0.732824427480916
6.05,0.14794921875,-0.978271484375,0.20263671875,0.21374045801526717,-1.8854961832061068,-0.15267175572519084
6.06,0.14990234375,-0.984375,0.204345703125,-0.31297709923664124,-1.618320610687023,-0.007633587786259542
6.07,0.14892578125,-0.991943359375,0.19873046875,-0.648854961832061,-1.5038167938931297,0.13740458015267176
6.08,0.156982421875,-1.010986328125,0.210205078125,-1.1908396946564885,-0.8702290076335878,0.19083969465648856
6.09,0.161376953125,-0.9970703125,0.20947265625,-0.6946564885496184,-0.37404580152671757,0.3282442748091603
6.1,0.168701171875,-1.00537109375,0.231689453125,-0.04580152671755725,0.1984732824427481,0.25190839694656486
6.11,0.15966796875,-1.001708984375,0.21533203125,0.17557251908396945,0.45038167938931295,0.13740458015267176
6.12,0.15625,-1.00439453125,0.2138671875,0.6793893129770993,0.7022900763358778,-0.10687022900763359
6.13,0.149658203125,-0.9990234375,0.213623046875,1.1374045801526718,0.9389312977099237,-0.6946564885496184
6.14,0.149169921875,-0.98974609375,0.221435546875,0.9389312977099237,0.9465648854961832,-0.8320610687022901
6.15,0.149658203125,-0.9873046875,0.216796875,0.5267175572519084,0.8854961832061069,-1.0687022900763359
6.16,0.1513671875,-0.979736328125,0.212158203125,-0.11450381679389313,0.6106870229007634,-1.1526717557251909
6.17,0.142333984375,-0.99755859375,0.19970703125,-0.29770992366412213,0.42748091603053434,-1.0381679389312977
6.18,0.152587890625,-0.98974609375,0.194580078125,-0.5725190839694656,0.48091603053435117,-0.732824427480916
6.19,0.154541015625,-0.999267578125,0.20751953125,-0.8854961832061069,0.5725190839694656,-0.7175572519083969
6.2,0.1494140625,-0.98828125,0.2119140625,-1.5114503816793894,0.7557251908396947,-0.37404580152671757
6.21,0.141357421875,-0.99365234375,0.214599609375,-1.4732824427480915,0.9618320610687023,-0.22137404580152673
6.22,0.13134765625,-0.998291015625,0.209228515625,-1.366412213740458,0.8854961832061069,-0.16030534351145037
6.23,0.1455078125,-0.985595703125,0.219970703125,-1.1755725190839694,0.7709923664122137,-0.05343511450381679
6.24,0.14453125,-1.0146484375,0.2236328125,-0.9236641221374046,0.5648854961832062,-0.25190839694656486
6.25,0.13720703125,-1.015380859375,0.2236328125,-0.6259541984732825,0.17557251908396945,-0.6946564885496184
6.26,0.139892578125,-0.995849609375,0.203369140625,-0.5954198473282443,-0.05343511450381679,-0.8931297709923665
6.27,0.14013671875,-0.9931640625,0.22216796875,-0.4961832061068702,-0.2900763358778626,-1.0763358778625953
6.28,0.14501953125,-0.99072265625,0.22216796875,-0.4961832061068702,-0.5801526717557252,-1.2366412213740459
6.29,0.128173828125,-0.989501953125,0.2265625,-0.5801526717557252,-0.7786259541984732,-1.381679389312977
6.3,0.149658203125,-0.98828125,0.220703125,-0.6946564885496184,-0.6183206106870229,-1.5419847328244274
6.31,0.14599609375,-0.973876953125,0.213623046875,-1.0229007633587786,-0.6259541984732825,-1.4809160305343512
6.32,0.144775390625,-0.990234375,0.2138671875,-1.0305343511450382,-0.37404580152671757,-1.3740458015267176
6.33,0.152099609375,-0.9912109375,0.218505859375,-1.3282442748091603,-0.1450381679389313,-1.1603053435114503
6.34,0.1435546875,-0.995361328125,0.21923828125,-1.0687022900763359,0.2366412213740458,-1.099236641221374
6.35,0.1435546875,-0.990966796875,0.220458984375,-0.9465648854961832,0.3816793893129771,-1.083969465648855
6.36,0.139892578125,-0.99072265625,0.2119140625,-0.7938931297709924,0.366412213740458,-1.0687022900763359
6.37,0.135009765625,-0.983642578125,0.22412109375,-1.099236641221374,0.4351145038167939,-1.381679389312977
6.38,0.1328125,-0.991455078125,0.218505859375,-0.9007633587786259,0.29770992366412213,-1.748091603053435
6.39,0.156005859375,-0.98974609375,0.212890625,-0.816793893129771,0.1297709923664122,-1.9618320610687023
6.4,0.1396484375,-0.99658203125,0.21875,-0.6870229007633588,-0.09923664122137404,-1.6793893129770991
6.41,0.1416015625,-0.997802734375,0.209716796875,-0.6793893129770993,-0.12213740458015267,-1.8396946564885497
6.42,0.1337890625,-0.99072265625,0.2138671875,-0.9541984732824428,-0.4122137404580153,-1.816793893129771
6.43,0.137939453125,-0.989990234375,0.21826171875,-1.1450381679389312,-0.4198473282442748,-1.6564885496183206
6.44,0.13818359375,-0.98974609375,0.214111328125,-1.0916030534351144,-0.030534351145038167,-1.5954198473282444
6.45,0.140380859375,-0.998779296875,0.220947265625,-0.9770992366412213,0.22137404580152673,-2.0
6.46,0.127197265625,-0.997314453125,0.20458984375,-1.1221374045801527,0.05343511450381679,-2.183206106870229
6.47,0.14794921875,-1.01318359375,0.222412109375,-1.16793893129771,0.5954198473282443,-2.2595419847328246
6.48,0.148681640625,-0.99560546875,0.222412109375,-1.1221374045801527,0.9007633587786259,-2.5572519083969465
6.49,0.146240234375,-0.99658203125,0.211669921875,-1.183206106870229,1.1908396946564885,-2.6946564885496183
6.5,0.14111328125,-0.994140625,0.212646484375,-1.3893129770992367,1.4198473282442747,-2.66412213740458
6.51,0.13427734375,-0.9873046875,0.21630859375,-1.4351145038167938,1.5190839694656488,-2.7938931297709924
6.52,0.134765625,-0.991943359375,0.225830078125,-1.534351145038168,1.816793893129771,-2.564885496183206
6.53,0.1357421875,-0.98876953125,0.218505859375,-1.4427480916030535,1.6259541984732824,-2.7709923664122136
6.54,0.130126953125,-0.9873046875,0.2333984375,-1.3511450381679388,1.0916030534351144,-3.0763358778625953
6.55,0.130859375,-0.974853515625,0.207763671875,-1.381679389312977,0.8091603053435115,-3.5343511450381677
6.56,0.13134765625,-0.977783203125,0.224365234375,-1.3511450381679388,0.8931297709923665,-3.8091603053435112
6.57,0.1328125,-0.968017578125,0.222412109375,-1.7633587786259541,0.6717557251908397,-3.763358778625954
6.58,0.146484375,-0.970458984375,0.20654296875,-2.2213740458015265,0.9083969465648855,-3.6793893129770994
6.59,0.148193359375,-0.97412109375,0.20654296875,-3.030534351145038,1.4122137404580153,-3.183206106870229
6.6,0.1455078125,-0.99267578125,0.1982421875,-3.3282442748091605,0.8549618320610687,-2.5343511450381677
6.61,0.14892578125,-1.01220703125,0.210693359375,-3.7786259541984735,0.08396946564885496,-2.2977099236641223
6.62,0.13037109375,-0.987060546875,0.201416015625,-3.4656488549618323,-0.7938931297709924,-1.5038167938931297
6.63,0.116455078125,-0.975830078125,0.20751953125,-3.6106870229007635,-1.2061068702290076,-0.8778625954198473
6.64,0.111572265625,-0.977783203125,0.20458984375,-3.9770992366412212,-1.5648854961832062,0.04580152671755725
6.65,0.11572265625,-0.970703125,0.206298828125,-4.732824427480916,-0.8396946564885496,0.8931297709923665
6.66,0.10546875,-0.981689453125,0.208740234375,-5.969465648854962,-0.5038167938931297,1.2595419847328244
6.67,0.119140625,-1.005859375,0.198486328125,-5.244274809160306,-0.22900763358778625,2.0610687022900764
6.68,0.12646484375,-1.000244140625,0.213134765625,-4.801526717557252,0.22137404580152673,2.3053435114503817
6.69,0.141845703125,-1.008544921875,0.217041015625,-5.916030534351145,0.15267175572519084,2.5114503816793894
6.7,0.15283203125,-1.019287109375,0.219482421875,-7.0,-0.3969465648854962,2.312977099236641
6.71,0.149658203125,-1.042236328125,0.23583984375,-6.984732824427481,-0.8702290076335878,1.4809160305343512
6.72,0.1513671875,-1.056640625,0.220458984375,-5.931297709923665,-1.3893129770992367,0.732824427480916
6.73,0.1455078125,-1.056884765625,0.233642578125,-4.4961832061068705,-1.8778625954198473,0.0
6.74,0.1494140625,-1.048583984375,0.226806640625,-3.6412213740458017,-1.5725190839694656,-0.3282442748091603
6.75,0.1435546875,-1.0166015625,0.20458984375,-3.3435114503816794,-3.33587786259542,0.030534351145038167
6.76,0.15380859375,-0.994140625,0.189697265625,-3.0610687022900764,-2.030534351145038,1.0381679389312977
6.77,0.170654296875,-0.982421875,0.179443359375,-2.984732824427481,-3.6259541984732824,1.5419847328244274
6.78,0.197509765625,-0.961669921875,0.190673828125,-2.8091603053435112,2.8091603053435112,2.045801526717557
6.79,0.1689453125,-0.94873046875,0.1748046875,-4.068702290076335,-2.50381679389313,2.7480916030534353
6.8,0.194091796875,-0.947509765625,0.1552734375,-4.152671755725191,-2.4122137404580153,2.984732824427481
6.81,0.197021484375,-0.962158203125,0.155029296875,-4.061068702290076,-1.9541984732824427,3.4198473282442747
6.82,0.198486328125,-0.97412109375,0.13916015625,-5.511450381679389,-0.9770992366412213,3.633587786259542
6.83,0.211669921875,-1.00634765625,0.169921875,-7.625954198473282,1.9312977099236641,2.4580152671755724
6.84,0.188720703125,-1.027587890625,0.153076171875,-8.19083969465649,-0.13740458015267176,1.0763358778625953
6.85,0.189453125,-1.058837890625,0.140869140625,-7.351145038167939,0.6717557251908397,-0.5267175572519084
6.86,0.184326171875,-1.052001953125,0.16943359375,-6.580152671755725,0.6870229007633588,-1.6488549618320612
6.87,0.16845703125,-1.049072265625,0.16943359375,-4.145038167938932,0.7786259541984732,-1.9312977099236641
6.88,0.182861328125,-1.040771484375,0.172607421875,-2.687022900763359,1.2900763358778626,-0.11450381679389313
6.89,0.177734375,-1.020751953125,0.161376953125,-2.381679389312977,1.0458015267175573,-2.015267175572519
6.9,0.181884765625,-1.016357421875,0.1669921875,-2.2748091603053435,0.5954198473282443,-2.312977099236641
6.91,0.1630859375,-1.014404296875,0.167724609375,-2.312977099236641,0.8549618320610687,-2.816793893129771
6.92,0.154296875,-1.00732421875,0.15771484375,-2.2442748091603053,-0.0916030534351145,-2.900763358778626
6.93,0.1533203125,-1.008544921875,0.141357421875,-1.816793893129771,-0.3282442748091603,-2.6946564885496183
6.94,0.143798828125,-1.000732421875,0.15087890625,-1.4885496183206106,-0.6564885496183206,-2.3587786259541983
6.95,0.135986328125,-0.9814453125,0.135498046875,-1.8778625954198473,-1.4427480916030535,-1.9618320610687023
6.96,0.142578125,-0.974365234375,0.134765625,-2.030534351145038,-0.06870229007633588,-1.5572519083969465
6.97,0.1474609375,-0.971435546875,0.128173828125,-1.9312977099236641,-1.900763358778626,-1.0916030534351144
6.98,0.15087890625,-0.97216796875,0.110107421875,-1.2748091603053435,-1.4198473282442747,-0.5343511450381679
6.99,0.162109375,-0.986328125,0.123291015625,-0.46564885496183206,-1.4351145038167938,0.1984732824427481
7.0,0.183837890625,-1.005615234375,0.110107421875,0.7099236641221374,-1.16793893129771,1.1450381679389312
7.01,0.194580078125,-1.0126953125,0.126953125,1.7328244274809161,0.12213740458015267,2.053435114503817
7.02,0.21044921875,-1.0107421875,0.114013671875,3.6259541984732824,2.099236641221374,2.595419847328244
7.03,0.210205078125,-1.009033203125,0.134765625,4.5038167938931295,3.2442748091603053,2.6946564885496183
7.04,0.219482421875,-1.00927734375,0.13671875,5.221374045801527,4.282442748091603,2.3435114503816794
7.05,0.2255859375,-0.98828125,0.121337890625,5.740458015267175,5.0,1.8625954198473282
7.06,0.211669921875,-1.012451171875,0.123291015625,6.435114503816794,6.213740458015267,0.9083969465648855
7.07,0.193115234375,-1.00390625,0.122802734375,7.0,6.9465648854961835,0.7709923664122137
7.08,0.18896484375,-0.98876953125,0.119140625,6.648854961832061,7.526717557251908,0.7938931297709924
7.09,0.1806640625,-0.9677734375,0.119873046875,5.778625954198473,7.770992366412214,1.2213740458015268
7.1,0.171630859375,-0.952880859375,0.114501953125,5.396946564885496,8.419847328244275,1.366412213740458
7.11,0.1728515625,-0.95556640625,0.1044921875,5.022900763358779,9.106870229007633,1.8702290076335877
7.12,0.15673828125,-0.9443359375,0.1083984375,4.3893129770992365,9.16793893129771,2.0381679389312977
7.13,0.16943359375,-0.970947265625,0.110595703125,5.809160305343512,9.0,2.3740458015267176
7.14,0.151611328125,-0.97998046875,0.109619140625,3.7099236641221376,8.450381679389313,2.267175572519084
7.15,0.140869140625,-0.999755859375,0.108154296875,3.549618320610687,7.473282442748092,2.267175572519084
7.16,0.13916015625,-1.0166015625,0.115966796875,2.0,6.206106870229007,2.068702290076336
7.17,0.1474609375,-1.0029296875,0.113037109375,3.7786259541984735,5.7251908396946565,2.5343511450381677
7.18,0.149169921875,-0.998046875,0.10791015625,3.549618320610687,5.801526717557252,2.885496183206107
7.19,0.1611328125,-0.986328125,0.11669921875,3.099236641221374,6.061068702290076,3.2595419847328246
7.2,0.171630859375,-0.974365234375,0.134765625,3.015267175572519,6.282442748091603,3.3206106870229006
7.21,0.174560546875,-0.989501953125,0.110107421875,3.33587786259542,6.358778625954199,3.5572519083969465
7.22,0.18115234375,-0.9951171875,0.11083984375,3.519083969465649,6.106870229007634,3.6412213740458017
7.23,0.18359375,-1.00341796875,0.11083984375,3.7786259541984735,6.549618320610687,3.427480916030534
7.24,0.190673828125,-1.018798828125,0.103271484375,4.595419847328245,6.5038167938931295,2.786259541984733
7.25,0.20263671875,-1.0224609375,0.099853515625,5.534351145038168,6.625954198473282,2.312977099236641
7.26,0.194580078125,-1.008544921875,0.093994140625,5.526717557251908,6.908396946564886,1.8015267175572518
7.27,0.217529296875,-0.985107421875,0.08154296875,4.587786259541985,7.801526717557252,1.5419847328244274
7.28,0.220458984375,-0.98828125,0.07958984375,3.519083969465649,9.297709923664122,1.5572519083969465
7.29,0.223388671875,-0.986328125,0.09814453125,2.4198473282442747,10.564885496183207,1.6946564885496183
7.3,0.229736328125,-0.996826171875,0.08349609375,1.3129770992366412,11.488549618320612,1.2213740458015268
7.31,0.214111328125,-1.01416015625,0.114990234375,0.3282442748091603,11.793893129770993,0.6183206106870229
7.32,0.196533203125,-1.034912109375,0.12255859375,-0.816793893129771,11.80916030534351,-0.5954198473282443
7.33,0.188232421875,-1.03955078125,0.132568359375,-1.0687022900763359,10.702290076335878,-0.030534351145038167
7.34,0.168701171875,-1.039794921875,0.152099609375,-0.7175572519083969,9.335877862595419,-3.1068702290076335
7.35,0.16357421875,-1.005859375,0.152587890625,-0.3282442748091603,8.145038167938932,-3.3282442748091605
7.36,0.144775390625,-0.984619140625,0.15625,-0.7404580152671756,6.511450381679389,-2.946564885496183
7.37,0.1279296875,-1.0107421875,0.17431640625,-1.9236641221374047,4.030534351145038,-2.6793893129770994
7.38,0.11865234375,-1.03955078125,0.1982421875,-2.8702290076335877,1.3358778625954197,-3.0610687022900764
7.39,0.133056640625,-1.071533203125,0.217041015625,-2.0381679389312977,-1.015267175572519,-3.5114503816793894
7.4,0.14501953125,-1.078369140625,0.245361328125,-0.8549618320610687,-3.2595419847328246,-4.236641221374046
7.41,0.1552734375,-1.0458984375,0.240234375,0.3816793893129771,-4.129770992366412,-4.32824427480916
7.42,0.175048828125,-1.00732421875,0.23095703125,0.8396946564885496,-3.267175572519084,-4.732824427480916
7.43,0.1748046875,-0.97998046875,0.18994140625,-0.030534351145038167,-2.969465648854962,-4.488549618320611
7.44,0.2001953125,-0.95654296875,0.193603515625,-1.4274809160305344,-3.2977099236641223,-4.129770992366412
7.45,0.204833984375,-0.963134765625,0.195068359375,-2.984732824427481,-2.1908396946564888,-3.8244274809160306
7.46,0.21484375,-0.9755859375,0.211181640625,-6.175572519083969,-1.8091603053435115,-3.7557251908396947
7.47,0.2255859375,-0.998046875,0.25048828125,-9.259541984732824,2.4198473282442747,-3.7786259541984735
7.48,0.21435546875,-1.03369140625,0.259765625,-10.969465648854962,4.129770992366412,-4.419847328244275
7.49,0.19287109375,-1.068359375,0.23876953125,-10.98473282442748,4.984732824427481,-5.396946564885496
7.5,0.162109375,-1.09814453125,0.218017578125,-10.541984732824428,5.244274809160306,-6.030534351145038
7.51,0.149658203125,-1.119384765625,0.214599609375,-9.82442748091603,4.465648854961832,-5.755725190839694
7.52,0.12841796875,-1.099609375,0.21435546875,-9.16030534351145,4.267175572519084,-4.99236641221374
7.53,0.125,-1.078125,0.2275390625,-8.259541984732824,3.9389312977099236,-3.3053435114503817
7.54,0.113037109375,-1.041015625,0.24365234375,-6.99236641221374,4.404580152671755,-1.2671755725190839
7.55,0.10498046875,-1.013427734375,0.26708984375,-6.450381679389313,4.564885496183206,0.816793893129771
7.56,0.08447265625,-0.98388671875,0.2822265625,-5.938931297709924,4.755725190839694,2.6717557251908395
7.57,0.0703125,-0.953369140625,0.307861328125,-5.083969465648855,5.1679389312977095,4.198473282442748
7.58,0.068115234375,-0.92822265625,0.316650390625,-5.076335877862595,5.320610687022901,4.7251908396946565
7.59,0.055419921875,-0.92822265625,0.31494140625,-4.793893129770993,4.488549618320611,5.0458015267175576
7.6,0.049072265625,-0.936279296875,0.322998046875,-4.641221374045801,3.6793893129770994,5.122137404580153
7.61,0.044677734375,-0.917236328125,0.321044921875,-4.106870229007634,2.4885496183206106,5.442748091603053
7.62,0.056884765625,-0.92333984375,0.322998046875,-3.7099236641221376,2.4122137404580153,5.709923664122138
7.63,0.063720703125,-0.92529296875,0.329833984375,-3.4122137404580153,1.8473282442748091,5.557251908396947
7.64,0.047119140625,-0.91796875,0.306640625,-3.33587786259542,1.015267175572519,5.022900763358779
7.65,0.048095703125,-0.907470703125,0.30078125,-3.49618320610687,0.8396946564885496,4.1603053435114505
7.66,0.06787109375,-0.91845703125,0.295166015625,-3.633587786259542,0.6335877862595419,2.648854961832061
7.67,0.073974609375,-0.91943359375,0.26904296875,-4.450381679389313,0.5877862595419847,0.9923664122137404
7.68,0.05615234375,-0.9423828125,0.26318359375,-4.763358778625954,1.900763358778626,-0.7938931297709924
7.69,0.051025390625,-0.966064453125,0.240478515625,-4.717557251908397,0.19083969465648856,-2.564885496183206
7.7,0.043212890625,-0.99169921875,0.23291015625,-4.580152671755725,-0.13740458015267176,-4.137404580152672
7.71,0.037109375,-1.00244140625,0.223876953125,-4.603053435114504,-1.0381679389312977,-5.977099236641221
7.72,0.0517578125,-1.00927734375,0.22607421875,-4.66412213740458,-1.3129770992366412,-7.1603053435114505
7.73,0.057861328125,-1.025146484375,0.2314453125,-5.587786259541985,-1.83206106870229,-7.801526717557252
7.74,0.060791015625,-1.015869140625,0.207763671875,-7.183206106870229,-2.7404580152671754,-7.374045801526718
7.75,0.048583984375,-1.045166015625,0.211181640625,-7.633587786259542,-4.129770992366412,-6.198473282442748
7.76,0.05810546875,-1.05126953125,0.232177734375,-5.236641221374046,-3.183206106870229,-4.8320610687022905
7.77,0.051513671875,-1.051513671875,0.246826171875,-2.2061068702290076,-3.3435114503816794,-5.740458015267175
7.78,0.060791015625,-1.045166015625,0.241943359375,-0.8473282442748091,-3.572519083969466,-3.030534351145038
7.79,0.068359375,-1.05322265625,0.22021484375,0.29770992366412213,-1.9618320610687023,-3.900763358778626
7.8,0.071533203125,-1.052490234375,0.188232421875,2.763358778625954,-3.618320610687023,-0.20610687022900764
7.81,0.06884765625,-1.0625,0.191650390625,4.656488549618321,-2.3740458015267176,1.6030534351145038
7.82,0.0693359375,-1.058837890625,0.183349609375,6.076335877862595,-2.732824427480916,2.8244274809160306
7.83,0.082275390625,-1.046630859375,0.1767578125,7.2748091603053435,-2.16793893129771,3.572519083969466
7.84,0.0927734375,-1.0078125,0.15673828125,7.221374045801527,-2.0916030534351147,3.8625954198473282
7.85,0.10791015625,-0.984130859375,0.162841796875,7.190839694656488,-2.435114503816794,4.038167938931298
7.86,0.12646484375,-0.95654296875,0.16748046875,6.404580152671755,-2.572519083969466,4.145038167938932
7.87,0.124755859375,-0.947998046875,0.17626953125,4.961832061068702,-2.687022900763359,4.435114503816794
7.88,0.1357421875,-0.94970703125,0.16064453125,3.2442748091603053,-1.7099236641221374,4.320610687022901
7.89,0.118408203125,-0.978515625,0.182373046875,2.7022900763358777,-0.007633587786259542,3.7480916030534353
7.9,0.096435546875,-1.0107421875,0.1806640625,4.465648854961832,-2.1603053435114505,2.5801526717557253
7.91,0.072021484375,-1.013427734375,0.192138671875,5.687022900763359,-3.8702290076335877,1.786259541984733
7.92,0.055908203125,-1.014404296875,0.1904296875,6.152671755725191,-4.580152671755725,0.7480916030534351
7.93,0.04833984375,-1.01708984375,0.175048828125,6.740458015267175,-5.603053435114504,0.5801526717557252
7.94,0.049072265625,-1.012451171875,0.181884765625,6.473282442748092,-5.66412213740458,0.648854961832061
7.95,0.058837890625,-1.009521484375,0.17822265625,7.0458015267175576,-5.351145038167939,0.8091603053435115
7.96,0.08642578125,-0.999267578125,0.161865234375,7.152671755725191,-4.305343511450381,1.0229007633587786
7.97,0.090087890625,-0.996826171875,0.18701171875,7.236641221374046,-4.488549618320611,1.1374045801526718
7.98,0.11279296875,-0.97900390625,0.160400390625,6.580152671755725,-5.8396946564885495,0.5419847328244275
7.99,0.119384765625,-0.98828125,0.1630859375,6.404580152671755,-3.122137404580153,-0.2824427480916031
8.0,0.112060546875,-1.008056640625,0.167724609375,6.534351145038168,-3.816793893129771,-1.4809160305343512
8.01,0.11572265625,-1.01953125,0.156494140625,6.091603053435114,-2.49618320610687,-3.572519083969466
8.02,0.104736328125,-1.0185546875,0.181884765625,5.488549618320611,-2.9618320610687023,-5.786259541984733
8.03,0.1220703125,-0.9970703125,0.168212890625,6.152671755725191,-3.0,-7.0
8.04,0.111572265625,-0.966796875,0.17333984375,6.267175572519084,-2.8396946564885495,-7.00763358778626
8.05,0.11328125,-0.9658203125,0.18603515625,5.916030534351145,-3.0076335877862594,-6.152671755725191
8.06,0.11083984375,-0.974609375,0.16552734375,6.099236641221374,-2.8702290076335877,-5.00763358778626
8.07,0.098388671875,-0.9775390625,0.165771484375,6.236641221374046,-2.66412213740458,-4.282442748091603
8.08,0.078125,-0.9794921875,0.163330078125,5.068702290076335,-2.6717557251908395,-3.4885496183206106
8.09,0.0634765625,-0.969970703125,0.169677734375,4.236641221374046,-2.7786259541984735,-2.8473282442748094
8.1,0.06103515625,-0.97216796875,0.196533203125,4.396946564885496,-2.4198473282442747,-1.4580152671755726
8.11,0.034423828125,-0.954833984375,0.18798828125,3.946564885496183,-2.3282442748091605,-0.45038167938931295
8.12,0.04638671875,-0.968994140625,0.21484375,3.480916030534351,-1.4580152671755726,-0.12213740458015267
8.13,0.048095703125,-0.98583984375,0.21533203125,3.801526717557252,-2.5114503816793894,-0.8778625954198473
8.14,0.068603515625,-0.99560546875,0.198974609375,3.854961832061069,-5.488549618320611,-2.3282442748091605
8.15,0.0927734375,-0.99853515625,0.200927734375,4.9541984732824424,-7.778625954198473,-3.801526717557252
8.16,0.10009765625,-0.99267578125,0.209228515625,6.6183206106870225,-8.931297709923664,-5.00763358778626
8.17,0.10205078125,-0.987548828125,0.214111328125,8.732824427480915,-9.618320610687023,-5.717557251908397
8.18,0.10107421875,-0.975830078125,0.223876953125,10.603053435114504,-9.969465648854962,-6.290076335877862
8.19,0.091064453125,-0.962158203125,0.221435546875,10.793893129770993,-11.19083969465649,-6.488549618320611
8.2,0.0634765625,-0.952880859375,0.21142578125,10.229007633587786,-12.778625954198473,-6.2748091603053435
8.21,0.026123046875,-0.939208984375,0.190673828125,10.236641221374045,-15.488549618320612,-6.137404580152672
8.22,0.005615234375,-0.94140625,0.158447265625,9.274809160305344,-19.427480916030536,-5.778625954198473
8.23,-0.011962890625,-0.95458984375,0.1279296875,7.473282442748092,-23.129770992366414,-5.068702290076335
8.24,-0.015380859375,-0.95751953125,0.1005859375,5.244274809160306,-26.870229007633586,-3.4885496183206106
8.25,-0.0107421875,-0.970947265625,0.099365234375,2.519083969465649,-28.015267175572518,-1.1603053435114503
8.26,0.005615234375,-1.005859375,0.07763671875,-0.40458015267175573,-28.137404580152673,1.2748091603053435
8.27,0.038818359375,-1.027587890625,0.064208984375,-3.83206106870229,-26.66412213740458,2.068702290076336
8.28,0.075927734375,-1.03466796875,0.109375,-7.083969465648855,-24.900763358778626,5.763358778625954
8.29,0.122802734375,-1.03515625,0.146240234375,-9.16030534351145,-22.35114503816794,6.198473282442748
8.3,0.158447265625,-1.042236328125,0.18408203125,-9.763358778625955,-18.732824427480917,5.213740458015267
8.31,0.166259765625,-1.039794921875,0.216796875,-11.458015267175572,-16.412213740458014,3.351145038167939
8.32,0.177734375,-1.05078125,0.225341796875,-12.221374045801527,-14.580152671755725,1.3129770992366412
8.33,0.18994140625,-1.067138671875,0.23291015625,-12.091603053435115,-13.13740458015267,0.7786259541984732
8.34,0.1904296875,-1.06884765625,0.222900390625,-10.893129770992367,-10.183206106870228,0.7938931297709924
8.35,0.198486328125,-1.06689453125,0.219482421875,-11.16793893129771,-6.450381679389313,1.7404580152671756
8.36,0.1875,-1.0693359375,0.212646484375,-11.641221374045802,-3.9389312977099236,2.4427480916030535
8.37,0.1748046875,-1.0625,0.203369140625,-12.038167938931299,-3.0229007633587788,3.183206106870229
8.38,0.154052734375,-1.0263671875,0.19873046875,-13.595419847328245,-1.3435114503816794,4.091603053435114
8.39,0.09716796875,-1.0009765625,0.20703125,-11.282442748091603,0.7709923664122137,4.580152671755725
8.4,0.0556640625,-0.960205078125,0.249267578125,-15.022900763358779,-0.6259541984732825,5.0
8.41,-0.012939453125,-0.947509765625,0.2568359375,-16.946564885496183,-1.8091603053435115,5.251908396946565
8.42,-0.04052734375,-0.94873046875,0.24462890625,-16.52671755725191,-5.572519083969466,5.465648854961832
8.43,-0.05078125,-0.92138671875,0.234619140625,-16.96946564885496,-8.320610687022901,6.030534351145038
8.44,-0.036376953125,-0.902099609375,0.262939453125,-18.49618320610687,-8.98473282442748,7.305343511450381
8.45,-0.0361328125,-0.90966796875,0.28759765625,-20.435114503816795,-9.969465648854962,9.763358778625955
8.46,0.02392578125,-0.939697265625,0.2880859375,-21.633587786259543,-9.603053435114504,12.465648854961833
8.47,0.10400390625,-0.983642578125,0.302490234375,-22.022900763358777,-8.50381679389313,14.83969465648855
8.48,0.2021484375,-1.029296875,0.320068359375,-22.801526717557252,-3.969465648854962,15.938931297709924
8.49,0.26123046875,-1.08203125,0.333984375,-21.297709923664122,-1.7709923664122138,15.633587786259541
8.5,0.310791015625,-1.087890625,0.371826171875,-18.12213740458015,0.022900763358778626,14.404580152671755
8.51,0.318603515625,-1.08349609375,0.3994140625,-14.908396946564885,6.068702290076335,12.603053435114504
8.52,0.283935546875,-1.054931640625,0.3984375,-11.091603053435115,8.755725190839694,9.908396946564885
8.53,0.25390625,-1.0068359375,0.376220703125,-8.816793893129772,10.473282442748092,7.076335877862595
8.54,0.198486328125,-0.9755859375,0.34033203125,-7.847328244274809,10.435114503816793,4.702290076335878
8.55,0.184326171875,-0.958251953125,0.30419921875,-8.801526717557252,11.091603053435115,2.4198473282442747
8.56,0.16845703125,-0.961181640625,0.266357421875,-12.778625954198473,13.030534351145038,0.2595419847328244
8.57,0.115234375,-0.978515625,0.240234375,-17.366412213740457,7.473282442748092,-1.4809160305343512
8.58,0.106201171875,-1.025634765625,0.245849609375,-18.717557251908396,3.0229007633587788,-2.931297709923664
8.59,0.129638671875,-1.05126953125,0.251220703125,-16.84732824427481,3.3893129770992365,-3.8473282442748094
8.6,0.13818359375,-1.060546875,0.255859375,-14.908396946564885,3.3206106870229006,-4.847328244274809
8.61,0.135009765625,-1.0556640625,0.2666015625,-12.83969465648855,3.2442748091603053,-5.0458015267175576
8.62,0.135498046875,-1.048583984375,0.254150390625,-10.931297709923664,2.8931297709923665,-5.3893129770992365
8.63,0.146728515625,-1.033447265625,0.229736328125,-9.587786259541986,2.2442748091603053,-5.572519083969466
8.64,0.131103515625,-1.024658203125,0.208984375,-8.038167938931299,1.3511450381679388,-5.99236641221374
8.65,0.12890625,-1.03125,0.188232421875,-7.0458015267175576,0.3053435114503817,-6.549618320610687
8.66,0.129150390625,-1.023193359375,0.20361328125,-6.511450381679389,-0.09923664122137404,-7.1603053435114505
8.67,0.136474609375,-1.03076171875,0.216796875,-6.297709923664122,-1.5954198473282444,-7.106870229007634
8.68,0.129150390625,-1.0400390625,0.1923828125,-5.061068702290076,-1.8549618320610688,-6.786259541984733
8.69,0.12646484375,-1.022705078125,0.194091796875,-2.7938931297709924,-2.1297709923664123,-5.458015267175573
8.7,0.143798828125,-0.98486328125,0.169921875,-1.8473282442748091,-1.4274809160305344,-4.603053435114504
8.71,0.150634765625,-0.968994140625,0.166748046875,-0.6030534351145038,-0.7404580152671756,-5.862595419847328
8.72,0.142822265625,-0.98779296875,0.14111328125,0.3816793893129771,1.9465648854961832,-3.7709923664122136
8.73,0.154052734375,-0.982666015625,0.150390625,0.732824427480916,-0.10687022900763359,-3.5419847328244276
8.74,0.16162109375,-0.987548828125,0.151611328125,0.9770992366412213,0.7022900763358778,-3.427480916030534
8.75,0.16015625,-0.9951171875,0.1640625,1.916030534351145,1.2366412213740459,-3.427480916030534
8.76,0.165283203125,-0.988525390625,0.1640625,2.7709923664122136,0.03816793893129771,-3.427480916030534
8.77,0.1689453125,-0.981201171875,0.166748046875,4.015267175572519,2.648854961832061,-3.5114503816793894
8.78,0.153564453125,-0.97705078125,0.14697265625,4.404580152671755,2.519083969465649,-3.427480916030534
8.79,0.147705078125,-0.9560546875,0.141845703125,4.473282442748092,2.5877862595419847,-3.6564885496183206
8.8,0.145263671875,-0.96435546875,0.138427734375,3.7480916030534353,1.5114503816793894,-4.152671755725191
8.81,0.140869140625,-0.9501953125,0.12158203125,3.3206106870229006,0.8473282442748091,-4.267175572519084
8.82,0.1240234375,-0.94775390625,0.1298828125,4.801526717557252,2.0916030534351147,-4.793893129770993
8.83,0.10986328125,-0.947265625,0.133056640625,4.687022900763359,1.748091603053435,-4.816793893129771
8.84,0.137451171875,-0.97216796875,0.12548828125,3.8625954198473282,-0.7938931297709924,-5.7251908396946565
8.85,0.15087890625,-1.003662109375,0.12353515625,5.809160305343512,0.2900763358778626,-1.251908396946565
8.86,0.1640625,-1.002197265625,0.11669921875,4.732824427480916,1.5114503816793894,1.4274809160305344
8.87,0.18310546875,-1.01708984375,0.123291015625,6.1679389312977095,2.6946564885496183,3.786259541984733
8.88,0.161865234375,-1.0,0.119384765625,7.259541984732825,3.9083969465648853,5.1679389312977095
8.89,0.14990234375,-0.989013671875,0.103515625,8.16793893129771,4.290076335877862,5.717557251908397
8.9,0.14501953125,-0.97607421875,0.0927734375,9.34351145038168,4.213740458015267,6.129770992366412
8.91,0.14111328125,-0.96142578125,0.083740234375,9.67175572519084,4.221374045801527,6.442748091603053
8.92,0.140869140625,-0.9541015625,0.075927734375,9.34351145038168,4.557251908396947,7.587786259541985
8.93,0.146240234375,-0.944091796875,0.092041015625,8.946564885496183,4.977099236641221,8.549618320610687
8.94,0.14208984375,-0.9521484375,0.0830078125,7.4961832061068705,6.106870229007634,9.251908396946565
8.95,0.14453125,-0.96923828125,0.0869140625,6.480916030534351,6.564885496183206,9.15267175572519
8.96,0.14111328125,-1.00244140625,0.102783203125,6.572519083969466,5.916030534351145,8.549618320610687
8.97,0.15087890625,-1.0263671875,0.129150390625,7.213740458015267,4.877862595419847,7.938931297709924
8.98,0.160400390625,-1.02880859375,0.162109375,7.480916030534351,3.8244274809160306,7.282442748091603
8.99,0.164306640625,-1.04443359375,0.166259765625,8.19083969465649,3.7480916030534353,6.404580152671755
9.0,0.158447265625,-1.05224609375,0.183349609375,9.229007633587786,4.068702290076335,7.793893129770993
9.01,0.18701171875,-1.0419921875,0.182373046875,10.610687022900763,3.9083969465648853,6.145038167938932
9.02,0.171875,-1.017822265625,0.170166015625,11.702290076335878,9.335877862595419,7.015267175572519
9.03,0.16650390625,-0.993408203125,0.1474609375,11.748091603053435,11.900763358778626,7.404580152671755
9.04,0.162841796875,-0.9912109375,0.15576171875,13.67175572519084,12.572519083969466,7.229007633587786
9.05,0.156982421875,-0.99462890625,0.16845703125,11.977099236641221,12.885496183206106,6.916030534351145
9.06,0.147705078125,-1.00390625,0.1689453125,11.305343511450381,13.312977099236642,5.748091603053435
9.07,0.119873046875,-1.014892578125,0.14306640625,10.908396946564885,12.49618320610687,4.297709923664122
9.08,0.134765625,-0.987060546875,0.15185546875,10.16030534351145,13.67175572519084,3.1908396946564888
9.09,0.143310546875,-0.960205078125,0.122314453125,10.13740458015267,12.427480916030534,2.145038167938931
9.1,0.18359375,-0.93017578125,0.1005859375,9.65648854961832,14.221374045801527,1.5877862595419847
9.11,0.206298828125,-0.9189453125,0.076171875,7.969465648854962,16.96946564885496,1.099236641221374
9.12,0.233154296875,-0.9130859375,0.078125,7.694656488549619,20.549618320610687,0.2748091603053435
9.13,0.25927734375,-0.93212890625,0.084228515625,3.4198473282442747,23.18320610687023,-1.213740458015267
9.14,0.273193359375,-0.954833984375,0.104736328125,0.13740458015267176,24.19083969465649,-3.7404580152671754
9.15,0.286865234375,-1.009521484375,0.1259765625,-4.190839694656488,23.946564885496183,-7.480916030534351
9.16,0.253173828125,-1.08837890625,0.148681640625,-8.114503816793894,23.33587786259542,-13.267175572519085
9.17,0.162109375,-1.1279296875,0.1689453125,-9.564885496183207,19.885496183206108,-18.862595419847327
9.18,0.095947265625,-1.128173828125,0.182861328125,-6.465648854961832,11.16793893129771,-21.732824427480917
9.19,0.088134765625,-1.0498046875,0.18603515625,-3.435114503816794,8.732824427480915,-21.129770992366414
9.2,0.09033203125,-0.967041015625,0.19091796875,-3.1374045801526718,8.67175572519084,-18.908396946564885
9.21,0.06298828125,-0.948974609375,0.180908203125,-5.320610687022901,8.465648854961833,-17.549618320610687
9.22,0.0302734375,-1.0078125,0.190185546875,-8.557251908396946,6.32824427480916,-17.709923664122137
9.23,-0.01953125,-1.069091796875,0.245361328125,-8.198473282442748,1.2671755725190839,-18.51145038167939
9.24,-0.02490234375,-1.114013671875,0.270263671875,-5.732824427480916,-4.267175572519084,-19.14503816793893
9.25,-0.025146484375,-1.1240234375,0.3076171875,-5.809160305343512,-9.32824427480916,-19.083969465648856
9.26,0.017333984375,-1.10693359375,0.276611328125,-3.49618320610687,-12.374045801526718,-18.19083969465649
9.27,0.070556640625,-1.071533203125,0.218505859375,-4.083969465648855,-14.755725190839694,-16.946564885496183
9.28,0.117431640625,-1.02490234375,0.19189453125,-5.625954198473282,-16.244274809160306,-14.687022900763358
9.29,0.169677734375,-0.9951171875,0.181884765625,-7.9541984732824424,-15.50381679389313,-11.877862595419847
9.3,0.19970703125,-0.9814453125,0.1875,-11.679389312977099,-13.763358778625955,-8.80916030534351
9.31,0.219482421875,-1.00146484375,0.189208984375,-14.969465648854962,-11.450381679389313,-6.526717557251908
9.32,0.2109375,-1.0419921875,0.223876953125,-14.16030534351145,-9.557251908396946,-4.641221374045801
9.33,0.182373046875,-1.060791015625,0.2548828125,-12.389312977099237,-9.229007633587786,-3.633587786259542
9.34,0.154296875,-1.074951171875,0.271240234375,-9.923664122137405,-9.770992366412214,-3.1374045801526718
9.35,0.137939453125,-1.0732421875,0.2919921875,-6.190839694656488,-9.893129770992367,-2.183206106870229
9.36,0.09375,-1.05224609375,0.308349609375,-2.3740458015267176,-9.450381679389313,-1.1603053435114503
9.37,0.09765625,-1.022705078125,0.326904296875,0.4732824427480916,-7.297709923664122,0.46564885496183206
9.38,0.093017578125,-0.994873046875,0.330078125,2.2977099236641223,-5.145038167938932,1.4885496183206106
9.39,0.09521484375,-0.98681640625,0.35693359375,2.9923664122137406,-3.2900763358778624,1.8015267175572518
9.4,0.1064453125,-0.970458984375,0.368896484375,2.8473282442748094,-1.5801526717557253,0.7709923664122137
9.41,0.12451171875,-0.95458984375,0.37744140625,2.1297709923664123,-1.8931297709923665,-0.9083969465648855
9.42,0.13623046875,-0.9267578125,0.376953125,-0.11450381679389313,1.4580152671755726,-3.3282442748091605
9.43,0.13427734375,-0.90234375,0.33544921875,-2.435114503816794,2.1603053435114505,-6.3816793893129775
9.44,0.117431640625,-0.90966796875,0.30712890625,-3.1297709923664123,2.7786259541984735,-8.48091603053435
9.45,0.103271484375,-0.91357421875,0.294677734375,-3.564885496183206,3.068702290076336,-9.885496183206106
9.46,0.079345703125,-0.924560546875,0.29736328125,-3.7557251908396947,2.2442748091603053,-10.82442748091603
9.47,0.054931640625,-0.96875,0.2861328125,-3.6946564885496183,1.5419847328244274,-10.564885496183207
9.48,0.03369140625,-0.989013671875,0.279052734375,-3.8244274809160306,1.8778625954198473,-9.51908396946565
9.49,0.021484375,-1.007568359375,0.260009765625,-2.8625954198473282,-0.9770992366412213,-7.145038167938932
9.5,-0.000244140625,-1.017578125,0.23486328125,-1.8091603053435115,-1.7557251908396947,-4.786259541984733
9.51,-0.014892578125,-1.006103515625,0.21533203125,-3.786259541984733,-3.549618320610687,-3.885496183206107
9.52,-0.0205078125,-1.012451171875,0.19873046875,-6.435114503816794,-5.801526717557252,1.083969465648855
9.53,-0.013916015625,-1.034912109375,0.179931640625,-5.656488549618321,-6.480916030534351,3.763358778625954
9.54,0.045166015625,-1.03466796875,0.229736328125,-2.9389312977099236,-5.1679389312977095,5.458015267175573
9.55,0.052490234375,-1.02099609375,0.220947265625,-2.9160305343511452,-5.717557251908397,6.916030534351145
9.56,0.063720703125,-1.01416015625,0.204833984375,-2.4732824427480917,-5.465648854961832,8.48091603053435
9.57,0.09130859375,-1.010498046875,0.1806640625,-1.7404580152671756,-4.221374045801527,9.679389312977099
9.58,0.095458984375,-1.00048828125,0.18017578125,-3.068702290076336,-4.480916030534351,9.67175572519084
9.59,0.11474609375,-1.01416015625,0.192138671875,-3.5419847328244276,-4.038167938931298,8.412213740458014
9.6,0.114990234375,-0.9912109375,0.197998046875,-3.6412213740458017,-5.083969465648855,7.061068702290076
9.61,0.112060546875,-0.989013671875,0.191650390625,-2.145038167938931,-5.778625954198473,5.580152671755725
9.62,0.106689453125,-0.9951171875,0.215087890625,-0.03816793893129771,-5.809160305343512,4.419847328244275
9.63,0.099365234375,-0.98974609375,0.203857421875,2.5572519083969465,-5.190839694656488,3.6030534351145036
9.64,0.097900390625,-0.96923828125,0.221923828125,3.435114503816794,-4.717557251908397,2.633587786259542
9.65,0.08349609375,-0.97705078125,0.200927734375,2.8396946564885495,-5.854961832061068,1.8778625954198473
9.66,0.0673828125,-0.9599609375,0.179931640625,2.5343511450381677,-4.015267175572519,1.5114503816793894
9.67,0.07568359375,-0.94775390625,0.196044921875,1.1603053435114503,-7.679389312977099,1.3129770992366412
9.68,0.0771484375,-0.937255859375,0.15966796875,0.1984732824427481,-3.351145038167939,1.4427480916030535
9.69,0.062255859375,-0.930419921875,0.151123046875,-0.25190839694656486,-2.9083969465648853,2.1603053435114505
9.7,0.064208984375,-0.937744140625,0.165771484375,-0.8320610687022901,-2.9618320610687023,2.763358778625954
9.71,0.065673828125,-0.95458984375,0.1708984375,-1.2442748091603053,-1.3969465648854962,2.6717557251908395
9.72,0.0703125,-0.9658203125,0.169921875,-2.480916030534351,-1.1450381679389312,2.0229007633587788
9.73,0.074462890625,-0.983642578125,0.16162109375,-2.885496183206107,-0.8549618320610687,0.9312977099236641
9.74,0.086181640625,-0.99267578125,0.164794921875,-1.4198473282442747,-1.5954198473282444,-0.48091603053435117
9.75,0.091064453125,-1.005126953125,0.14453125,-1.9083969465648856,-2.351145038167939,-1.5190839694656488
9.76,0.08544921875,-1.00927734375,0.160400390625,1.7099236641221374,-3.5877862595419847,-2.5114503816793894
9.77,0.097900390625,-1.00390625,0.154296875,3.8625954198473282,-4.625954198473282,-3.435114503816794
9.78,0.1005859375,-1.013916015625,0.160400390625,6.183206106870229,-5.267175572519084,-4.396946564885496
9.79,0.101806640625,-1.009765625,0.143310546875,8.80916030534351,-6.312977099236641,-5.099236641221374
9.8,0.100341796875,-0.989990234375,0.1328125,10.83969465648855,-7.0534351145038165,-5.305343511450381
9.81,0.108154296875,-0.9873046875,0.11865234375,11.954198473282442,-8.229007633587786,-5.5038167938931295
9.82,0.080322265625,-0.977294921875,0.109375,13.053435114503817,-8.412213740458014,-5.564885496183206
9.83,0.099365234375,-0.95947265625,0.10498046875,13.007633587786259,-8.603053435114504,-5.152671755725191
9.84,0.080078125,-0.955810546875,0.10107421875,11.282442748091603,-9.129770992366412,-5.0534351145038165
9.85,0.0634765625,-1.003662109375,0.100830078125,9.259541984732824,-10.526717557251908,-4.748091603053435
9.86,0.060546875,-1.031494140625,0.11865234375,8.511450381679388,-11.427480916030534,-4.816793893129771
9.87,0.067138671875,-1.04638671875,0.146728515625,8.053435114503817,-11.473282442748092,-4.801526717557252
9.88,0.05615234375,-1.032958984375,0.1474609375,7.633587786259542,-11.595419847328245,-4.778625954198473
9.89,0.051025390625,-1.02587890625,0.152099609375,5.885496183206107,-12.312977099236642,-4.961832061068702
9.9,0.06005859375,-1.01220703125,0.14306640625,8.488549618320612,-11.748091603053435,-5.206106870229007
9.91,0.021484375,-1.01708984375,0.140625,12.045801526717558,-15.297709923664122,-5.236641221374046
9.92,0.05078125,-0.998779296875,0.184326171875,14.15267175572519,-16.213740458015266,-5.358778625954199
9.93,0.048583984375,-0.9814453125,0.182373046875,14.877862595419847,-16.595419847328245,-5.557251908396947
9.94,0.0830078125,-0.978271484375,0.154052734375,15.053435114503817,-16.786259541984734,-5.6183206106870225
9.95,0.103759765625,-0.978759765625,0.158447265625,15.702290076335878,-16.46564885496183,-6.1679389312977095
9.96,0.118408203125,-0.954345703125,0.149169921875,15.01526717557252,-16.27480916030534,-6.465648854961832
9.97,0.1142578125,-0.91943359375,0.1318359375,15.534351145038167,-16.053435114503817,-6.572519083969466
9.98,0.13525390625,-0.91748046875,0.099365234375,13.580152671755725,-15.870229007633588,-6.961832061068702
9.99,0.119873046875,-0.912109375,0.1015625,8.870229007633588,-15.83969465648855,-7.3816793893129775
10.0,0.11376953125,-0.917236328125,0.11279296875,5.1679389312977095,-17.30534351145038,-8.618320610687023
10.01,0.096435546875,-0.938232421875,0.10546875,2.786259541984733,-18.46564885496183,-9.511450381679388
10.02,0.083740234375,-0.944580078125,0.112060546875,0.9694656488549618,-19.908396946564885,-10.068702290076336
10.03,0.074462890625,-0.955078125,0.1181640625,-0.5877862595419847,-22.16030534351145,-10.083969465648854
10.04,0.064453125,-0.98486328125,0.120361328125,-4.229007633587786,-24.541984732824428,-8.610687022900763
10.05,0.068115234375,-1.0107421875,0.12353515625,-8.778625954198473,-25.34351145038168,-5.091603053435114
10.06,0.114990234375,-1.070068359375,0.128662109375,-12.702290076335878,-24.17557251908397,1.213740458015267
10.07,0.15576171875,-1.1025390625,0.154052734375,-13.687022900763358,-20.259541984732824,7.343511450381679
10.08,0.170654296875,-1.100830078125,0.182373046875,-17.83969465648855,-15.15267175572519,11.977099236641221
10.09,0.161376953125,-1.092041015625,0.2109375,-20.557251908396946,-11.221374045801527,14.801526717557252
10.1,0.167236328125,-1.10595703125,0.21826171875,-23.022900763358777,-9.030534351145038,16.595419847328245
10.11,0.1650390625,-1.1318359375,0.24658203125,-23.61832061068702,-5.549618320610687,18.69465648854962
10.12,0.171875,-1.147216796875,0.291259765625,-24.213740458015266,-0.7786259541984732,20.84732824427481
10.13,0.148681640625,-1.15478515625,0.326171875,-24.236641221374047,4.778625954198473,21.671755725190838
10.14,0.125,-1.1171875,0.3232421875,-23.480916030534353,6.916030534351145,20.69465648854962
10.15,0.08935546875,-1.094970703125,0.274169921875,-21.404580152671755,6.465648854961832,17.763358778625953
10.16,0.067138671875,-1.04248046875,0.220703125,-19.72519083969466,4.595419847328245,13.732824427480915
10.17,0.058349609375,-1.03466796875,0.217041015625,-17.068702290076335,3.8244274809160306,9.778625954198473
10.18,0.066162109375,-1.014892578125,0.22314453125,-12.725190839694656,-1.4580152671755726,5.351145038167939
10.19,0.049560546875,-0.9931640625,0.25048828125,-9.664122137404581,-2.564885496183206,1.6030534351145038
10.2,0.0751953125,-0.959228515625,0.2802734375,-9.679389312977099,-3.946564885496183,-1.1221374045801527
10.21,0.086669921875,-0.956787109375,0.28369140625,-10.732824427480915,-4.916030534351145,-2.0763358778625953
10.22,0.138671875,-0.974853515625,0.30126953125,-10.923664122137405,-5.511450381679389,-0.7022900763358778
10.23,0.1884765625,-0.98193359375,0.31494140625,-11.526717557251908,-4.534351145038168,2.7938931297709924
10.24,0.208984375,-0.98974609375,0.340087890625,-11.732824427480915,-1.534351145038168,6.488549618320611
10.25,0.20849609375,-0.993408203125,0.3486328125,-15.923664122137405,0.8244274809160306,8.946564885496183
10.26,0.21044921875,-0.9951171875,0.354736328125,-16.015267175572518,3.8625954198473282,10.0
10.27,0.218017578125,-0.984375,0.343505859375,-15.053435114503817,6.717557251908397,8.458015267175572
10.28,0.177978515625,-0.96435546875,0.35009765625,-13.946564885496183,8.297709923664122,7.244274809160306
10.29,0.158447265625,-0.97900390625,0.350830078125,-12.67175572519084,9.030534351145038,4.732824427480916
10.3,0.138671875,-0.9921875,0.36279296875,-11.290076335877863,9.007633587786259,2.8625954198473282
10.31,0.130126953125,-1.00341796875,0.343505859375,-10.030534351145038,9.16030534351145,1.6641221374045803
10.32,0.124267578125,-1.005615234375,0.349853515625,-8.099236641221374,9.916030534351146,1.6641221374045803
10.33,0.119140625,-0.99853515625,0.35205078125,-6.312977099236641,10.099236641221374,1.748091603053435
10.34,0.139892578125,-0.99951171875,0.342041015625,-5.687022900763359,9.34351145038168,1.6946564885496183
10.35,0.132568359375,-0.968994140625,0.324462890625,-4.847328244274809,8.931297709923664,1.8396946564885497
10.36,0.12548828125,-0.955078125,0.2958984375,-4.251908396946565,8.114503816793894,1.7557251908396947
10.37,0.14453125,-0.947509765625,0.2578125,-3.83206106870229,7.9541984732824424,1.2061068702290076
10.38,0.126953125,-0.94091796875,0.2333984375,-4.6183206106870225,6.511450381679389,-0.030534351145038167
10.39,0.1240234375,-0.944580078125,0.208984375,-4.450381679389313,5.229007633587786,-1.6106870229007633
10.4,0.126953125,-0.9384765625,0.193603515625,-5.213740458015267,4.534351145038168,-2.9770992366412212
10.41,0.12158203125,-0.933837890625,0.19287109375,-7.106870229007634,3.2442748091603053,-3.8702290076335877
10.42,0.118408203125,-0.96044921875,0.19921875,-10.01526717557252,1.2748091603053435,-5.175572519083969
10.43,0.09521484375,-1.015380859375,0.188232421875,-11.595419847328245,-0.4580152671755725,-6.244274809160306
10.44,0.110107421875,-1.077880859375,0.204345703125,-10.977099236641221,-1.83206106870229,-6.526717557251908
10.45,0.113525390625,-1.10498046875,0.22607421875,-8.587786259541986,0.5801526717557252,-5.770992366412214
10.46,0.096435546875,-1.114501953125,0.237548828125,-5.755725190839694,-0.9923664122137404,-4.442748091603053
10.47,0.10546875,-1.08740234375,0.227294921875,-3.3969465648854964,-3.3282442748091605,-2.7938931297709924
10.48,0.113037109375,-1.0693359375,0.190673828125,-0.6030534351145038,-2.66412213740458,-1.5419847328244274
10.49,0.112060546875,-1.032958984375,0.182861328125,1.6412213740458015,-2.427480916030534,-0.48854961832061067
10.5,0.114013671875,-1.01708984375,0.168212890625,2.801526717557252,-2.1908396946564888,-0.061068702290076333
10.51,0.134765625,-1.004150390625,0.164306640625,3.312977099236641,-1.786259541984733,-0.25190839694656486
10.52,0.133056640625,-0.991455078125,0.158447265625,3.2977099236641223,-1.7099236641221374,-0.183206106870229
10.53,0.158447265625,-1.009521484375,0.1669921875,3.1297709923664123,2.3206106870229006,-0.42748091603053434
10.54,0.1513671875,-1.005859375,0.17578125,3.3053435114503817,1.4351145038167938,-0.8244274809160306
10.55,0.1416015625,-1.0224609375,0.166259765625,3.3587786259541983,-4.885496183206107,-1.702290076335878
10.56,0.140625,-1.021484375,0.1669921875,5.572519083969466,-4.916030534351145,-2.2595419847328246
10.57,0.138671875,-1.0283203125,0.183837890625,6.9541984732824424,-5.312977099236641,-2.3587786259541983
10.58,0.146728515625,-1.00048828125,0.16943359375,7.198473282442748,-3.9160305343511452,-1.6564885496183206
10.59,0.14306640625,-1.01123046875,0.15771484375,8.274809160305344,-2.687022900763359,-0.7404580152671756
10.6,0.1513671875,-0.980224609375,0.14990234375,9.374045801526718,-0.7022900763358778,0.24427480916030533
10.61,0.169189453125,-0.961181640625,0.140380859375,9.549618320610687,1.4427480916030535,0.5801526717557252
10.62,0.1669921875,-0.9619140625,0.13818359375,8.80916030534351,2.6259541984732824,0.6717557251908397
10.63,0.1728515625,-0.965576171875,0.134765625,8.511450381679388,2.030534351145038,0.7709923664122137
10.64,0.173828125,-0.981689453125,0.132080078125,9.427480916030534,5.297709923664122,0.648854961832061
10.65,0.173828125,-0.975830078125,0.138916015625,10.580152671755725,6.480916030534351,0.37404580152671757
10.66,0.171630859375,-0.965576171875,0.11474609375,12.099236641221374,7.198473282442748,1.0534351145038168
10.67,0.1689453125,-0.9365234375,0.105224609375,12.48091603053435,8.122137404580153,1.6488549618320612
10.68,0.17822265625,-0.910888671875,0.091796875,10.664122137404581,9.442748091603054,2.4732824427480917
10.69,0.176025390625,-0.90283203125,0.057861328125,7.847328244274809,10.564885496183207,3.5419847328244276
10.7,0.158203125,-0.90869140625,0.054443359375,7.8320610687022905,10.587786259541986,4.694656488549619
10.71,0.137939453125,-0.917236328125,0.06982421875,6.778625954198473,9.648854961832061,5.6183206106870225
10.72,0.12548828125,-0.934326171875,0.082763671875,5.572519083969466,9.083969465648854,6.022900763358779
10.73,0.119384765625,-0.951416015625,0.09423828125,5.282442748091603,8.465648854961833,5.923664122137405
10.74,0.115234375,-0.974365234375,0.107177734375,6.312977099236641,7.221374045801527,5.793893129770993
10.75,0.133056640625,-0.99365234375,0.113525390625,7.32824427480916,6.893129770992366,3.9083969465648853
10.76,0.140869140625,-1.01416015625,0.126953125,5.938931297709924,7.465648854961832,6.114503816793893
10.77,0.156005859375,-1.009765625,0.1279296875,7.786259541984733,8.618320610687023,6.305343511450381
10.78,0.140869140625,-1.021240234375,0.140869140625,7.511450381679389,9.98473282442748,6.396946564885496
10.79,0.142333984375,-1.00244140625,0.127197265625,7.633587786259542,10.923664122137405,6.748091603053435
10.8,0.133544921875,-1.00732421875,0.133056640625,7.862595419847328,11.022900763358779,7.251908396946565
10.81,0.1357421875,-1.01513671875,0.134521484375,7.175572519083969,11.389312977099237,6.900763358778626
10.82,0.1337890625,-0.994873046875,0.139404296875,5.984732824427481,10.534351145038167,6.129770992366412
10.83,0.129150390625,-0.99072265625,0.1201171875,4.908396946564886,8.801526717557252,4.938931297709924
10.84,0.13037109375,-0.988037109375,0.10693359375,4.969465648854962,6.603053435114504,3.3282442748091605
10.85,0.127685546875,-0.98193359375,0.09765625,4.412213740458015,4.862595419847328,1.6793893129770991
10.86,0.13525390625,-0.96728515625,0.09130859375,4.0,3.854961832061069,0.648854961832061
10.87,0.153564453125,-0.955322265625,0.070068359375,3.3206106870229006,4.824427480916031,-0.09923664122137404
10.88,0.18115234375,-0.967529296875,0.072021484375,1.0,5.4961832061068705,-1.1603053435114503
10.89,0.197998046875,-0.96728515625,0.08349609375,-3.618320610687023,7.511450381679389,-2.8473282442748094
10.9,0.20166015625,-1.021484375,0.10302734375,-8.931297709923664,8.259541984732824,-6.106870229007634
10.91,0.192626953125,-1.097412109375,0.150634765625,-10.969465648854962,4.061068702290076,-10.229007633587786
10.92,0.190673828125,-1.155517578125,0.19970703125,-6.106870229007634,3.8091603053435112,-13.244274809160306
10.93,0.1962890625,-1.136474609375,0.251220703125,-1.1755725190839694,2.9160305343511452,-14.213740458015268
10.94,0.1845703125,-1.07861328125,0.27587890625,-1.9465648854961832,2.7480916030534353,-14.259541984732824
10.95,0.154296875,-1.04736328125,0.29150390625,-1.015267175572519,5.847328244274809,-14.259541984732824
10.96,0.115478515625,-1.038330078125,0.28515625,-3.2442748091603053,3.2977099236641223,-14.755725190839694
10.97,0.083251953125,-1.046875,0.2802734375,-3.2442748091603053,0.0916030534351145,-15.50381679389313
10.98,0.073486328125,-1.033935546875,0.2705078125,-2.687022900763359,-2.480916030534351,-15.748091603053435
10.99,0.072998046875,-1.031005859375,0.2509765625,-2.5267175572519083,-4.465648854961832,-15.045801526717558
11.0,0.055908203125,-1.033203125,0.212646484375,-2.9236641221374047,-3.931297709923664,-13.404580152671755
11.01,0.078125,-1.032470703125,0.197021484375,-5.1679389312977095,-7.679389312977099,-11.511450381679388
11.02,0.07177734375,-1.048828125,0.20703125,-7.938931297709924,-8.732824427480915,-8.748091603053435
11.03,0.093017578125,-1.052490234375,0.214599609375,-9.305343511450381,-8.381679389312977,-6.877862595419847
11.04,0.140380859375,-1.0498046875,0.211181640625,-9.580152671755725,-5.374045801526718,-4.213740458015267
11.05,0.182861328125,-1.028564453125,0.216064453125,-8.595419847328245,-1.8091603053435115,-3.8702290076335877
11.06,0.21337890625,-0.999267578125,0.2431640625,-8.450381679389313,1.5267175572519085,-0.42748091603053434
11.07,0.2216796875,-0.99658203125,0.26708984375,-8.206106870229007,4.5038167938931295,-0.5877862595419847
11.08,0.2294921875,-1.010498046875,0.28173828125,-6.67175572519084,6.969465648854962,-2.5877862595419847
11.09,0.197021484375,-1.00830078125,0.307861328125,-4.5038167938931295,8.320610687022901,-5.312977099236641
11.1,0.138671875,-1.01025390625,0.301025390625,-2.8396946564885495,7.717557251908397,-7.641221374045801
11.11,0.100830078125,-0.978515625,0.31689453125,-3.7709923664122136,6.236641221374046,-9.763358778625955
11.12,0.06103515625,-0.98046875,0.31884765625,-5.221374045801527,4.0534351145038165,-11.709923664122137
11.13,0.037109375,-0.9775390625,0.304931640625,-6.206106870229007,1.2290076335877862,-12.633587786259541
11.14,0.034423828125,-0.9658203125,0.303466796875,-6.580152671755725,-0.46564885496183206,-12.954198473282442
11.15,0.017822265625,-0.949462890625,0.306640625,-6.656488549618321,-1.0687022900763359,-12.83969465648855
11.16,0.00341796875,-0.9404296875,0.30908203125,-7.557251908396947,-1.1755725190839694,-11.793893129770993
11.17,0.000244140625,-0.948486328125,0.30712890625,-6.969465648854962,-1.213740458015267,-10.312977099236642
11.18,-0.007080078125,-0.94580078125,0.326416015625,-7.358778625954199,-1.6488549618320612,-8.83969465648855
11.19,0.0009765625,-0.968505859375,0.305908203125,-5.473282442748092,-1.4274809160305344,-6.824427480916031
