Time(s),AccX,AccY,AccZ,GyrX,GyrY,GyrZ
0.0,0.149658203125,-0.99072265625,0.285400390625,-2.068702290076336,0.6412213740458015,-2.480916030534351
0.1,0.146728515625,-0.97900390625,0.27099609375,0.48091603053435117,3.1603053435114505,-4.66412213740458
0.2,0.121826171875,-0.959716796875,0.269775390625,-0.16793893129770993,5.770992366412214,-7.442748091603053
0.3,0.141845703125,-1.020263671875,0.320556640625,6.862595419847328,-5.6183206106870225,-8.473282442748092
0.4,0.15185546875,-0.92431640625,0.27880859375,5.847328244274809,-3.946564885496183,-4.931297709923665
0.5,0.168701171875,-0.975341796875,0.267822265625,0.9923664122137404,-3.2061068702290076,-1.4961832061068703
0.6,0.183349609375,-0.955810546875,0.281494140625,-2.6030534351145036,4.33587786259542,-1.8702290076335877
0.7,0.137939453125,-0.94921875,0.302734375,-6.732824427480916,13.877862595419847,-5.9541984732824424
0.8,0.066650390625,-0.9990234375,0.279296875,-7.137404580152672,8.435114503816793,-8.541984732824428
0.9,0.055908203125,-1.0029296875,0.2998046875,-3.6030534351145036,7.862595419847328,3.4885496183206106
1.0,0.130615234375,-0.9736328125,0.279296875,-5.847328244274809,7.99236641221374,0.5648854961832062
1.1,0.068115234375,-1.006591796875,0.275146484375,-2.9236641221374047,11.488549618320612,2.236641221374046
1.2,0.054443359375,-0.9755859375,0.2744140625,-2.053435114503817,4.190839694656488,2.2213740458015265
1.3,0.1103515625,-0.97216796875,0.277099609375,-3.435114503816794,-2.564885496183206,-1.4045801526717556
1.4,0.052001953125,-1.044921875,0.2841796875,-6.099236641221374,7.022900763358779,5.6183206106870225
1.5,0.083740234375,-0.983154296875,0.2607421875,-3.801526717557252,2.1603053435114505,9.076335877862595
1.6,0.113525390625,-1.049560546875,0.34228515625,11.931297709923664,-4.297709923664122,5.099236641221374
1.7,0.1123046875,-0.9638671875,0.28515625,14.702290076335878,-14.045801526717558,-6.229007633587786
1.8,0.138671875,-0.987548828125,0.32470703125,5.091603053435114,-0.9236641221374046,-3.6412213740458017
1.9,0.1103515625,-0.93603515625,0.32763671875,-0.5114503816793893,4.343511450381679,-0.7786259541984732
2.0,0.082275390625,-0.98828125,0.288330078125,-1.3435114503816794,-14.641221374045802,0.5648854961832062
2.1,0.125732421875,-0.98974609375,0.33544921875,2.9770992366412212,-2.6717557251908395,0.48854961832061067
2.2,0.0966796875,-0.964111328125,0.319091796875,1.2366412213740459,-3.0381679389312977,2.3587786259541983
2.3,0.091552734375,-0.971923828125,0.33056640625,-0.8931297709923665,-3.2900763358778624,1.7633587786259541
2.4,0.12548828125,-0.9560546875,0.336669921875,-0.03816793893129771,-2.7404580152671754,0.06870229007633588
2.5,0.113525390625,-0.94189453125,0.332275390625,-4.106870229007634,-0.3969465648854962,-2.0763358778625953
2.6,0.080322265625,-0.968994140625,0.352783203125,-4.015267175572519,1.83206106870229,-2.0381679389312977
2.7,0.091796875,-0.966552734375,0.338623046875,-2.3435114503816794,2.5343511450381677,-1.2748091603053435
2.8,0.08203125,-0.9638671875,0.340087890625,-1.8473282442748091,3.3282442748091605,-1.7786259541984732
2.9,0.05859375,-0.9091796875,0.278564453125,-3.900763358778626,1.0687022900763359,-4.8320610687022905
3.0,0.105224609375,-1.007568359375,0.255859375,-25.755725190839694,3.366412213740458,1.6641221374045803
3.1,0.067626953125,-0.964111328125,0.312255859375,-0.6793893129770993,-0.3969465648854962,-2.8091603053435112
3.2,0.09375,-1.006103515625,0.271728515625,-4.076335877862595,-4.450381679389313,0.8320610687022901
3.3,0.09765625,-0.984619140625,0.28369140625,-0.7480916030534351,-5.641221374045801,-1.3969465648854962
3.4,0.09375,-0.97412109375,0.265869140625,-3.8931297709923665,-4.641221374045801,-0.8702290076335878
3.5,0.098876953125,-0.98193359375,0.282958984375,-1.6641221374045803,-2.7557251908396947,-2.6946564885496183
3.6,0.08984375,-0.997314453125,0.267578125,-2.9618320610687023,-3.33587786259542,-1.0763358778625953
3.7,0.08642578125,-0.993408203125,0.266845703125,-0.9465648854961832,-5.183206106870229,-0.8854961832061069
3.8,0.091552734375,-0.99365234375,0.269287109375,0.3893129770992366,-6.977099236641221,1.900763358778626
3.9,0.10791015625,-0.977294921875,0.26904296875,-0.07633587786259542,-7.343511450381679,-0.7938931297709924
4.0,0.095703125,-0.98876953125,0.270751953125,-1.1755725190839694,-5.221374045801527,-0.16030534351145037
4.1,0.086669921875,-0.97998046875,0.26416015625,-2.8931297709923665,-3.83206106870229,0.25190839694656486
4.2,0.123046875,-0.988037109375,0.26220703125,-2.045801526717557,-4.2748091603053435,-1.2061068702290076
4.3,0.114990234375,-0.987060546875,0.260009765625,-0.4732824427480916,-2.648854961832061,-1.7938931297709924
4.4,0.096923828125,-0.988037109375,0.259033203125,-0.9618320610687023,0.022900763358778626,-0.8015267175572519
4.5,0.1064453125,-0.991943359375,0.271728515625,-2.6412213740458017,1.015267175572519,0.4580152671755725
4.6,0.1103515625,-0.985595703125,0.281005859375,-2.7404580152671754,0.7633587786259542,-1.618320610687023
4.7,0.095458984375,-0.975341796875,0.281494140625,-3.0,1.7251908396946565,-1.9541984732824427
4.8,0.1015625,-0.99267578125,0.262939453125,0.2748091603053435,3.6030534351145036,-1.534351145038168
4.9,0.10498046875,-0.986572265625,0.260498046875,-0.5801526717557252,3.6793893129770994,-1.702290076335878
5.0,0.078125,-0.99365234375,0.257080078125,-0.3816793893129771,-0.3816793893129771,-1.9465648854961832
5.1,0.07958984375,-0.977783203125,0.275146484375,-3.2977099236641223,-4.343511450381679,-1.0076335877862594
5.2,0.102783203125,-0.994384765625,0.270263671875,-0.9541984732824428,-2.2595419847328246,-0.8778625954198473
5.3,0.103759765625,-0.987548828125,0.253173828125,-0.40458015267175573,0.7022900763358778,-0.7862595419847328
5.4,0.08935546875,-0.98974609375,0.258056640625,-1.2061068702290076,-0.4122137404580153,-1.3587786259541985
5.5,0.10498046875,-0.989501953125,0.273681640625,-3.213740458015267,-0.5954198473282443,-0.1297709923664122
5.6,0.123779296875,-1.000732421875,0.258056640625,-2.8473282442748094,2.6412213740458017,-1.2290076335877862
5.7,0.09716796875,-0.992919921875,0.260009765625,-0.648854961832061,2.0076335877862594,-1.2213740458015268
5.8,0.10107421875,-0.991455078125,0.2578125,0.549618320610687,1.5725190839694656,-2.0839694656488548
5.9,0.085693359375,-0.99755859375,0.257080078125,-1.083969465648855,1.213740458015267,-2.3587786259541983
6.0,0.0966796875,-0.982177734375,0.249755859375,-1.9083969465648856,0.37404580152671757,-0.9694656488549618
6.1,0.09814453125,-0.98828125,0.254150390625,-0.9770992366412213,-0.1450381679389313,-1.3435114503816794
6.2,0.106201171875,-0.995849609375,0.262451171875,0.29770992366412213,-0.183206106870229,-1.4274809160305344
6.3,0.10791015625,-0.975830078125,0.279296875,-0.48854961832061067,-0.6183206106870229,-0.9694656488549618
6.4,0.101806640625,-0.989501953125,0.261474609375,-1.717557251908397,-0.4961832061068702,-1.3206106870229009
6.5,0.078125,-0.993896484375,0.256103515625,-0.8549618320610687,-0.2595419847328244,-1.6717557251908397
6.6,0.104736328125,-0.986572265625,0.272216796875,0.7938931297709924,-1.1221374045801527,-1.1450381679389312
6.7,0.1005859375,-0.98828125,0.273193359375,0.5267175572519084,-0.7404580152671756,0.08396946564885496
6.8,0.095703125,-0.991943359375,0.27783203125,-0.9847328244274809,-0.06870229007633588,-0.6030534351145038
6.9,0.10107421875,-0.989501953125,0.2783203125,0.32061068702290074,0.2595419847328244,-1.5954198473282444
7.0,0.096923828125,-0.980712890625,0.2734375,0.2595419847328244,-0.1450381679389313,-1.0076335877862594
7.1,0.09228515625,-0.9833984375,0.27294921875,-0.24427480916030533,0.5877862595419847,-0.6259541984732825
7.2,0.09619140625,-0.982666015625,0.29052734375,-0.26717557251908397,0.5572519083969466,-0.7404580152671756
7.3,0.09619140625,-0.984130859375,0.289306640625,-1.3587786259541985,-0.3893129770992366,-1.2213740458015268
7.4,0.096435546875,-0.98779296875,0.2822265625,-1.3511450381679388,-1.2366412213740459,-0.916030534351145
7.5,0.099853515625,-0.984130859375,0.282470703125,-1.5801526717557253,-2.282442748091603,-0.48091603053435117
7.6,0.096923828125,-0.974365234375,0.268798828125,-2.0076335877862594,-1.3969465648854962,-1.1068702290076335
7.7,0.102783203125,-0.985107421875,0.290283203125,-1.0534351145038168,-0.9770992366412213,-1.0534351145038168
7.8,0.094970703125,-0.984130859375,0.275146484375,-0.5267175572519084,-0.8320610687022901,-1.1908396946564885
7.9,0.098388671875,-0.981201171875,0.266357421875,-1.1908396946564885,0.5267175572519084,-0.9847328244274809
8.0,0.093994140625,-0.981201171875,0.26220703125,-1.6717557251908397,0.4961832061068702,-1.282442748091603
8.1,0.094970703125,-0.9892578125,0.266357421875,-1.4045801526717556,0.3511450381679389,-2.015267175572519
8.2,0.100341796875,-0.988525390625,0.269287109375,-1.1984732824427482,1.083969465648855,-1.1297709923664123
8.3,0.107666015625,-0.985595703125,0.27099609375,-1.8244274809160306,0.5267175572519084,-0.8396946564885496
8.4,0.10302734375,-0.982177734375,0.27978515625,-0.5343511450381679,0.35877862595419846,-1.0
8.5,0.103515625,-0.98193359375,0.2734375,-0.32061068702290074,0.9541984732824428,-1.4198473282442747
8.6,0.108642578125,-0.97216796875,0.28369140625,-2.015267175572519,1.213740458015267,-1.4274809160305344
8.7,0.096435546875,-1.00927734375,0.266357421875,-3.0076335877862594,-0.3435114503816794,-1.1297709923664123
8.8,0.08251953125,-0.9814453125,0.272705078125,-0.6030534351145038,-1.015267175572519,-0.9618320610687023
8.9,0.0927734375,-0.99951171875,0.281494140625,-0.061068702290076333,-0.7175572519083969,-1.0458015267175573
9.0,0.097412109375,-0.980712890625,0.277587890625,-0.46564885496183206,-1.3969465648854962,-0.8702290076335878
9.1,0.10302734375,-0.98388671875,0.278076171875,-1.1526717557251909,-0.31297709923664124,-1.1908396946564885
9.2,0.106689453125,-0.995849609375,0.275146484375,-0.816793893129771,0.48854961832061067,-1.3435114503816794
9.3,0.097900390625,-0.99072265625,0.275146484375,-0.9465648854961832,1.0916030534351144,-1.4885496183206106
9.4,0.09619140625,-0.991943359375,0.279296875,-2.1297709923664123,0.0916030534351145,-1.6870229007633588
9.5,0.095703125,-0.992919921875,0.281982421875,-1.1755725190839694,-0.9923664122137404,-1.6412213740458015
9.6,0.10009765625,-0.99462890625,0.2724609375,-0.9236641221374046,-0.7099236641221374,-0.5267175572519084
9.7,0.102783203125,-0.985595703125,0.2705078125,-1.213740458015267,-0.7404580152671756,-0.16793893129770993
9.8,0.10205078125,-0.98486328125,0.263671875,-1.4122137404580153,-0.8625954198473282,-0.3053435114503817
9.9,0.098876953125,-0.995361328125,0.2802734375,-1.8625954198473282,-0.6106870229007634,-0.20610687022900764
10.0,0.097900390625,-0.986083984375,0.278564453125,-1.2900763358778626,0.6793893129770993,-0.8015267175572519
10.1,0.0986328125,-0.985107421875,0.27099609375,-2.030534351145038,1.6717557251908397,-0.3511450381679389
10.2,0.098876953125,-0.989013671875,0.27685546875,-1.5114503816793894,0.9618320610687023,-1.4351145038167938
10.3,0.09423828125,-0.990234375,0.26953125,-1.5038167938931297,0.916030534351145,-2.015267175572519
10.4,0.085205078125,-0.98828125,0.27001953125,-1.9923664122137406,1.0687022900763359,-1.6412213740458015
10.5,0.096923828125,-0.98974609375,0.272705078125,-1.3282442748091603,0.3969465648854962,-1.099236641221374
10.6,0.10107421875,-0.984375,0.267822265625,-1.015267175572519,0.13740458015267176,-0.9923664122137404
10.7,0.093994140625,-0.988037109375,0.251708984375,-1.3206106870229009,0.11450381679389313,-1.0687022900763359
10.8,0.103271484375,-0.991943359375,0.265625,-0.7557251908396947,-0.366412213740458,-0.8244274809160306
10.9,0.1015625,-0.987548828125,0.26220703125,-1.3129770992366412,-0.8244274809160306,-1.1374045801526718
11.0,0.09130859375,-0.997314453125,0.2705078125,-2.1297709923664123,-1.2366412213740459,-1.4122137404580153
11.1,0.09814453125,-0.98388671875,0.26171875,-2.7099236641221376,-1.9923664122137406,-1.1374045801526718
11.2,0.10498046875,-0.981689453125,0.25537109375,-4.587786259541985,-2.404580152671756,-0.9618320610687023
11.3,0.10888671875,-0.990966796875,0.248779296875,-4.862595419847328,-2.8396946564885495,-1.534351145038168
11.4,0.125732421875,-0.98095703125,0.25732421875,-4.137404580152672,-0.7709923664122137,-3.6717557251908395
11.5,0.140380859375,-0.98388671875,0.25244140625,-3.145038167938931,-2.8396946564885495,-6.740458015267175
11.6,0.118896484375,-1.0107421875,0.25341796875,-1.6259541984732824,-1.5801526717557253,-8.65648854961832
11.7,0.154052734375,-1.005859375,0.2421875,0.549618320610687,-3.6030534351145036,-10.045801526717558
11.8,0.139892578125,-1.0,0.24365234375,1.3206106870229009,-0.9007633587786259,-7.595419847328245
11.9,0.14697265625,-0.983642578125,0.260498046875,1.5190839694656488,-0.37404580152671757,-6.404580152671755
12.0,0.15673828125,-0.991943359375,0.252685546875,1.549618320610687,-3.3206106870229006,-7.900763358778626
12.1,0.17578125,-0.99365234375,0.25634765625,2.282442748091603,0.26717557251908397,-5.847328244274809
12.2,0.1826171875,-0.983154296875,0.262939453125,0.7709923664122137,2.5572519083969465,-1.213740458015267
12.3,0.168212890625,-0.9853515625,0.25732421875,1.083969465648855,3.2748091603053435,-1.0076335877862594
12.4,0.150146484375,-0.97998046875,0.26318359375,-0.08396946564885496,4.3893129770992365,0.9541984732824428
12.5,0.142578125,-1.005615234375,0.263427734375,-2.50381679389313,3.49618320610687,5.465648854961832
12.6,0.15234375,-0.97900390625,0.263916015625,-1.7328244274809161,5.847328244274809,3.114503816793893
12.7,0.166259765625,-0.973388671875,0.288330078125,-5.557251908396947,7.7251908396946565,-0.13740458015267176
12.8,0.068603515625,-0.985107421875,0.228271484375,-5.267175572519084,4.6183206106870225,-3.1297709923664123
12.9,0.109130859375,-1.01513671875,0.228271484375,-3.8244274809160306,-4.2748091603053435,-0.9312977099236641
13.0,0.15869140625,-1.02294921875,0.277099609375,-2.053435114503817,1.366412213740458,6.450381679389313
13.1,0.0703125,-0.982421875,0.271240234375,4.0534351145038165,3.4656488549618323,14.641221374045802
13.2,0.139404296875,-0.9931640625,0.29296875,-4.198473282442748,-1.0076335877862594,3.6030534351145036
13.3,0.102783203125,-0.989990234375,0.27197265625,-2.1908396946564888,0.26717557251908397,1.9770992366412214
13.4,0.1171875,-1.00634765625,0.268310546875,0.9236641221374046,-10.206106870229007,1.633587786259542
13.5,0.10205078125,-0.97900390625,0.25439453125,3.5419847328244276,-1.4045801526717556,5.190839694656488
13.6,0.1357421875,-1.0146484375,0.291015625,1.4122137404580153,-5.488549618320611,-1.900763358778626
13.7,0.079833984375,-0.92431640625,0.254638671875,24.068702290076335,-11.854961832061068,-12.717557251908397
13.8,0.138427734375,-0.98583984375,0.377685546875,12.740458015267176,5.694656488549619,-6.885496183206107
13.9,0.095458984375,-0.935546875,0.31298828125,-6.358778625954199,11.404580152671755,-2.687022900763359
14.0,0.1240234375,-1.013916015625,0.321044921875,2.0916030534351147,10.122137404580153,0.4122137404580153
14.1,0.162353515625,-0.9677734375,0.318359375,-0.11450381679389313,18.16030534351145,-2.2213740458015265
14.2,0.09912109375,-0.966796875,0.33837890625,-3.549618320610687,16.82442748091603,-4.091603053435114
14.3,0.09521484375,-0.9580078125,0.32470703125,-4.717557251908397,13.793893129770993,-2.83206106870229
14.4,0.118408203125,-0.977294921875,0.315185546875,-4.244274809160306,10.32824427480916,-4.969465648854962
14.5,0.070068359375,-0.951904296875,0.315673828125,-5.251908396946565,6.0458015267175576,-6.580152671755725
14.6,0.093017578125,-1.0458984375,0.389404296875,-18.984732824427482,1.1755725190839694,4.374045801526718
14.7,0.123779296875,-0.9755859375,0.311279296875,-6.343511450381679,-2.618320610687023,2.7709923664122136
14.8,0.0771484375,-0.96826171875,0.282958984375,0.20610687022900764,-6.633587786259542,1.6717557251908397
14.9,0.07861328125,-0.98779296875,0.283935546875,-0.12213740458015267,-10.473282442748092,1.4351145038167938
15.0,0.095703125,-0.974365234375,0.296630859375,0.6030534351145038,-10.351145038167939,2.717557251908397
15.1,0.07861328125,-0.984375,0.287841796875,-1.0,-9.854961832061068,1.7099236641221374
15.2,0.10986328125,-0.98681640625,0.2890625,-0.6793893129770993,-6.854961832061068,0.6030534351145038
15.3,0.095703125,-0.983642578125,0.29638671875,-0.6564885496183206,-5.534351145038168,0.2595419847328244
15.4,0.101318359375,-0.978759765625,0.28857421875,-0.648854961832061,-3.4122137404580153,-0.3435114503816794
15.5,0.10693359375,-0.987060546875,0.30126953125,-1.183206106870229,-1.0458015267175573,-0.9923664122137404
15.6,0.091552734375,-0.97607421875,0.30224609375,-0.8015267175572519,0.24427480916030533,-0.9007633587786259
15.7,0.08203125,-0.97607421875,0.298095703125,-2.984732824427481,2.236641221374046,-0.33587786259541985
15.8,0.089111328125,-0.979248046875,0.306884765625,-2.213740458015267,4.862595419847328,-1.465648854961832
15.9,0.0908203125,-0.976318359375,0.288818359375,-1.5267175572519085,4.969465648854962,-2.5343511450381677
16.0,0.07568359375,-0.98095703125,0.27734375,-1.7786259541984732,3.519083969465649,-3.267175572519084
16.1,0.085205078125,-0.999267578125,0.276123046875,-3.687022900763359,1.7786259541984732,-2.2748091603053435
16.2,0.068115234375,-0.979248046875,0.279052734375,-1.6030534351145038,1.3511450381679388,-2.0229007633587788
16.3,0.08056640625,-0.988525390625,0.294921875,-0.4351145038167939,-0.6030534351145038,-0.35877862595419846
16.4,0.084228515625,-0.98876953125,0.2900390625,-0.648854961832061,-2.8396946564885495,0.29770992366412213
16.5,0.10888671875,-0.99169921875,0.28857421875,1.1450381679389312,-3.4122137404580153,-0.816793893129771
16.6,0.08984375,-0.97705078125,0.30224609375,0.0916030534351145,-2.6717557251908395,-0.4580152671755725
16.7,0.093994140625,-0.993408203125,0.2890625,-2.16793893129771,-2.045801526717557,-0.2595419847328244
16.8,0.120849609375,-0.974609375,0.28662109375,0.9389312977099237,0.8244274809160306,-1.1297709923664123
16.9,0.083251953125,-0.975341796875,0.290283203125,0.6564885496183206,0.5343511450381679,-2.0763358778625953
17.0,0.087890625,-0.982421875,0.30322265625,-0.6259541984732825,1.6106870229007633,-2.2977099236641223
17.1,0.076904296875,-0.983154296875,0.300048828125,-1.8244274809160306,1.3206106870229009,-2.0763358778625953
17.2,0.085693359375,-0.97607421875,0.304443359375,-0.9236641221374046,1.3435114503816794,-1.6870229007633588
17.3,0.083984375,-0.979248046875,0.30126953125,-0.9923664122137404,1.2366412213740459,-1.1450381679389312
17.4,0.0859375,-0.97998046875,0.29150390625,0.09923664122137404,0.32061068702290074,-1.0458015267175573
17.5,0.093505859375,-0.98095703125,0.299560546875,-1.2061068702290076,-0.31297709923664124,-0.8473282442748091
17.6,0.08447265625,-0.98828125,0.290771484375,-1.282442748091603,-0.4122137404580153,-1.099236641221374
17.7,0.082763671875,-0.982177734375,0.296630859375,-2.053435114503817,-1.0229007633587786,-0.8702290076335878
17.8,0.08056640625,-0.97314453125,0.28515625,-1.0610687022900764,-1.213740458015267,-0.9694656488549618
17.9,0.08447265625,-0.978271484375,0.3017578125,-0.6717557251908397,-0.8473282442748091,-0.7786259541984732
18.0,0.106689453125,-0.99609375,0.304931640625,-0.22900763358778625,-0.42748091603053434,-1.083969465648855
18.1,0.08642578125,-0.990478515625,0.2939453125,-1.0,0.3053435114503817,-1.3893129770992367
18.2,0.086181640625,-0.954345703125,0.292724609375,-2.2519083969465647,1.1374045801526718,-0.8320610687022901
18.3,0.092041015625,-0.982666015625,0.305419921875,-2.9389312977099236,0.3816793893129771,-1.282442748091603
18.4,0.08642578125,-0.982666015625,0.30029296875,-2.114503816793893,1.099236641221374,-1.702290076335878
18.5,0.085693359375,-0.98974609375,0.303466796875,-0.44274809160305345,1.4198473282442747,-2.122137404580153
18.6,0.077880859375,-0.9912109375,0.295166015625,-0.5877862595419847,0.8015267175572519,-1.3358778625954197
18.7,0.08544921875,-0.9775390625,0.284912109375,-0.9312977099236641,-0.7099236641221374,-0.916030534351145
18.8,0.0888671875,-0.986572265625,0.2939453125,-0.9083969465648855,-0.8015267175572519,-1.0076335877862594
18.9,0.086669921875,-0.995361328125,0.29931640625,-1.3969465648854962,-1.2671755725190839,-0.9923664122137404
19.0,0.090576171875,-0.984130859375,0.302734375,-1.0458015267175573,-1.4122137404580153,-1.0610687022900764
19.1,0.090576171875,-0.969970703125,0.28173828125,-0.8320610687022901,-1.0610687022900764,-1.1145038167938932
19.2,0.097900390625,-0.98046875,0.303466796875,-0.9618320610687023,-0.1450381679389313,-1.1450381679389312
19.3,0.087890625,-0.984130859375,0.295166015625,-0.3969465648854962,-0.1450381679389313,-1.4427480916030535
19.4,0.08544921875,-0.984130859375,0.304443359375,0.0,0.26717557251908397,-1.4580152671755726
19.5,0.0908203125,-0.9775390625,0.298583984375,-0.7938931297709924,0.4122137404580153,-1.282442748091603
19.6,0.08447265625,-0.976318359375,0.297607421875,-0.7022900763358778,0.31297709923664124,-1.083969465648855
19.7,0.09033203125,-0.97705078125,0.300048828125,-1.1450381679389312,-0.0916030534351145,-1.1221374045801527
19.8,0.092041015625,-0.98388671875,0.301025390625,-0.9465648854961832,-0.3893129770992366,-1.0076335877862594
19.9,0.097412109375,-0.97705078125,0.309326171875,-0.7862595419847328,-0.04580152671755725,-1.0534351145038168
20.0,0.106201171875,-0.983154296875,0.30419921875,-0.7786259541984732,-0.25190839694656486,-1.1145038167938932
20.1,0.092041015625,-0.97998046875,0.29931640625,-0.8625954198473282,0.21374045801526717,-1.3282442748091603
20.2,0.089111328125,-0.988037109375,0.307861328125,-1.4885496183206106,0.3053435114503817,-1.1068702290076335
20.3,0.084228515625,-0.98681640625,0.306884765625,-0.732824427480916,0.2824427480916031,-1.1984732824427482
20.4,0.0849609375,-0.982177734375,0.301513671875,-1.0610687022900764,0.33587786259541985,-0.8931297709923665
20.5,0.092041015625,-0.984375,0.30810546875,-1.0305343511450382,0.1450381679389313,-0.8244274809160306
20.6,0.0830078125,-0.975830078125,0.30224609375,-1.6488549618320612,-0.12213740458015267,-1.0610687022900764
20.7,0.0927734375,-0.984375,0.297119140625,-1.366412213740458,-0.3969465648854962,-1.2595419847328244
20.8,0.085205078125,-0.98876953125,0.2939453125,-0.6793893129770993,-0.061068702290076333,-1.0610687022900764
20.9,0.089111328125,-0.974609375,0.300048828125,-0.7404580152671756,0.030534351145038167,-1.083969465648855
21.0,0.087646484375,-0.984375,0.29736328125,-1.2900763358778626,0.31297709923664124,-1.4198473282442747
21.1,0.086181640625,-0.9794921875,0.29541015625,-1.5648854961832062,0.09923664122137404,-1.0229007633587786
21.2,0.07763671875,-0.979736328125,0.305419921875,-1.3129770992366412,-0.25190839694656486,-1.1145038167938932
21.3,0.089599609375,-0.98095703125,0.29296875,-1.2671755725190839,-0.22900763358778625,-0.9541984732824428
21.4,0.083740234375,-0.982177734375,0.306396484375,-1.3358778625954197,-0.42748091603053434,-1.3129770992366412
21.5,0.08642578125,-0.98193359375,0.287353515625,-1.4961832061068703,-0.3969465648854962,-1.1603053435114503
21.6,0.085693359375,-0.984130859375,0.30859375,-1.6870229007633588,-0.2748091603053435,-1.099236641221374
21.7,0.083740234375,-0.983642578125,0.29833984375,-1.7328244274809161,-0.3816793893129771,-1.1297709923664123
21.8,0.084716796875,-0.982177734375,0.301025390625,-1.5725190839694656,-0.31297709923664124,-1.183206106870229
21.9,0.078369140625,-0.976806640625,0.28857421875,-1.4351145038167938,-2.114503816793893,-0.3893129770992366
22.0,0.08447265625,-0.977294921875,0.295654296875,-1.366412213740458,-2.7251908396946565,-0.06870229007633588
22.1,0.09521484375,-0.988525390625,0.299560546875,-3.5343511450381677,-1.8549618320610688,-1.1450381679389312
22.2,0.099853515625,-0.966796875,0.2734375,2.1755725190839694,-1.7328244274809161,-0.1297709923664122
22.3,0.1064453125,-0.97412109375,0.282470703125,0.549618320610687,1.1984732824427482,-2.816793893129771
22.4,0.079345703125,-0.974365234375,0.3056640625,-1.1984732824427482,3.5114503816793894,-3.045801526717557
22.5,0.0478515625,-1.00927734375,0.311767578125,0.6335877862595419,-4.32824427480916,-0.3816793893129771
22.6,0.113525390625,-0.944580078125,0.283447265625,2.435114503816794,-1.3129770992366412,0.7099236641221374
22.7,0.11474609375,-0.9755859375,0.295166015625,-1.015267175572519,14.84732824427481,-2.8625954198473282
22.8,0.055419921875,-0.995361328125,0.322509765625,-1.0610687022900764,11.534351145038167,-3.8244274809160306
22.9,0.068603515625,-0.998291015625,0.308837890625,-0.030534351145038167,3.1603053435114505,-2.564885496183206
23.0,0.06640625,-0.980224609375,0.31201171875,-1.1984732824427482,-4.6183206106870225,-0.22900763358778625
23.1,0.069580078125,-0.9755859375,0.296630859375,-0.5648854961832062,-5.755725190839694,-1.0687022900763359
23.2,0.08349609375,-0.970947265625,0.324951171875,-2.045801526717557,-3.4580152671755724,0.33587786259541985
23.3,0.088623046875,-0.978515625,0.319091796875,-1.0763358778625953,-2.633587786259542,-0.7404580152671756
23.4,0.07421875,-0.985107421875,0.28759765625,0.04580152671755725,-6.6106870229007635,-1.0687022900763359
23.5,0.1005859375,-0.977783203125,0.30322265625,-1.4427480916030535,-7.099236641221374,-2.572519083969466
23.6,0.129150390625,-0.9873046875,0.322021484375,8.32824427480916,-4.862595419847328,-4.977099236641221
23.7,0.115478515625,-0.959228515625,0.325439453125,0.9465648854961832,0.3435114503816794,-2.183206106870229
23.8,0.027587890625,-1.1962890625,0.521484375,23.763358778625953,-10.099236641221374,-8.122137404580153
23.9,0.38525390625,-0.963134765625,0.063232421875,-58.87022900763359,25.458015267175572,22.900763358778626
24.0,0.070556640625,-0.885498046875,0.1845703125,4.938931297709924,0.9007633587786259,-1.5877862595419847
24.1,-0.046142578125,-0.970458984375,0.305908203125,16.984732824427482,-6.282442748091603,-5.396946564885496
24.2,0.09130859375,-0.9619140625,0.292724609375,-23.15267175572519,1.9694656488549618,-1.1755725190839694
24.3,0.0390625,-0.9716796875,0.3154296875,-9.961832061068701,8.801526717557252,-5.2748091603053435
24.4,0.03955078125,-1.0,0.33935546875,-7.0,6.282442748091603,-2.282442748091603
24.5,0.04931640625,-1.021484375,0.325439453125,9.908396946564885,-10.305343511450381,-5.419847328244275
24.6,0.10498046875,-0.9541015625,0.277099609375,4.931297709923665,-6.1679389312977095,-0.6641221374045801
24.7,0.12158203125,-0.990966796875,0.326171875,0.007633587786259542,-3.8396946564885495,-2.687022900763359
24.8,0.098876953125,-0.9599609375,0.285888671875,-2.114503816793893,-0.6870229007633588,-0.5114503816793893
24.9,0.098876953125,-0.98046875,0.295166015625,-7.549618320610687,1.16793893129771,1.8931297709923665
25.0,0.11474609375,-0.98583984375,0.27587890625,-5.8396946564885495,2.0229007633587788,2.877862595419847
25.1,0.003173828125,-1.040771484375,0.353515625,-5.083969465648855,-7.412213740458015,0.16793893129770993
25.2,0.169921875,-0.968505859375,0.25146484375,-3.564885496183206,-0.5419847328244275,-0.5572519083969466
25.3,0.106689453125,-1.05908203125,0.280029296875,0.05343511450381679,2.2442748091603053,-1.717557251908397
25.4,0.139404296875,-0.9482421875,0.222412109375,1.6946564885496183,-0.09923664122137404,-2.5114503816793894
25.5,0.119140625,-1.019287109375,0.157470703125,11.251908396946565,10.778625954198473,1.282442748091603
25.6,0.148681640625,-0.96435546875,0.180419921875,13.251908396946565,17.732824427480917,0.08396946564885496
25.7,0.1962890625,-0.97509765625,0.16259765625,5.061068702290076,19.984732824427482,-4.824427480916031
25.8,0.03076171875,-1.03857421875,0.4150390625,-9.083969465648854,-7.145038167938932,-27.9618320610687
25.9,0.00732421875,-1.098388671875,0.4580078125,-16.587786259541986,-1.1297709923664123,-1.5801526717557253
26.0,0.03662109375,-0.861572265625,0.4365234375,-4.984732824427481,-20.198473282442748,-5.6106870229007635
26.1,0.091552734375,-1.00244140625,0.322265625,-22.549618320610687,-16.595419847328245,14.320610687022901
26.2,0.061279296875,-0.998046875,0.27490234375,8.625954198473282,-18.15267175572519,2.381679389312977
26.3,0.077880859375,-0.977294921875,0.258056640625,6.931297709923665,-9.725190839694656,0.46564885496183206
26.4,0.051025390625,-0.896240234375,0.157958984375,21.114503816793892,-15.083969465648854,-12.549618320610687
26.5,0.052490234375,-1.03564453125,0.24658203125,7.816793893129771,-13.396946564885496,-5.793893129770993
26.6,0.16943359375,-1.093994140625,0.361328125,-29.061068702290076,0.6106870229007634,30.358778625954198
26.7,-0.042724609375,-0.966064453125,0.453369140625,-18.755725190839694,5.190839694656488,9.900763358778626
26.8,0.218505859375,-1.0029296875,0.34521484375,-0.2748091603053435,26.82442748091603,14.725190839694656
26.9,0.105224609375,-0.946533203125,0.29443359375,7.702290076335878,14.900763358778626,-18.206106870229007
27.0,0.08544921875,-0.973876953125,0.310302734375,5.587786259541985,15.0,-0.8015267175572519
27.1,0.0498046875,-0.96142578125,0.17236328125,31.755725190839694,6.603053435114504,-0.3969465648854962
27.2,0.11376953125,-0.956787109375,0.208251953125,5.8320610687022905,17.374045801526716,4.938931297709924
27.3,0.134521484375,-0.970947265625,0.103759765625,-8.541984732824428,14.038167938931299,-10.412213740458014
27.4,0.169189453125,-0.944091796875,0.349853515625,-14.335877862595419,-26.625954198473284,-12.282442748091603
27.5,-0.064453125,-0.843505859375,0.488525390625,-1.4351145038167938,-30.236641221374047,-13.83206106870229
27.6,0.033935546875,-0.91650390625,0.319091796875,-7.709923664122138,-21.793893129770993,20.6793893129771
27.7,0.09228515625,-0.982421875,0.279541015625,0.07633587786259542,-28.19083969465649,-1.2290076335877862
27.8,0.07421875,-0.923583984375,0.21484375,12.870229007633588,-6.702290076335878,-2.015267175572519
27.9,0.072509765625,-0.983642578125,0.19091796875,21.938931297709924,-15.84732824427481,-19.297709923664122
28.0,-0.023681640625,-1.034912109375,0.16064453125,3.5343511450381677,-11.84732824427481,5.66412213740458
28.1,0.239013671875,-1.187744140625,0.60009765625,-44.458015267175576,21.12213740458015,46.02290076335878
28.2,0.221923828125,-0.899658203125,0.46728515625,-13.511450381679388,-13.068702290076336,27.786259541984734
28.3,0.204345703125,-1.005859375,0.41552734375,-3.3740458015267176,12.687022900763358,-15.854961832061068
28.4,-0.04736328125,-0.943603515625,0.240966796875,13.709923664122137,7.0534351145038165,-14.534351145038167
28.5,0.077392578125,-0.944580078125,0.1591796875,19.770992366412212,-3.16793893129771,5.877862595419847
28.6,0.19482421875,-1.003173828125,0.284912109375,4.893129770992366,10.541984732824428,7.5038167938931295
28.7,-0.0009765625,-0.96728515625,0.18310546875,-14.099236641221374,3.549618320610687,-18.9618320610687
28.8,0.29345703125,-0.92431640625,0.3916015625,-14.801526717557252,-21.908396946564885,-4.816793893129771
28.9,-0.0400390625,-0.903564453125,0.41162109375,-2.786259541984733,-26.862595419847327,-19.236641221374047
29.0,0.0712890625,-1.00732421875,0.363037109375,-3.8396946564885495,-16.671755725190838,14.50381679389313
29.1,0.06787109375,-0.898193359375,0.305419921875,16.00763358778626,-13.267175572519085,4.198473282442748
29.2,0.060302734375,-0.916748046875,0.23828125,13.977099236641221,-6.5038167938931295,-3.717557251908397
29.3,0.079833984375,-0.93701171875,0.232421875,6.549618320610687,-12.992366412213741,-5.755725190839694
29.4,-0.091552734375,-1.083251953125,0.164306640625,-6.152671755725191,-35.595419847328245,12.83969465648855
29.5,0.0,-0.99267578125,0.56396484375,-34.51908396946565,15.83969465648855,33.93893129770992
29.6,0.3115234375,-0.958984375,0.307861328125,-1.8396946564885497,6.396946564885496,13.045801526717558
29.7,0.09521484375,-0.947998046875,0.341552734375,-5.435114503816794,15.076335877862595,-19.061068702290076
29.8,0.078369140625,-0.9541015625,0.180419921875,9.145038167938932,12.045801526717558,-2.900763358778626
29.9,0.10400390625,-0.916015625,0.132568359375,35.908396946564885,16.458015267175572,12.916030534351146
30.0,0.18896484375,-1.027099609375,0.268310546875,5.633587786259542,11.129770992366412,-17.33587786259542
30.1,-0.17236328125,-0.970458984375,0.386962890625,-41.99236641221374,-13.541984732824428,-45.3587786259542
30.2,0.352783203125,-1.0146484375,0.366455078125,-26.763358778625953,-0.17557251908396945,-2.183206106870229
30.3,-0.0439453125,-0.994140625,0.251220703125,9.038167938931299,-29.610687022900763,-4.480916030534351
30.4,0.1015625,-0.97314453125,0.230224609375,3.633587786259542,-8.351145038167939,18.328244274809162
30.5,0.089111328125,-0.942138671875,0.1875,7.572519083969466,-3.4885496183206106,-6.1603053435114505
30.6,0.028076171875,-0.912353515625,0.1669921875,38.69465648854962,-12.305343511450381,-14.98473282442748
30.7,0.1259765625,-1.017822265625,0.240234375,-14.694656488549619,-0.35877862595419846,-3.2977099236641223
30.8,0.210693359375,-1.09619140625,0.31201171875,-65.45801526717557,16.206106870229007,40.961832061068705
30.9,0.169677734375,-0.891845703125,0.515625,-19.717557251908396,0.9389312977099237,23.34351145038168
31.0,0.128173828125,-1.029541015625,0.275634765625,-20.83969465648855,32.99236641221374,-6.465648854961832
31.1,0.059814453125,-0.990478515625,0.2255859375,17.34351145038168,39.32824427480916,-9.48091603053435
31.2,-0.001953125,-0.91162109375,0.198974609375,20.045801526717558,16.633587786259543,-7.8396946564885495
31.3,0.0703125,-0.8095703125,0.1015625,22.244274809160306,33.656488549618324,6.870229007633588
31.4,0.17431640625,-1.036865234375,0.18212890625,28.83206106870229,28.870229007633586,-17.328244274809162
31.5,-0.025146484375,-1.467041015625,0.606201171875,-42.45038167938932,-14.0,-51.93129770992366
31.6,-0.047607421875,-0.879638671875,0.540771484375,-18.16030534351145,12.16030534351145,-20.595419847328245
31.7,0.079345703125,-0.85693359375,0.264404296875,-2.3740458015267176,13.702290076335878,3.015267175572519
31.8,0.15283203125,-0.993896484375,0.16845703125,-11.618320610687023,12.977099236641221,0.44274809160305345
31.9,0.067626953125,-0.94677734375,0.236328125,20.27480916030534,23.69465648854962,-12.419847328244275
32.0,0.077880859375,-1.00927734375,0.161376953125,26.557251908396946,9.473282442748092,-23.99236641221374
32.1,-0.120849609375,-0.9951171875,0.113037109375,-3.435114503816794,15.557251908396946,-2.4198473282442747
32.2,0.1923828125,-1.2373046875,0.588134765625,-37.36641221374046,46.37404580152672,34.541984732824424
32.3,0.242919921875,-0.7890625,0.453125,-13.763358778625955,25.557251908396946,15.541984732824428
32.4,0.1552734375,-1.04443359375,0.434814453125,0.3969465648854962,39.57251908396947,-9.893129770992367
32.5,0.10888671875,-0.9560546875,0.230712890625,-3.6793893129770994,43.786259541984734,-14.83969465648855
32.6,0.072021484375,-0.935546875,0.183837890625,18.946564885496183,33.229007633587784,3.3740458015267176
32.7,0.1083984375,-0.870361328125,0.14599609375,21.99236641221374,32.152671755725194,1.9083969465648856
32.8,0.116455078125,-1.06396484375,0.19091796875,1.1908396946564885,28.85496183206107,-9.687022900763358
32.9,-0.084228515625,-1.18359375,0.537353515625,-24.83969465648855,-5.206106870229007,-60.87022900763359
33.0,0.045166015625,-0.99365234375,0.54150390625,-12.98473282442748,16.404580152671755,-20.442748091603054
33.1,0.087646484375,-0.94775390625,0.280517578125,-4.801526717557252,14.419847328244275,-0.2824427480916031
33.2,0.084716796875,-0.9169921875,0.18115234375,3.687022900763359,12.34351145038168,4.7251908396946565
33.3,0.054443359375,-0.95947265625,0.183837890625,20.564885496183205,15.65648854961832,-5.786259541984733
33.4,0.044189453125,-0.97412109375,0.114013671875,11.870229007633588,-8.732824427480915,-10.83969465648855
33.5,-0.038330078125,-1.028076171875,0.146240234375,-6.938931297709924,0.4198473282442748,-0.007633587786259542
33.6,-0.0380859375,-1.20166015625,0.4267578125,-17.64885496183206,46.58015267175573,22.85496183206107
33.7,0.2861328125,-0.834716796875,0.46630859375,-2.404580152671756,37.6412213740458,21.900763358778626
33.8,0.096435546875,-1.04052734375,0.41455078125,-1.0305343511450382,36.6793893129771,-14.65648854961832
33.9,-0.005615234375,-0.963134765625,0.236572265625,-4.061068702290076,19.18320610687023,-7.435114503816794
34.0,0.03564453125,-0.95849609375,0.211669921875,23.580152671755727,12.404580152671755,2.267175572519084
34.1,0.0888671875,-1.009765625,0.15673828125,11.709923664122137,14.053435114503817,7.175572519083969
34.2,0.0009765625,-0.901611328125,0.356689453125,-11.549618320610687,-4.190839694656488,-10.603053435114504
34.3,0.16845703125,-0.99462890625,0.55908203125,10.82442748091603,0.7862595419847328,-12.549618320610687
34.4,-0.12841796875,-0.948974609375,0.291015625,0.6412213740458015,-22.80916030534351,-11.694656488549619
34.5,0.03662109375,-0.979248046875,0.32958984375,3.549618320610687,-0.6564885496183206,16.625954198473284
34.6,0.049560546875,-0.94189453125,0.289306640625,0.21374045801526717,5.022900763358779,0.08396946564885496
34.7,0.03564453125,-0.92041015625,0.233642578125,14.709923664122137,-10.450381679389313,-2.6259541984732824
34.8,0.011962890625,-0.9462890625,0.281494140625,5.473282442748092,-14.236641221374045,-15.312977099236642
34.9,0.05078125,-0.783203125,0.550048828125,-57.7557251908397,14.290076335877863,25.076335877862597
35.0,0.171630859375,-1.12548828125,0.405517578125,-28.17557251908397,12.50381679389313,18.603053435114504
35.1,0.081298828125,-0.956787109375,0.51904296875,4.404580152671755,-5.633587786259542,-19.954198473282442
35.2,0.024658203125,-0.83642578125,0.344482421875,-3.854961832061069,9.526717557251908,4.1603053435114505
35.3,0.036376953125,-0.994140625,0.34130859375,-3.0839694656488548,-2.5572519083969465,-2.4427480916030535
35.4,0.097412109375,-0.9580078125,0.31298828125,6.305343511450381,2.183206106870229,-5.824427480916031
35.5,0.02197265625,-0.953369140625,0.2880859375,1.099236641221374,0.5267175572519084,-0.37404580152671757
35.6,0.07177734375,-0.988037109375,0.321044921875,3.145038167938931,2.7022900763358777,-1.16793893129771
35.7,0.04052734375,-0.95849609375,0.30029296875,-2.114503816793893,2.7938931297709924,-1.7938931297709924
35.8,0.052734375,-0.972412109375,0.298828125,-1.0305343511450382,-1.3893129770992367,-1.465648854961832
35.9,0.048095703125,-1.002197265625,0.3056640625,0.07633587786259542,0.8320610687022901,-0.8625954198473282
36.0,0.03857421875,-0.986328125,0.3125,-1.5267175572519085,0.05343511450381679,-1.6870229007633588
36.1,0.058837890625,-0.98095703125,0.287353515625,-2.33587786259542,2.435114503816794,-3.1603053435114505
36.2,0.0380859375,-1.00732421875,0.310302734375,-0.7633587786259542,2.564885496183206,-1.3893129770992367
36.3,0.0400390625,-0.979248046875,0.298583984375,-1.0229007633587786,-0.5343511450381679,-1.717557251908397
36.4,0.055419921875,-0.984130859375,0.287109375,-0.3816793893129771,1.183206106870229,-2.0076335877862594
36.5,0.04541015625,-0.987060546875,0.300048828125,-0.6870229007633588,1.5114503816793894,-0.8396946564885496
36.6,0.054443359375,-0.978271484375,0.2822265625,-0.48091603053435117,0.7633587786259542,-0.6412213740458015
36.7,0.050537109375,-0.978271484375,0.3017578125,-1.3511450381679388,-1.3587786259541985,-1.5877862595419847
36.8,0.062255859375,-0.98876953125,0.308837890625,-0.916030534351145,0.6641221374045801,-1.8778625954198473
36.9,0.037353515625,-0.97314453125,0.31005859375,-2.2900763358778624,0.8015267175572519,-1.9541984732824427
37.0,0.053955078125,-0.986328125,0.30810546875,-2.2213740458015265,-2.4885496183206106,-1.6030534351145038
37.1,0.075927734375,-0.982177734375,0.30126953125,0.26717557251908397,-0.015267175572519083,-2.4427480916030535
37.2,0.052734375,-0.974365234375,0.30078125,-1.0305343511450382,0.48854961832061067,-0.8473282442748091
37.3,0.051513671875,-0.990966796875,0.298583984375,-0.015267175572519083,0.5114503816793893,-2.015267175572519
37.4,0.05859375,-0.9814453125,0.2880859375,-1.0687022900763359,-0.1984732824427481,-1.2442748091603053
37.5,0.06787109375,-0.97705078125,0.29150390625,0.8549618320610687,1.0916030534351144,-0.09923664122137404
37.6,0.031005859375,-0.9677734375,0.307861328125,-1.6106870229007633,1.5725190839694656,-3.33587786259542
37.7,0.06982421875,-0.943359375,0.25927734375,-5.358778625954199,-4.290076335877862,0.5877862595419847
37.8,0.147705078125,-1.012451171875,0.305419921875,-7.2748091603053435,12.0,-0.4732824427480916
37.9,-0.03125,-0.844482421875,0.368896484375,-13.84732824427481,2.7404580152671754,-1.3206106870229009
38.0,0.04833984375,-1.23193359375,0.419189453125,-21.389312977099237,11.091603053435115,2.3587786259541983
38.1,0.07275390625,-0.85791015625,0.327880859375,-18.51145038167939,-5.770992366412214,-9.305343511450381
38.2,0.132080078125,-0.99267578125,0.380859375,3.2900763358778624,13.442748091603054,-3.7251908396946565
38.3,0.10302734375,-1.06982421875,0.249755859375,-2.404580152671756,31.65648854961832,-23.46564885496183
38.4,0.050048828125,-0.971435546875,0.093017578125,13.969465648854962,25.862595419847327,-7.603053435114504
38.5,0.01806640625,-1.09521484375,0.135009765625,-14.022900763358779,9.954198473282442,10.534351145038167
38.6,0.0283203125,-0.98388671875,0.171142578125,0.06870229007633588,9.854961832061068,-0.5877862595419847
38.7,0.089111328125,-1.069091796875,0.143310546875,-0.2595419847328244,9.297709923664122,2.1908396946564888
38.8,-0.0361328125,-0.959716796875,0.208984375,8.595419847328245,1.6641221374045803,-1.6259541984732824
38.9,-0.005615234375,-0.99853515625,0.219970703125,-8.83969465648855,-11.946564885496183,-6.374045801526718
39.0,-0.01953125,-1.022216796875,0.2451171875,3.4427480916030535,-16.16030534351145,-7.519083969465649
39.1,-0.01123046875,-0.96728515625,0.274169921875,4.190839694656488,-23.053435114503817,-1.9465648854961832
39.2,0.017333984375,-1.023193359375,0.294677734375,1.5114503816793894,-28.358778625954198,7.4961832061068705
39.3,0.12158203125,-0.94091796875,0.252197265625,1.4580152671755726,-25.946564885496183,14.305343511450381
