Time(s),AccX,AccY,AccZ,GyrX,GyrY,GyrZ
0.0,0.066162109375,-1.00048828125,0.04248046875,-0.20610687022900764,-0.09923664122137404,-1.4122137404580153
0.01,0.068359375,-0.99853515625,0.0263671875,-0.5343511450381679,-0.05343511450381679,-1.4274809160305344
0.02,0.0693359375,-1.002197265625,0.0185546875,-0.9236641221374046,0.08396946564885496,-1.3435114503816794
0.03,0.071533203125,-1.0009765625,0.001220703125,-0.46564885496183206,0.10687022900763359,-1.3435114503816794
0.04,0.070556640625,-1.002197265625,0.02392578125,-0.12213740458015267,-0.12213740458015267,-1.3053435114503817
0.05,0.066162109375,-0.9990234375,0.02099609375,0.08396946564885496,1.8473282442748091,-1.5190839694656488
0.06,0.0703125,-1.00244140625,0.031005859375,-0.15267175572519084,0.17557251908396945,-1.3969465648854962
0.07,0.063720703125,-1.001708984375,0.02978515625,-0.7022900763358778,-0.06870229007633588,-1.2290076335877862
0.08,0.071044921875,-0.98583984375,0.017822265625,-0.9389312977099237,1.9389312977099236,-1.465648854961832
0.09,0.06884765625,-1.010009765625,0.0224609375,-0.6564885496183206,1.9312977099236641,-1.4809160305343512
0.1,0.071044921875,-1.004638671875,0.020263671875,-0.2824427480916031,0.015267175572519083,-1.3587786259541985
0.11,0.070068359375,-1.0,0.029541015625,0.061068702290076333,-0.08396946564885496,-1.3435114503816794
0.12,0.06787109375,-1.00048828125,0.032470703125,-0.2748091603053435,-0.09923664122137404,-1.3358778625954197
0.13,0.076904296875,-0.99658203125,0.033935546875,-0.7862595419847328,0.007633587786259542,-1.4580152671755726
0.14,0.07373046875,-1.00439453125,0.019775390625,-0.9007633587786259,-0.022900763358778626,-1.3511450381679388
0.15,0.072021484375,-0.998291015625,0.0283203125,-0.5648854961832062,-0.022900763358778626,-1.4732824427480915
0.16,0.06884765625,-1.00439453125,0.02685546875,-0.2595419847328244,-0.21374045801526717,-1.4045801526717556
0.17,0.059326171875,-1.0,0.021240234375,-0.10687022900763359,-0.10687022900763359,-1.3587786259541985
0.18,0.070068359375,-1.002197265625,0.033447265625,-0.1984732824427481,0.3053435114503817,-1.2900763358778626
0.19,0.0634765625,-1.006591796875,0.03515625,-0.7557251908396947,0.6641221374045801,-0.9541984732824428
0.2,0.078857421875,-0.99072265625,0.03662109375,-5.740458015267175,-0.21374045801526717,-1.16793893129771
0.21,0.072509765625,-1.00390625,0.01904296875,-2.6106870229007635,-0.007633587786259542,-1.1526717557251909
0.22,0.064453125,-1.01318359375,0.003662109375,-1.099236641221374,-0.07633587786259542,-1.3282442748091603
0.23,0.062744140625,-1.005615234375,-0.024169921875,5.015267175572519,-0.07633587786259542,-1.618320610687023
0.24,0.078857421875,-0.99462890625,0.01318359375,7.67175572519084,-0.5877862595419847,-1.9083969465648856
0.25,0.068115234375,-1.006103515625,0.04833984375,7.511450381679389,-0.3511450381679389,-1.6488549618320612
0.26,0.0712890625,-1.018310546875,0.02392578125,2.633587786259542,0.5038167938931297,-2.2977099236641223
0.27,0.07958984375,-1.005615234375,-0.050537109375,5.083969465648855,-2.5343511450381677,-2.5877862595419847
0.28,0.04150390625,-1.084716796875,-0.629150390625,68.92366412213741,1.2748091603053435,-4.1679389312977095
0.29,0.07470703125,-0.985595703125,-0.01904296875,84.37404580152672,-15.129770992366412,-5.458015267175573
0.3,0.0615234375,-1.0302734375,0.09326171875,63.595419847328245,-57.045801526717554,-6.412213740458015
0.31,0.087890625,-1.006591796875,0.096435546875,52.13740458015267,-70.03053435114504,-4.129770992366412
0.32,0.179931640625,-0.87939453125,0.052490234375,57.16793893129771,-52.66412213740458,-3.381679389312977
0.33,0.0927734375,-0.881103515625,0.15283203125,55.57251908396947,-52.458015267175576,-0.48854961832061067
0.34,-0.07177734375,-0.849853515625,0.77392578125,8.923664122137405,-37.16030534351145,-9.32824427480916
0.35,-0.175048828125,-0.778564453125,0.08837890625,-42.47328244274809,-19.610687022900763,-0.183206106870229
0.36,-0.083740234375,-1.25048828125,0.2109375,-54.29007633587786,-31.106870229007633,1.2442748091603053
0.37,-0.044921875,-1.03662109375,0.017822265625,-42.67175572519084,7.641221374045801,-0.5114503816793893
0.38,-0.0419921875,-0.961669921875,0.019775390625,-16.38167938931298,23.061068702290076,1.2442748091603053
0.39,0.0166015625,-1.086181640625,0.058837890625,4.6106870229007635,15.50381679389313,7.129770992366412
0.4,0.001953125,-1.0263671875,0.041748046875,7.465648854961832,7.656488549618321,20.82442748091603
0.41,0.088623046875,-1.017822265625,-0.027587890625,6.488549618320611,21.206106870229007,25.793893129770993
0.42,0.11181640625,-1.042236328125,-0.008056640625,3.7709923664122136,28.572519083969464,35.045801526717554
0.43,0.150390625,-0.9248046875,-0.00244140625,-4.679389312977099,20.72519083969466,31.114503816793892
0.44,0.082275390625,-0.915283203125,-0.0302734375,-6.0,16.61832061068702,35.35114503816794
0.45,0.0732421875,-0.969482421875,0.0048828125,-10.648854961832061,20.80916030534351,36.541984732824424
0.46,0.067626953125,-1.006591796875,0.09130859375,-15.908396946564885,28.984732824427482,29.778625954198475
0.47,0.068603515625,-0.995361328125,0.107177734375,-22.480916030534353,31.99236641221374,20.61832061068702
0.48,0.020751953125,-1.011474609375,0.13525390625,-20.923664122137403,24.48854961832061,12.038167938931299
0.49,-0.007080078125,-0.984375,0.1328125,-10.49618320610687,11.595419847328245,8.412213740458014
0.5,-0.011962890625,-0.997314453125,0.10400390625,5.297709923664122,3.3969465648854964,7.587786259541985
0.51,-0.03857421875,-0.98388671875,0.09423828125,20.801526717557252,4.190839694656488,5.480916030534351
0.52,-0.033203125,-0.959716796875,0.09619140625,31.198473282442748,7.022900763358779,8.213740458015268
0.53,-0.03564453125,-0.9462890625,0.083984375,30.96946564885496,11.549618320610687,12.648854961832061
0.54,-0.046630859375,-0.956298828125,0.09326171875,29.282442748091604,10.908396946564885,17.786259541984734
0.55,0.416259765625,-0.378173828125,0.11083984375,12.946564885496183,13.694656488549619,-20.251908396946565
0.56,0.159423828125,-1.023681640625,0.130615234375,11.068702290076336,-7.465648854961832,-28.31297709923664
0.57,0.0634765625,-0.9599609375,0.1123046875,9.900763358778626,-22.129770992366414,-33.87022900763359
0.58,0.04638671875,-1.0107421875,0.079833984375,8.84732824427481,-23.770992366412212,-32.152671755725194
0.59,0.09130859375,-1.01806640625,0.1357421875,9.198473282442748,-13.122137404580153,-29.480916030534353
0.6,0.099853515625,-1.019287109375,0.13427734375,11.15267175572519,2.3053435114503817,-2.435114503816794
0.61,-0.09228515625,-0.565185546875,0.098876953125,-1.1221374045801527,19.03053435114504,-4.916030534351145
0.62,-0.061767578125,-0.950927734375,0.105712890625,-11.068702290076336,7.702290076335878,8.732824427480915
0.63,-0.077880859375,-1.171875,0.12060546875,-24.923664122137403,-16.740458015267176,22.755725190839694
0.64,0.041259765625,-0.989990234375,0.128173828125,-30.206106870229007,-25.0,7.3893129770992365
0.65,0.147216796875,-1.076171875,0.177978515625,-18.763358778625953,-13.748091603053435,-5.549618320610687
0.66,0.225830078125,-0.927978515625,0.081298828125,-4.030534351145038,4.977099236641221,-23.03053435114504
0.67,0.062744140625,-1.021484375,0.083740234375,-2.030534351145038,-0.916030534351145,4.083969465648855
0.68,0.209228515625,-0.9873046875,0.090576171875,-4.870229007633588,-7.022900763358779,-1.3206106870229009
0.69,0.0439453125,-0.986083984375,0.0537109375,-4.8396946564885495,-3.045801526717557,-1.0229007633587786
0.7,0.04150390625,-0.9990234375,0.064453125,-4.236641221374046,-0.42748091603053434,-1.3129770992366412
0.71,0.039306640625,-1.009521484375,0.073974609375,-3.5343511450381677,0.25190839694656486,-1.3129770992366412
0.72,0.0390625,-0.98583984375,0.064208984375,-4.473282442748092,1.9465648854961832,-1.1755725190839694
0.73,0.035888671875,-1.000244140625,0.08447265625,-4.923664122137405,0.22137404580152673,-1.251908396946565
0.74,0.041748046875,-1.0068359375,0.06884765625,-5.221374045801527,0.22900763358778625,-1.1374045801526718
0.75,0.04345703125,-1.0029296875,0.06689453125,-3.4656488549618323,0.16793893129770993,-0.9465648854961832
0.76,0.10302734375,-1.019287109375,0.05419921875,4.801526717557252,23.33587786259542,-0.5954198473282443
0.77,0.083251953125,-1.002685546875,0.075927734375,12.007633587786259,42.54961832061068,-1.465648854961832
0.78,0.08251953125,-0.94970703125,0.1318359375,-0.3511450381679389,30.83969465648855,0.16030534351145037
0.79,0.04052734375,-0.988037109375,0.210693359375,-22.610687022900763,15.526717557251908,0.15267175572519084
0.8,-0.012939453125,-0.9853515625,0.176025390625,-35.80152671755725,5.145038167938932,-0.183206106870229
0.81,0.005126953125,-0.9921875,0.112548828125,-41.17557251908397,4.633587786259542,0.5572519083969466
0.82,0.030517578125,-0.991455078125,0.063720703125,-46.83206106870229,0.42748091603053434,0.3511450381679389
0.83,0.0419921875,-1.0048828125,0.025146484375,-45.961832061068705,0.9312977099236641,0.3893129770992366
0.84,0.05615234375,-1.0078125,-0.0146484375,-40.6412213740458,9.320610687022901,0.9236641221374046
0.85,0.09228515625,-1.02880859375,-0.06396484375,-15.961832061068701,36.778625954198475,3.83206106870229
0.86,0.01513671875,-0.9970703125,-0.038818359375,-11.557251908396946,28.31297709923664,1.2442748091603053
0.87,-0.023193359375,-0.999267578125,-0.0361328125,-11.15267175572519,16.259541984732824,0.42748091603053434
0.88,0.041015625,-1.002685546875,-0.071533203125,-3.114503816793893,15.274809160305344,-0.21374045801526717
0.89,0.022216796875,-1.0009765625,-0.02783203125,2.854961832061069,12.923664122137405,-0.9236641221374046
0.9,0.018310546875,-0.994873046875,-0.010986328125,4.877862595419847,4.137404580152672,-1.4274809160305344
0.91,0.03271484375,-1.008544921875,0.0087890625,5.33587786259542,0.4122137404580153,-1.4351145038167938
0.92,0.04638671875,-0.997314453125,0.048828125,4.580152671755725,0.6717557251908397,-1.366412213740458
0.93,0.0390625,-0.996337890625,0.065673828125,0.7251908396946565,0.9770992366412213,-1.3053435114503817
0.94,0.0390625,-0.9912109375,0.052978515625,-2.648854961832061,0.6793893129770993,-1.3511450381679388
0.95,0.033203125,-0.995361328125,0.022705078125,-3.3969465648854964,0.5267175572519084,-1.366412213740458
0.96,0.041748046875,-1.002685546875,0.01220703125,-2.595419847328244,0.4351145038167939,-1.3740458015267176
0.97,0.042236328125,-1.001953125,0.0166015625,-1.1450381679389312,0.4580152671755725,-1.3206106870229009
0.98,0.0244140625,-1.001708984375,0.0205078125,-0.21374045801526717,0.3053435114503817,-1.4427480916030535
0.99,0.035888671875,-0.989013671875,0.023681640625,-0.25190839694656486,0.21374045801526717,-1.4427480916030535
1.0,0.03173828125,-0.986572265625,0.0302734375,-0.9389312977099237,0.22900763358778625,-1.4351145038167938
1.01,0.03271484375,-1.005615234375,0.03466796875,-1.0381679389312977,-0.05343511450381679,-1.3282442748091603
1.02,0.039306640625,-0.99755859375,0.02978515625,-0.8320610687022901,-0.03816793893129771,-1.4122137404580153
1.03,0.035888671875,-0.9990234375,0.0205078125,-0.06870229007633588,-0.09923664122137404,-1.4351145038167938
1.04,0.0322265625,-1.000732421875,0.023193359375,0.6946564885496184,-0.03816793893129771,-1.3740458015267176
1.05,0.0166015625,-0.99658203125,0.034423828125,0.6870229007633588,1.9465648854961832,-1.3969465648854962
1.06,0.0322265625,-0.998046875,0.03515625,-0.25190839694656486,-0.09923664122137404,-1.3358778625954197
1.07,0.0380859375,-1.01513671875,0.05615234375,-2.366412213740458,-0.16030534351145037,-1.2900763358778626
1.08,0.03564453125,-0.9853515625,0.019287109375,-3.0839694656488548,0.05343511450381679,-1.2442748091603053
1.09,0.043212890625,-0.9990234375,0.0048828125,-1.7633587786259541,-0.061068702290076333,-1.3893129770992367
1.1,0.0400390625,-1.004638671875,0.002685546875,0.4351145038167939,0.05343511450381679,-1.2748091603053435
1.11,0.03564453125,-0.997314453125,0.017578125,1.6030534351145038,-0.2366412213740458,-1.5954198473282444
1.12,0.037353515625,-1.0029296875,0.040771484375,0.7862595419847328,-0.1984732824427481,-1.5419847328244274
1.13,0.037353515625,-0.999755859375,0.040771484375,-0.7633587786259542,-0.16030534351145037,-1.450381679389313
1.14,0.036376953125,-0.99853515625,0.056640625,-2.572519083969466,-1.916030534351145,-1.297709923664122
1.15,0.036865234375,-1.001708984375,0.012939453125,-2.6564885496183206,-0.030534351145038167,-1.381679389312977
1.16,0.041015625,-0.998779296875,0.00537109375,-1.297709923664122,1.9465648854961832,-1.3206106870229009
1.17,0.041015625,-1.000244140625,0.015869140625,-0.4122137404580153,-1.9083969465648856,-1.465648854961832
1.18,0.032958984375,-1.00390625,0.0244140625,0.4122137404580153,-0.04580152671755725,-1.4045801526717556
1.19,0.03173828125,-0.999267578125,0.018310546875,0.7251908396946565,-0.16793893129770993,-1.3435114503816794
1.2,0.021728515625,-1.0,0.025146484375,0.45038167938931295,-0.10687022900763359,-1.2213740458015268
1.21,0.03662109375,-0.9853515625,0.02587890625,-0.10687022900763359,-0.1297709923664122,-1.3740458015267176
1.22,0.037841796875,-1.004638671875,0.02978515625,0.05343511450381679,-0.04580152671755725,-1.381679389312977
1.23,0.0390625,-1.005615234375,0.006591796875,1.282442748091603,-0.16793893129770993,-1.465648854961832
1.24,0.037841796875,-1.001220703125,0.031494140625,1.3740458015267176,-0.022900763358778626,-1.5419847328244274
1.25,0.038818359375,-0.9951171875,0.04833984375,-0.37404580152671757,-0.03816793893129771,-1.2213740458015268
1.26,0.035400390625,-1.00048828125,0.06689453125,-3.4198473282442747,0.1297709923664122,-1.1450381679389312
1.27,0.040283203125,-1.0078125,0.048583984375,-6.580152671755725,1.9389312977099236,-1.1908396946564885
1.28,0.017333984375,-0.986083984375,-0.00048828125,-5.175572519083969,0.2900763358778626,-1.0229007633587786
1.29,0.032470703125,-1.001708984375,-0.007568359375,-0.732824427480916,-0.015267175572519083,-1.4809160305343512
1.3,0.032958984375,-0.998291015625,0.030029296875,0.549618320610687,-0.09923664122137404,-1.5725190839694656
1.31,0.037353515625,-1.001220703125,0.031005859375,0.3893129770992366,0.09923664122137404,-1.2900763358778626
1.32,0.03369140625,-0.995361328125,0.036865234375,-1.5267175572519085,0.0916030534351145,-1.3053435114503817
1.33,0.03466796875,-0.998046875,0.033935546875,-2.3587786259541983,0.1450381679389313,-1.633587786259542
1.34,0.03662109375,-0.99560546875,0.021728515625,-0.007633587786259542,0.3816793893129771,-1.1984732824427482
1.35,0.041015625,-1.0,0.02392578125,-1.7404580152671756,0.40458015267175573,-1.1755725190839694
1.36,0.03271484375,-0.999267578125,0.0048828125,-0.816793893129771,0.549618320610687,-1.2748091603053435
1.37,0.03125,-1.000244140625,0.015380859375,-0.17557251908396945,0.26717557251908397,-1.3129770992366412
1.38,0.039306640625,-1.00537109375,0.012939453125,0.45038167938931295,-0.061068702290076333,-1.2900763358778626
1.39,0.03564453125,-1.001220703125,0.030517578125,0.44274809160305345,0.19083969465648856,-1.4198473282442747
1.4,0.0361328125,-1.004638671875,0.023193359375,-0.07633587786259542,0.2748091603053435,-1.366412213740458
1.41,0.0400390625,-1.000244140625,0.027099609375,-0.2824427480916031,-0.1450381679389313,-1.534351145038168
1.42,0.03857421875,-0.9892578125,0.015380859375,-0.15267175572519084,0.08396946564885496,-1.282442748091603
1.43,0.03466796875,-0.985107421875,0.021728515625,0.1984732824427481,-0.16030534351145037,-1.3206106870229009
1.44,0.033447265625,-1.0107421875,0.021240234375,0.20610687022900764,1.916030534351145,-1.3511450381679388
1.45,0.035888671875,-0.997802734375,0.016845703125,-0.366412213740458,-0.05343511450381679,-1.213740458015267
1.46,0.038818359375,-0.9970703125,0.020751953125,-0.3053435114503817,-0.1450381679389313,-1.366412213740458
1.47,0.034912109375,-0.99658203125,0.02880859375,-0.33587786259541985,-0.07633587786259542,-1.4580152671755726
1.48,0.0234375,-1.001953125,0.031005859375,-0.37404580152671757,1.8244274809160306,-1.2442748091603053
1.49,0.03515625,-1.011962890625,0.032470703125,-0.9236641221374046,0.061068702290076333,-1.534351145038168
1.5,0.03466796875,-0.99951171875,0.025146484375,-1.2671755725190839,0.10687022900763359,-1.3587786259541985
1.51,0.037841796875,-0.99853515625,0.01806640625,-1.3740458015267176,0.13740458015267176,-1.2595419847328244
1.52,0.031005859375,-1.001220703125,0.002197265625,-0.916030534351145,0.17557251908396945,-1.3969465648854962
1.53,0.037353515625,-1.001708984375,0.01123046875,-0.1297709923664122,-0.11450381679389313,-1.4122137404580153
1.54,0.03564453125,-0.998046875,0.03173828125,-0.4122137404580153,-0.05343511450381679,-1.2213740458015268
1.55,0.0322265625,-0.997802734375,0.035888671875,-0.46564885496183206,0.03816793893129771,-1.3358778625954197
1.56,0.045166015625,-0.996826171875,0.025634765625,-0.9312977099236641,0.09923664122137404,-1.3358778625954197
1.57,0.035888671875,-1.004150390625,0.021240234375,-0.7938931297709924,0.05343511450381679,-1.366412213740458
1.58,0.03515625,-1.00048828125,0.03076171875,-0.5190839694656488,-0.07633587786259542,-1.282442748091603
1.59,0.037109375,-1.0009765625,0.01708984375,-0.183206106870229,0.0,-1.3129770992366412
1.6,0.037841796875,-1.007080078125,0.03125,0.22137404580152673,0.030534351145038167,-1.5267175572519085
1.61,0.034912109375,-1.0,0.0283203125,0.2366412213740458,-0.007633587786259542,-1.5648854961832062
1.62,0.04052734375,-1.003173828125,0.028564453125,-0.13740458015267176,-1.916030534351145,-1.3282442748091603
1.63,0.037841796875,-1.013671875,0.027587890625,-0.35877862595419846,-0.19083969465648856,-1.4732824427480915
1.64,0.038818359375,-1.011962890625,0.016357421875,-0.4351145038167939,-0.007633587786259542,-1.1603053435114503
1.65,0.033935546875,-1.00244140625,0.005859375,-0.916030534351145,0.06870229007633588,-1.4274809160305344
1.66,0.03515625,-0.994873046875,0.025146484375,-0.44274809160305345,-0.12213740458015267,-1.4122137404580153
1.67,0.0419921875,-1.001953125,0.02099609375,-0.45038167938931295,-0.31297709923664124,-1.4961832061068703
1.68,0.04345703125,-0.995361328125,0.015625,-0.3435114503816794,0.061068702290076333,-1.3206106870229009
1.69,0.033447265625,-0.992431640625,0.02490234375,-0.5038167938931297,0.03816793893129771,-1.1984732824427482
1.7,0.037841796875,-0.999267578125,0.02734375,-0.816793893129771,1.9465648854961832,-1.4045801526717556
1.71,0.043701171875,-1.013671875,0.029052734375,-0.6946564885496184,-0.007633587786259542,-1.366412213740458
1.72,0.03466796875,-1.00439453125,0.030517578125,-1.1526717557251909,-0.061068702290076333,-1.3740458015267176
1.73,0.039794921875,-1.00048828125,0.021240234375,-0.9007633587786259,-0.061068702290076333,-1.4122137404580153
1.74,0.0322265625,-1.0,0.020263671875,-0.44274809160305345,-0.1297709923664122,-1.3587786259541985
1.75,0.034912109375,-1.00341796875,0.0185546875,-0.16030534351145037,0.030534351145038167,-1.4885496183206106
1.76,0.045166015625,-1.001953125,0.024658203125,-0.08396946564885496,0.06870229007633588,-1.3740458015267176
1.77,0.03759765625,-1.003662109375,0.023681640625,-0.2748091603053435,-0.1297709923664122,-1.3511450381679388
1.78,0.02099609375,-1.002685546875,0.02490234375,-0.4122137404580153,0.11450381679389313,-1.4122137404580153
1.79,0.043212890625,-0.9970703125,0.022216796875,-0.7022900763358778,-0.07633587786259542,-1.2671755725190839
1.8,0.033935546875,-1.001708984375,0.0185546875,-0.4732824427480916,1.900763358778626,-1.3740458015267176
1.81,0.04248046875,-0.997802734375,0.02099609375,-0.2366412213740458,-0.25190839694656486,-1.3358778625954197
1.82,0.0361328125,-1.00048828125,0.025390625,1.8931297709923665,0.11450381679389313,-1.3435114503816794
1.83,0.037109375,-1.000244140625,0.03173828125,-0.04580152671755725,-0.21374045801526717,-1.4885496183206106
1.84,0.03564453125,-1.000732421875,0.01806640625,-0.3893129770992366,0.10687022900763359,-1.3969465648854962
1.85,0.03466796875,-0.99853515625,0.026611328125,-0.816793893129771,0.0,-1.3511450381679388
1.86,0.036865234375,-0.999267578125,0.02392578125,-1.1145038167938932,-0.22900763358778625,-1.3969465648854962
1.87,0.0341796875,-1.0029296875,0.0283203125,-0.9847328244274809,-0.1984732824427481,-1.4122137404580153
1.88,0.0400390625,-1.000732421875,0.02392578125,-0.7175572519083969,-0.05343511450381679,-1.297709923664122
1.89,0.036376953125,-0.99169921875,0.017822265625,-0.4732824427480916,0.05343511450381679,-1.2671755725190839
1.9,0.038818359375,-0.99755859375,0.0283203125,-0.26717557251908397,1.900763358778626,-1.4045801526717556
1.91,0.03271484375,-0.993408203125,0.024658203125,-0.22137404580152673,-0.007633587786259542,-1.3893129770992367
1.92,0.035400390625,-0.99951171875,0.0302734375,-0.5572519083969466,-0.061068702290076333,-1.3129770992366412
1.93,0.0380859375,-0.98779296875,0.027587890625,-0.7251908396946565,0.007633587786259542,-1.3893129770992367
1.94,0.039794921875,-0.99169921875,0.015869140625,-0.7175572519083969,-0.22900763358778625,-1.3740458015267176
1.95,0.042236328125,-0.999267578125,0.019287109375,-0.6717557251908397,1.9236641221374047,-1.4351145038167938
1.96,0.037109375,-1.00390625,0.0166015625,1.9312977099236641,-0.11450381679389313,-1.4045801526717556
1.97,0.041259765625,-0.999755859375,0.02294921875,0.2824427480916031,-0.04580152671755725,-1.3129770992366412
1.98,0.035400390625,-0.998291015625,0.028076171875,-0.061068702290076333,0.03816793893129771,-1.4580152671755726
1.99,0.0380859375,-0.98486328125,0.017333984375,-0.5190839694656488,0.1297709923664122,-1.4045801526717556
2.0,0.037353515625,-1.0107421875,0.01806640625,-0.8778625954198473,-1.9389312977099236,-1.5419847328244274
2.01,0.037109375,-1.00048828125,0.02685546875,-0.9541984732824428,-0.11450381679389313,-1.3740458015267176
2.02,0.03173828125,-1.00341796875,0.018798828125,-0.48854961832061067,-0.08396946564885496,-1.4045801526717556
2.03,0.040771484375,-1.001220703125,0.019287109375,-0.32061068702290074,-0.030534351145038167,-1.2748091603053435
2.04,0.039794921875,-0.99951171875,0.0302734375,-0.16030534351145037,-0.11450381679389313,-1.3206106870229009
2.05,0.03369140625,-0.98681640625,0.029052734375,-0.21374045801526717,-0.09923664122137404,-1.3282442748091603
2.06,0.03857421875,-1.00634765625,0.042724609375,-0.549618320610687,-0.04580152671755725,-1.4885496183206106
2.07,0.03466796875,-0.998046875,0.032470703125,-0.6641221374045801,-0.1297709923664122,-1.5648854961832062
2.08,0.03076171875,-0.998046875,0.015625,-0.7175572519083969,-0.015267175572519083,-1.3282442748091603
2.09,0.036865234375,-1.00048828125,0.025146484375,-0.7633587786259542,-0.2748091603053435,-1.5801526717557253
2.1,0.039306640625,-0.996826171875,0.02001953125,-0.44274809160305345,0.04580152671755725,-1.2900763358778626
2.11,0.03662109375,-1.000732421875,0.0224609375,0.10687022900763359,-0.1984732824427481,-1.6030534351145038
2.12,0.03662109375,-0.998046875,0.024658203125,-0.09923664122137404,-0.07633587786259542,-1.2213740458015268
2.13,0.04443359375,-0.9853515625,0.0244140625,-0.42748091603053434,-0.04580152671755725,-1.282442748091603
2.14,0.044677734375,-1.0048828125,0.044921875,-0.4961832061068702,0.061068702290076333,-1.5114503816793894
2.15,0.035400390625,-0.986572265625,0.015869140625,-0.8473282442748091,-0.061068702290076333,-1.1984732824427482
2.16,0.0380859375,-1.006591796875,0.029052734375,-0.5725190839694656,-0.11450381679389313,-1.3587786259541985
2.17,0.038330078125,-1.001220703125,0.026123046875,-0.42748091603053434,-0.022900763358778626,-1.4198473282442747
2.18,0.038330078125,-1.000244140625,0.021240234375,-0.1984732824427481,-0.030534351145038167,-1.5725190839694656
2.19,0.0380859375,-1.001220703125,0.023193359375,-0.35877862595419846,0.007633587786259542,-1.3969465648854962
2.2,0.036865234375,-0.993896484375,0.02294921875,-0.6717557251908397,-0.16030534351145037,-1.3893129770992367
2.21,0.035400390625,-1.00732421875,0.0048828125,-0.40458015267175573,-0.07633587786259542,-1.4580152671755726
2.22,0.03466796875,-0.989013671875,0.01953125,-0.24427480916030533,-0.10687022900763359,-1.3358778625954197
2.23,0.033447265625,-0.999755859375,0.024658203125,-0.366412213740458,-1.8702290076335877,-1.3282442748091603
2.24,0.03173828125,-0.995361328125,0.0244140625,-0.8396946564885496,-0.16793893129770993,-1.251908396946565
2.25,0.0341796875,-0.991455078125,0.021484375,-0.7175572519083969,-0.10687022900763359,-1.5572519083969465
2.26,0.0380859375,-1.004638671875,0.02294921875,-0.4961832061068702,0.05343511450381679,-1.3969465648854962
2.27,0.034423828125,-0.98681640625,0.0166015625,-0.48854961832061067,-0.15267175572519084,-1.3893129770992367
2.28,0.0361328125,-1.00634765625,0.026611328125,-0.2748091603053435,-0.05343511450381679,-1.4809160305343512
2.29,0.036865234375,-0.9912109375,0.02392578125,-0.24427480916030533,0.05343511450381679,-1.3740458015267176
2.3,0.041748046875,-0.99462890625,0.02197265625,-0.45038167938931295,-0.26717557251908397,-1.3740458015267176
2.31,0.03662109375,-1.001220703125,0.0244140625,-0.4732824427480916,-0.2748091603053435,-1.213740458015267
2.32,0.039794921875,-0.99560546875,0.0205078125,-0.45038167938931295,-0.07633587786259542,-1.3358778625954197
2.33,0.035888671875,-1.00439453125,0.016845703125,-0.35877862595419846,-0.10687022900763359,-1.3435114503816794
2.34,0.03662109375,-0.985595703125,0.011962890625,-0.3511450381679389,-1.9389312977099236,-1.3358778625954197
2.35,0.041015625,-1.012939453125,0.024169921875,-0.25190839694656486,-0.05343511450381679,-1.3435114503816794
2.36,0.03369140625,-0.9873046875,0.017333984375,-0.5038167938931297,-0.0916030534351145,-1.3206106870229009
2.37,0.0390625,-1.00439453125,0.016357421875,-0.1984732824427481,-0.022900763358778626,-1.465648854961832
2.38,0.031494140625,-1.00146484375,0.03369140625,-0.45038167938931295,-0.007633587786259542,-1.5190839694656488
2.39,0.03076171875,-0.99609375,0.032958984375,-0.6641221374045801,-0.35877862595419846,-1.4961832061068703
2.4,0.03125,-1.002197265625,0.01513671875,-1.099236641221374,-0.04580152671755725,-1.366412213740458
2.41,0.045166015625,-0.986083984375,0.017822265625,-0.8702290076335878,-0.13740458015267176,-1.3358778625954197
2.42,0.032958984375,-0.996826171875,0.010009765625,-0.5572519083969466,-0.12213740458015267,-1.4045801526717556
2.43,0.037109375,-0.992919921875,0.013427734375,0.12213740458015267,-0.06870229007633588,-1.4122137404580153
2.44,0.037841796875,-1.00244140625,0.0419921875,0.16030534351145037,-0.09923664122137404,-1.2061068702290076
2.45,0.035400390625,-0.99267578125,0.031494140625,-0.13740458015267176,-0.22137404580152673,-1.4809160305343512
2.46,0.04052734375,-0.997314453125,0.034423828125,-0.9083969465648855,-0.24427480916030533,-1.549618320610687
2.47,0.0361328125,-0.997314453125,0.01708984375,-1.1297709923664123,-0.16793893129770993,-1.5648854961832062
2.48,0.034912109375,-0.998046875,0.02099609375,-0.8473282442748091,-0.19083969465648856,-1.3740458015267176
2.49,0.03662109375,-1.001220703125,0.01708984375,-0.4351145038167939,-0.13740458015267176,-1.5419847328244274
2.5,0.038330078125,-0.999267578125,0.017578125,-0.04580152671755725,0.05343511450381679,-1.534351145038168
2.51,0.032958984375,-1.0009765625,0.0322265625,0.15267175572519084,-1.9389312977099236,-1.4045801526717556
2.52,0.03564453125,-0.994873046875,0.021240234375,1.8473282442748091,0.015267175572519083,-1.5419847328244274
2.53,0.033447265625,-1.000732421875,0.02880859375,-0.6335877862595419,0.05343511450381679,-1.4885496183206106
2.54,0.03125,-1.00341796875,0.034423828125,-0.8015267175572519,0.04580152671755725,-1.5267175572519085
2.55,0.03955078125,-0.987548828125,0.02685546875,-0.7175572519083969,-0.16793893129770993,-1.4274809160305344
2.56,0.02294921875,-0.986328125,0.014404296875,-0.5877862595419847,0.0,-1.3053435114503817
2.57,0.0341796875,-0.997802734375,0.019775390625,0.11450381679389313,0.007633587786259542,-1.450381679389313
2.58,0.035888671875,-1.004150390625,0.0224609375,-0.35877862595419846,-0.05343511450381679,-1.3511450381679388
2.59,0.0322265625,-1.002685546875,0.0185546875,-0.6412213740458015,1.8473282442748091,-1.2366412213740459
2.6,0.032958984375,-1.00146484375,0.023681640625,-0.8320610687022901,-1.9389312977099236,-1.3282442748091603
2.61,0.03369140625,-0.99658203125,0.017822265625,-0.6259541984732825,-0.05343511450381679,-1.450381679389313
2.62,0.040771484375,-0.998779296875,0.025146484375,-0.46564885496183206,-0.3282442748091603,-1.4274809160305344
2.63,0.040771484375,-0.989501953125,0.023193359375,-0.2595419847328244,0.15267175572519084,-1.282442748091603
2.64,0.03759765625,-1.012451171875,0.0224609375,-0.5190839694656488,-0.1297709923664122,-1.3893129770992367
2.65,0.038330078125,-1.000732421875,0.029541015625,-0.6183206106870229,-0.22900763358778625,-1.4274809160305344
2.66,0.04052734375,-1.000732421875,0.026123046875,-0.7633587786259542,-0.2900763358778626,-1.2290076335877862
2.67,0.038330078125,-1.002685546875,0.01220703125,-0.4351145038167939,-0.13740458015267176,-1.618320610687023
2.68,0.03564453125,-0.99951171875,0.020263671875,-0.3816793893129771,0.15267175572519084,-1.297709923664122
2.69,0.0361328125,-0.9951171875,0.025634765625,-0.4198473282442748,-0.13740458015267176,-1.5801526717557253
2.7,0.03662109375,-1.002685546875,0.02685546875,-0.16030534351145037,1.9312977099236641,-1.4732824427480915
2.71,0.03857421875,-0.999267578125,0.019287109375,-0.4198473282442748,-0.16793893129770993,-1.4274809160305344
2.72,0.0439453125,-0.998779296875,0.028564453125,-0.6946564885496184,-0.06870229007633588,-1.2900763358778626
2.73,0.038818359375,-1.001220703125,0.02294921875,-0.7251908396946565,-0.05343511450381679,-1.3511450381679388
2.74,0.034912109375,-0.9990234375,0.020263671875,-0.7175572519083969,-1.9236641221374047,-1.1755725190839694
2.75,0.03857421875,-1.0029296875,0.021484375,-0.5725190839694656,-0.20610687022900764,-1.3969465648854962
2.76,0.019287109375,-1.00341796875,0.02099609375,-0.15267175572519084,0.061068702290076333,-1.4198473282442747
2.77,0.0341796875,-1.015625,0.0302734375,-0.03816793893129771,-0.022900763358778626,-1.450381679389313
2.78,0.0361328125,-0.984619140625,0.04443359375,-0.04580152671755725,-0.007633587786259542,-1.3740458015267176
2.79,0.040771484375,-0.9970703125,0.0224609375,-0.6946564885496184,-0.15267175572519084,-1.3435114503816794
2.8,0.041015625,-1.000732421875,0.0341796875,-0.7938931297709924,-1.9541984732824427,-1.3053435114503817
2.81,0.035888671875,-1.000732421875,0.016845703125,-0.8473282442748091,1.916030534351145,-1.4045801526717556
2.82,0.040771484375,-0.99951171875,0.008544921875,-0.6641221374045801,-0.13740458015267176,-1.3511450381679388
2.83,0.033203125,-0.995849609375,0.027099609375,-1.8854961832061068,-0.20610687022900764,-1.4122137404580153
2.84,0.035400390625,-0.994873046875,0.0234375,-0.2595419847328244,1.9083969465648856,-1.465648854961832
2.85,0.0341796875,-0.989501953125,0.02001953125,0.04580152671755725,0.03816793893129771,-1.549618320610687
2.86,0.036376953125,-1.011474609375,0.016845703125,-0.2824427480916031,-0.03816793893129771,-1.2671755725190839
2.87,0.03759765625,-0.9990234375,0.021240234375,-0.7022900763358778,-0.07633587786259542,-1.4732824427480915
2.88,0.029541015625,-1.000732421875,0.022705078125,-1.0458015267175573,-0.15267175572519084,-1.2442748091603053
2.89,0.034912109375,-0.995849609375,0.01513671875,-0.7480916030534351,-0.16030534351145037,-1.3206106870229009
2.9,0.039794921875,-0.998291015625,0.022216796875,-0.5190839694656488,1.9083969465648856,-1.3969465648854962
2.91,0.040771484375,-1.0087890625,0.025390625,1.9083969465648856,0.06870229007633588,-1.465648854961832
2.92,0.0341796875,-0.985595703125,0.0205078125,0.05343511450381679,0.10687022900763359,-1.5267175572519085
2.93,0.036376953125,-1.000244140625,0.03173828125,-0.5648854961832062,0.05343511450381679,-1.4809160305343512
2.94,0.03466796875,-0.996337890625,0.01953125,-0.6183206106870229,1.900763358778626,-1.549618320610687
2.95,0.0361328125,-1.00439453125,0.02197265625,-0.7862595419847328,-0.31297709923664124,-1.381679389312977
2.96,0.038818359375,-1.00244140625,0.019287109375,-0.7251908396946565,0.20610687022900764,-1.4351145038167938
2.97,0.037841796875,-0.990234375,0.023681640625,-0.5419847328244275,-1.9541984732824427,-1.3358778625954197
2.98,0.036376953125,-0.9873046875,0.021728515625,-0.4122137404580153,-0.06870229007633588,-1.2213740458015268
2.99,0.0380859375,-0.999755859375,0.024658203125,-0.2824427480916031,-0.08396946564885496,-1.3587786259541985
3.0,0.036865234375,-0.998779296875,0.045166015625,-0.45038167938931295,-0.04580152671755725,-1.2442748091603053
3.01,0.036376953125,-1.00244140625,0.0224609375,-0.3511450381679389,-0.05343511450381679,-1.3740458015267176
3.02,0.03662109375,-0.994873046875,0.033203125,-0.732824427480916,-0.061068702290076333,-1.2671755725190839
3.03,0.04296875,-0.99755859375,0.0244140625,-0.9083969465648855,-0.10687022900763359,-1.2442748091603053
3.04,0.04150390625,-0.999267578125,0.013916015625,-0.3969465648854962,-0.015267175572519083,-1.3511450381679388
3.05,0.0419921875,-0.99658203125,0.01904296875,-0.3053435114503817,-0.061068702290076333,-1.3129770992366412
3.06,0.03955078125,-1.01171875,0.01904296875,-0.22137404580152673,-0.1450381679389313,-1.4580152671755726
3.07,0.035888671875,-1.01416015625,0.02001953125,-0.48091603053435117,-0.09923664122137404,-1.3282442748091603
3.08,0.037353515625,-1.0009765625,0.02392578125,-0.8320610687022901,0.061068702290076333,-1.4580152671755726
3.09,0.040771484375,-1.001708984375,0.019287109375,-0.6641221374045801,0.08396946564885496,-1.3511450381679388
3.1,0.03564453125,-0.994384765625,0.01513671875,-0.5801526717557252,-0.04580152671755725,-1.2213740458015268
3.11,0.034912109375,-0.99658203125,0.02392578125,-0.3435114503816794,-0.19083969465648856,-1.3129770992366412
3.12,0.0458984375,-0.9990234375,0.035400390625,-0.05343511450381679,1.9312977099236641,-1.534351145038168
3.13,0.037109375,-0.985595703125,0.016357421875,-0.2748091603053435,0.030534351145038167,-1.2366412213740459
3.14,0.02294921875,-1.00244140625,0.04150390625,-0.46564885496183206,-0.4351145038167939,-1.2595419847328244
3.15,0.035888671875,-0.997802734375,0.02587890625,-0.5114503816793893,-0.07633587786259542,-1.3358778625954197
3.16,0.03369140625,-0.997314453125,0.029541015625,-0.732824427480916,-0.2595419847328244,-1.3511450381679388
3.17,0.034912109375,-0.9990234375,0.01318359375,-0.37404580152671757,0.11450381679389313,-1.3969465648854962
3.18,0.03369140625,-0.9990234375,0.019287109375,-0.4122137404580153,0.015267175572519083,-1.4809160305343512
3.19,0.0380859375,-1.0009765625,0.02294921875,-0.10687022900763359,-0.07633587786259542,-1.3893129770992367
3.2,0.039306640625,-0.99951171875,0.031494140625,-0.3282442748091603,0.19083969465648856,-1.4274809160305344
3.21,0.0390625,-1.000732421875,0.02978515625,-0.5190839694656488,1.9312977099236641,-1.3511450381679388
3.22,0.04345703125,-0.985595703125,0.0234375,-0.8244274809160306,-0.17557251908396945,-1.3129770992366412
3.23,0.040771484375,-1.001708984375,0.01806640625,-0.7404580152671756,-0.030534351145038167,-1.4427480916030535
3.24,0.03369140625,-0.99951171875,0.007568359375,-0.5877862595419847,-0.0916030534351145,-1.3969465648854962
3.25,0.035888671875,-1.003662109375,0.020263671875,-0.3816793893129771,-0.0916030534351145,-1.5114503816793894
3.26,0.041259765625,-1.002197265625,0.023193359375,-0.10687022900763359,-0.022900763358778626,-1.4122137404580153
3.27,0.037841796875,-1.005615234375,0.02880859375,-0.4198473282442748,-0.07633587786259542,-1.5419847328244274
3.28,0.036865234375,-0.985107421875,0.0380859375,-0.366412213740458,-1.916030534351145,-1.3129770992366412
3.29,0.03369140625,-0.9990234375,0.020751953125,-0.7938931297709924,-0.0916030534351145,-1.4045801526717556
3.3,0.031494140625,-1.001220703125,0.011474609375,-0.8396946564885496,-0.19083969465648856,-1.297709923664122
3.31,0.031982421875,-0.995361328125,0.025146484375,-0.4351145038167939,-1.9236641221374047,-1.2671755725190839
3.32,0.035888671875,-0.993896484375,0.019287109375,-0.13740458015267176,-0.16030534351145037,-1.4580152671755726
3.33,0.03857421875,-1.001953125,0.020751953125,-0.1450381679389313,-0.32061068702290074,-1.2900763358778626
3.34,0.037109375,-0.989501953125,0.026123046875,-0.45038167938931295,-0.19083969465648856,-1.4427480916030535
3.35,0.03564453125,-0.997802734375,0.02783203125,-0.5801526717557252,-1.9541984732824427,-1.366412213740458
3.36,0.04052734375,-1.013671875,0.0419921875,-0.6030534351145038,0.09923664122137404,-1.3206106870229009
3.37,0.037841796875,-1.000244140625,0.022216796875,-0.7480916030534351,-0.19083969465648856,-1.2213740458015268
3.38,0.038330078125,-0.99755859375,0.02783203125,-0.4122137404580153,-0.06870229007633588,-1.4198473282442747
3.39,0.0400390625,-0.999755859375,0.013916015625,-0.2366412213740458,-0.11450381679389313,-1.5038167938931297
3.4,0.02099609375,-0.999755859375,0.02001953125,-0.16030534351145037,-1.9465648854961832,-1.450381679389313
3.41,0.038330078125,-0.99609375,0.02587890625,-0.17557251908396945,1.8931297709923665,-1.4351145038167938
3.42,0.03369140625,-0.99755859375,0.02001953125,-0.7480916030534351,-0.061068702290076333,-1.3740458015267176
3.43,0.036865234375,-1.0107421875,0.02392578125,-0.8015267175572519,-0.09923664122137404,-1.3893129770992367
3.44,0.0400390625,-0.99951171875,0.01904296875,-0.6564885496183206,-0.183206106870229,-1.3282442748091603
3.45,0.0380859375,-1.00146484375,0.0224609375,-0.4580152671755725,-0.16793893129770993,-1.5801526717557253
3.46,0.033935546875,-1.00390625,0.025390625,-0.04580152671755725,-0.061068702290076333,-1.4122137404580153
3.47,0.0400390625,-1.001220703125,0.017333984375,-0.26717557251908397,-0.33587786259541985,-1.2061068702290076
3.48,0.03759765625,-0.998779296875,0.034423828125,-0.4122137404580153,0.015267175572519083,-1.4198473282442747
3.49,0.03466796875,-0.99951171875,0.023681640625,-0.7251908396946565,1.9083969465648856,-1.4427480916030535
3.5,0.036865234375,-1.014404296875,0.024658203125,-0.7251908396946565,0.17557251908396945,-1.4122137404580153
3.51,0.0390625,-1.0009765625,0.020263671875,-0.40458015267175573,0.20610687022900764,-1.3893129770992367
3.52,0.036376953125,-1.0009765625,0.020751953125,-0.2824427480916031,-0.1297709923664122,-1.2442748091603053
3.53,0.033935546875,-0.999755859375,0.020751953125,-0.2900763358778626,1.8549618320610688,-1.2900763358778626
3.54,0.0390625,-1.001708984375,0.021240234375,-0.3053435114503817,-0.22137404580152673,-1.3206106870229009
3.55,0.03564453125,-1.010986328125,0.030029296875,-0.10687022900763359,0.09923664122137404,-1.3129770992366412
3.56,0.03173828125,-0.994384765625,0.022216796875,-0.5572519083969466,-0.21374045801526717,-1.5114503816793894
3.57,0.03955078125,-1.00341796875,0.024169921875,-0.8091603053435115,0.11450381679389313,-1.2748091603053435
3.58,0.040283203125,-1.0078125,0.02099609375,-0.9236641221374046,0.022900763358778626,-1.2290076335877862
3.59,0.035888671875,-1.010498046875,0.01806640625,-0.7175572519083969,0.022900763358778626,-1.3969465648854962
3.6,0.033447265625,-0.9990234375,0.0107421875,-0.2366412213740458,-0.12213740458015267,-1.4351145038167938
3.61,0.0390625,-1.005126953125,0.025146484375,0.2824427480916031,-0.22137404580152673,-1.3129770992366412
3.62,0.046142578125,-1.0,0.02099609375,0.13740458015267176,-0.022900763358778626,-1.4045801526717556
3.63,0.037109375,-0.999267578125,0.03125,-0.648854961832061,0.12213740458015267,-1.3969465648854962
3.64,0.03515625,-0.995849609375,0.017822265625,-0.9389312977099237,0.1297709923664122,-1.3282442748091603
3.65,0.04638671875,-0.99951171875,0.00048828125,-0.9923664122137404,-0.32061068702290074,-1.3129770992366412
3.66,0.04150390625,-0.99853515625,0.01025390625,-0.5954198473282443,-0.09923664122137404,-1.4580152671755726
3.67,0.0322265625,-1.00439453125,0.01904296875,-0.2748091603053435,-1.9236641221374047,-1.4045801526717556
3.68,0.031982421875,-0.99951171875,0.028076171875,0.16030534351145037,-0.17557251908396945,-1.2748091603053435
3.69,0.04541015625,-1.0029296875,0.025634765625,0.1450381679389313,1.916030534351145,-1.2748091603053435
3.7,0.016357421875,-0.997314453125,0.019775390625,-0.03816793893129771,-0.1297709923664122,-1.4580152671755726
3.71,0.042236328125,-1.00537109375,0.046630859375,-0.8473282442748091,1.916030534351145,-1.4351145038167938
3.72,0.0400390625,-1.001953125,0.02099609375,-1.2213740458015268,0.17557251908396945,-1.534351145038168
3.73,0.039306640625,-0.996826171875,0.00830078125,-1.1297709923664123,-0.29770992366412213,-1.4732824427480915
3.74,0.033447265625,-1.00390625,0.016357421875,-0.5190839694656488,-0.2366412213740458,-1.4045801526717556
3.75,0.0390625,-1.0029296875,0.0263671875,0.1297709923664122,-0.0916030534351145,-1.3282442748091603
3.76,0.043701171875,-0.998046875,0.02734375,-0.03816793893129771,-0.1297709923664122,-1.4274809160305344
3.77,0.032470703125,-1.01318359375,0.027587890625,1.9465648854961832,-0.04580152671755725,-1.465648854961832
3.78,0.0390625,-0.988037109375,0.021240234375,-0.4732824427480916,-1.9541984732824427,-1.4732824427480915
3.79,0.03173828125,-0.99853515625,0.028076171875,-0.7404580152671756,-0.10687022900763359,-1.3969465648854962
3.8,0.04150390625,-0.99755859375,0.023193359375,-1.297709923664122,-0.09923664122137404,-1.2671755725190839
3.81,0.04296875,-0.99853515625,0.0205078125,-1.0229007633587786,0.05343511450381679,-1.366412213740458
3.82,0.0400390625,-0.998779296875,0.01806640625,-0.5267175572519084,-0.183206106870229,-1.2900763358778626
3.83,0.033935546875,-0.99755859375,0.023193359375,0.15267175572519084,0.061068702290076333,-1.4351145038167938
3.84,0.023681640625,-1.015380859375,0.02978515625,0.366412213740458,-1.8625954198473282,-1.3282442748091603
3.85,0.019287109375,-1.013427734375,0.030029296875,-0.1450381679389313,-0.06870229007633588,-1.3206106870229009
3.86,0.03564453125,-0.9853515625,0.023681640625,-1.1374045801526718,-0.13740458015267176,-1.251908396946565
3.87,0.04052734375,-1.004638671875,0.02685546875,-1.2442748091603053,-0.1984732824427481,-1.3435114503816794
3.88,0.04248046875,-0.995849609375,0.016845703125,-0.8549618320610687,0.12213740458015267,-1.4732824427480915
3.89,0.03759765625,-0.996826171875,0.00927734375,-0.07633587786259542,-0.16793893129770993,-1.3587786259541985
3.9,0.036865234375,-1.000244140625,0.01904296875,0.05343511450381679,0.04580152671755725,-1.450381679389313
3.91,0.032470703125,-0.994140625,0.034423828125,-0.1450381679389313,1.8091603053435115,-1.4427480916030535
3.92,0.031982421875,-0.985595703125,0.02685546875,-0.37404580152671757,1.8931297709923665,-1.2366412213740459
3.93,0.03466796875,-0.985107421875,0.017578125,-0.7251908396946565,-0.2595419847328244,-1.3206106870229009
3.94,0.0341796875,-0.99951171875,0.022705078125,-0.5267175572519084,0.10687022900763359,-1.3511450381679388
3.95,0.03564453125,-1.000732421875,0.02294921875,-0.6259541984732825,-0.183206106870229,-1.1221374045801527
3.96,0.036865234375,-0.997802734375,0.02099609375,-0.6946564885496184,0.022900763358778626,-1.3206106870229009
3.97,0.0390625,-1.004638671875,0.01708984375,-0.3435114503816794,-0.007633587786259542,-1.4961832061068703
3.98,0.032470703125,-0.986328125,0.015380859375,-0.366412213740458,-1.9541984732824427,-1.3129770992366412
3.99,0.033203125,-1.010009765625,0.03759765625,-0.11450381679389313,-0.13740458015267176,-1.213740458015267
4.0,0.034912109375,-0.985107421875,0.045654296875,-0.40458015267175573,-0.13740458015267176,-1.1984732824427482
4.01,0.033935546875,-1.0,0.030517578125,-0.6030534351145038,0.11450381679389313,-1.251908396946565
4.02,0.037109375,-1.001953125,0.0244140625,-0.9236641221374046,-0.183206106870229,-1.3282442748091603
4.03,0.033203125,-1.001953125,0.016357421875,-0.9236641221374046,-0.05343511450381679,-1.3358778625954197
4.04,0.04052734375,-0.997314453125,0.011962890625,-0.35877862595419846,-0.11450381679389313,-1.3740458015267176
4.05,0.046630859375,-0.997802734375,0.022705078125,-1.900763358778626,-0.0916030534351145,-1.3893129770992367
4.06,0.031494140625,-0.999755859375,0.02001953125,-0.4580152671755725,-0.20610687022900764,-1.3282442748091603
4.07,0.0390625,-1.0009765625,0.0234375,-0.5725190839694656,-0.07633587786259542,-1.3129770992366412
4.08,0.0400390625,-1.007080078125,0.028564453125,-0.8549618320610687,-0.08396946564885496,-1.3206106870229009
4.09,0.038330078125,-0.994873046875,0.025146484375,-0.7862595419847328,0.03816793893129771,-1.4351145038167938
4.1,0.03662109375,-1.0,0.02685546875,-0.3816793893129771,-0.16793893129770993,-1.4427480916030535
4.11,0.0380859375,-0.996337890625,0.0166015625,-0.04580152671755725,1.9312977099236641,-1.4198473282442747
4.12,0.033935546875,-0.98779296875,0.017333984375,-0.06870229007633588,-0.20610687022900764,-1.2366412213740459
4.13,0.018310546875,-1.011962890625,0.02587890625,-0.4198473282442748,-0.03816793893129771,-1.3206106870229009
4.14,0.034423828125,-0.98974609375,0.02978515625,-0.6335877862595419,-0.10687022900763359,-1.2900763358778626
4.15,0.0380859375,-1.000244140625,0.00146484375,-0.9007633587786259,-0.061068702290076333,-1.4580152671755726
4.16,0.03955078125,-1.008544921875,0.0107421875,-0.5267175572519084,0.12213740458015267,-1.3206106870229009
4.17,0.029541015625,-0.99755859375,0.017333984375,-0.25190839694656486,-0.015267175572519083,-1.5267175572519085
4.18,0.035400390625,-0.99755859375,0.02587890625,-0.015267175572519083,-1.9236641221374047,-1.381679389312977
4.19,0.0390625,-0.986083984375,0.027099609375,-0.12213740458015267,-0.22900763358778625,-1.1908396946564885
4.2,0.03955078125,-1.000732421875,0.03466796875,-0.3816793893129771,-0.13740458015267176,-1.4122137404580153
4.21,0.0400390625,-0.999755859375,0.01953125,-0.6793893129770993,-0.13740458015267176,-1.3740458015267176
4.22,0.038818359375,-0.997314453125,0.019775390625,-0.8244274809160306,-0.1984732824427481,-1.465648854961832
4.23,0.036376953125,-1.002685546875,0.027587890625,-0.7633587786259542,-0.2366412213740458,-1.3893129770992367
4.24,0.0361328125,-0.99755859375,0.02001953125,-0.732824427480916,0.03816793893129771,-1.3053435114503817
4.25,0.04296875,-1.00390625,0.020751953125,-0.030534351145038167,-0.1450381679389313,-1.4580152671755726
4.26,0.03369140625,-0.98583984375,0.025146484375,0.030534351145038167,0.10687022900763359,-1.4580152671755726
4.27,0.032958984375,-0.9951171875,0.024658203125,-0.07633587786259542,-0.183206106870229,-1.3435114503816794
4.28,0.039306640625,-0.985595703125,0.017333984375,-0.46564885496183206,1.9312977099236641,-1.2748091603053435
4.29,0.037109375,-0.993896484375,0.025634765625,-0.9389312977099237,-0.183206106870229,-1.213740458015267
4.3,0.034912109375,-0.99609375,0.02392578125,-1.1145038167938932,-0.022900763358778626,-1.3511450381679388
4.31,0.0322265625,-1.002685546875,0.007080078125,-0.7938931297709924,-0.13740458015267176,-1.3587786259541985
4.32,0.037841796875,-0.99853515625,0.01123046875,-0.015267175572519083,-0.15267175572519084,-1.3893129770992367
4.33,0.03466796875,-0.986083984375,0.018310546875,0.2824427480916031,-0.2748091603053435,-1.381679389312977
4.34,0.037353515625,-1.01416015625,0.02880859375,1.9389312977099236,1.9465648854961832,-1.282442748091603
4.35,0.035888671875,-1.01513671875,0.016357421875,-0.6793893129770993,0.030534351145038167,-1.381679389312977
4.36,0.037353515625,-0.999755859375,0.0283203125,-0.9465648854961832,-0.26717557251908397,-1.3129770992366412
4.37,0.0341796875,-1.000732421875,0.013671875,-0.9312977099236641,0.007633587786259542,-1.4045801526717556
4.38,0.03369140625,-1.003173828125,0.02197265625,-0.4961832061068702,-0.11450381679389313,-1.3435114503816794
4.39,0.032958984375,-1.0029296875,0.0234375,-0.26717557251908397,1.900763358778626,-1.3893129770992367
4.4,0.0390625,-0.998779296875,0.019287109375,0.022900763358778626,0.015267175572519083,-1.5114503816793894
4.41,0.0390625,-1.002685546875,0.0263671875,-0.1297709923664122,0.0916030534351145,-1.381679389312977
4.42,0.03466796875,-1.00634765625,0.02734375,-0.5190839694656488,-0.04580152671755725,-1.4885496183206106
4.43,0.034912109375,-1.000732421875,0.025390625,-0.6412213740458015,-0.24427480916030533,-1.3740458015267176
4.44,0.037841796875,-0.996826171875,0.023681640625,-0.5877862595419847,-0.09923664122137404,-1.2900763358778626
4.45,0.03759765625,-0.997314453125,0.025146484375,-0.4198473282442748,1.8854961832061068,-1.2290076335877862
4.46,0.045654296875,-0.996826171875,0.02490234375,-0.2595419847328244,-0.1450381679389313,-1.2671755725190839
4.47,0.034423828125,-1.012939453125,0.024658203125,-0.20610687022900764,-0.1984732824427481,-1.297709923664122
4.48,0.03857421875,-1.009521484375,0.022216796875,-0.16793893129770993,-0.37404580152671757,-1.4045801526717556
4.49,0.03076171875,-1.015625,0.024658203125,-0.48091603053435117,-0.061068702290076333,-1.3435114503816794
4.5,0.03564453125,-1.001708984375,0.001708984375,-0.6564885496183206,-0.19083969465648856,-1.1908396946564885
4.51,0.039306640625,-0.9970703125,0.019287109375,-0.8244274809160306,0.030534351145038167,-1.2595419847328244
4.52,0.038330078125,-0.999755859375,0.013427734375,-0.4732824427480916,1.8778625954198473,-1.297709923664122
4.53,0.017578125,-0.998291015625,0.012451171875,-0.1984732824427481,-0.05343511450381679,-1.4351145038167938
4.54,0.038330078125,-1.004638671875,0.020263671875,-0.09923664122137404,-0.08396946564885496,-1.450381679389313
4.55,0.03759765625,-1.003173828125,0.01806640625,-0.3969465648854962,1.916030534351145,-1.3587786259541985
4.56,0.037841796875,-1.003662109375,0.02392578125,-0.6717557251908397,-0.061068702290076333,-1.4351145038167938
4.57,0.038330078125,-1.000244140625,0.02978515625,-0.816793893129771,-0.030534351145038167,-1.297709923664122
4.58,0.032958984375,-1.00439453125,0.021240234375,-0.6259541984732825,-0.04580152671755725,-1.4122137404580153
4.59,0.037109375,-1.003173828125,0.017822265625,-0.3816793893129771,-0.04580152671755725,-1.251908396946565
4.6,0.042236328125,-1.0029296875,0.0224609375,-0.0916030534351145,-0.2366412213740458,-1.4045801526717556
4.61,0.037353515625,-1.00390625,0.02734375,0.08396946564885496,-0.2900763358778626,-1.183206106870229
4.62,0.032470703125,-1.01123046875,0.026611328125,-0.48091603053435117,-0.07633587786259542,-1.4885496183206106
4.63,0.041259765625,-0.999267578125,0.02294921875,-0.6106870229007634,-0.16793893129770993,-1.3969465648854962
4.64,0.03271484375,-0.99951171875,0.02392578125,-0.8396946564885496,-0.11450381679389313,-1.4885496183206106
4.65,0.02978515625,-1.00146484375,0.024658203125,-0.7633587786259542,-0.1984732824427481,-1.2366412213740459
4.66,0.033935546875,-0.988525390625,0.015625,-0.3969465648854962,-1.8931297709923665,-1.3740458015267176
4.67,0.04150390625,-1.0,0.0224609375,-0.16793893129770993,1.9389312977099236,-1.3435114503816794
4.68,0.032470703125,-0.985595703125,0.0234375,-0.17557251908396945,-0.13740458015267176,-1.3435114503816794
4.69,0.03857421875,-1.000732421875,0.02392578125,-0.24427480916030533,-0.022900763358778626,-1.4427480916030535
4.7,0.041015625,-0.98681640625,0.0224609375,-0.3893129770992366,-0.061068702290076333,-1.366412213740458
4.71,0.039794921875,-1.001708984375,0.0322265625,-0.44274809160305345,-0.061068702290076333,-1.297709923664122
4.72,0.037109375,-0.998291015625,0.02294921875,-0.6870229007633588,-0.20610687022900764,-1.2900763358778626
4.73,0.03271484375,-0.997802734375,0.0234375,-0.7862595419847328,-1.9312977099236641,-1.4122137404580153
4.74,0.036865234375,-1.005615234375,0.029052734375,-0.48854961832061067,-0.2748091603053435,-1.5114503816793894
4.75,0.033203125,-0.99609375,0.017822265625,-0.26717557251908397,-0.21374045801526717,-1.2366412213740459
4.76,0.036376953125,-0.998779296875,0.022216796875,0.06870229007633588,-0.10687022900763359,-1.282442748091603
4.77,0.039794921875,-1.000732421875,0.0234375,-0.24427480916030533,0.04580152671755725,-1.465648854961832
4.78,0.03125,-0.99853515625,0.021728515625,-0.6564885496183206,0.1297709923664122,-1.4427480916030535
4.79,0.02978515625,-1.000244140625,0.030029296875,-0.8091603053435115,-0.030534351145038167,-1.3129770992366412
4.8,0.0400390625,-1.001708984375,0.025634765625,-0.7938931297709924,-0.1297709923664122,-1.2595419847328244
4.81,0.031982421875,-1.01416015625,0.017333984375,-0.5267175572519084,0.04580152671755725,-1.3129770992366412
4.82,0.031494140625,-0.999755859375,0.029296875,-0.5801526717557252,-0.022900763358778626,-1.5267175572519085
4.83,0.03369140625,-1.001953125,0.02978515625,-0.2824427480916031,0.05343511450381679,-1.4732824427480915
4.84,0.040771484375,-0.997314453125,0.029541015625,-0.3816793893129771,-0.2900763358778626,-1.4809160305343512
4.85,0.034912109375,-1.00439453125,0.023193359375,-0.648854961832061,0.03816793893129771,-1.4198473282442747
4.86,0.0390625,-1.00390625,0.02734375,-0.7175572519083969,-1.9083969465648856,-1.3893129770992367
4.87,0.03369140625,-1.002197265625,0.02587890625,-0.5648854961832062,-0.16793893129770993,-1.3435114503816794
4.88,0.03662109375,-0.994384765625,0.01953125,-0.5038167938931297,0.11450381679389313,-1.366412213740458
4.89,0.020751953125,-0.9990234375,0.021240234375,-0.3053435114503817,-0.19083969465648856,-1.2900763358778626
4.9,0.034423828125,-1.00048828125,0.026611328125,-0.20610687022900764,-0.015267175572519083,-1.3358778625954197
4.91,0.0390625,-1.00341796875,0.0263671875,-0.5877862595419847,1.9312977099236641,-1.2595419847328244
4.92,0.035400390625,-1.0,0.02587890625,-0.5801526717557252,-0.12213740458015267,-1.4732824427480915
4.93,0.036865234375,-0.994140625,0.020263671875,-0.7404580152671756,1.9465648854961832,-1.366412213740458
4.94,0.0380859375,-1.00390625,0.020751953125,-0.3969465648854962,-0.0916030534351145,-1.2366412213740459
4.95,0.033203125,-1.0146484375,0.01708984375,-0.16793893129770993,-0.15267175572519084,-1.6259541984732824
4.96,0.035888671875,-0.98974609375,0.042724609375,-0.061068702290076333,-1.8549618320610688,-1.3282442748091603
4.97,0.032958984375,-1.001220703125,0.027099609375,-0.3282442748091603,0.04580152671755725,-1.450381679389313
4.98,0.03173828125,-1.002197265625,0.02978515625,-0.5725190839694656,-0.25190839694656486,-1.465648854961832
4.99,0.04150390625,-1.004150390625,0.01513671875,-0.7938931297709924,-0.13740458015267176,-1.4122137404580153
5.0,0.04248046875,-0.99853515625,0.02685546875,-0.366412213740458,-0.0916030534351145,-1.4732824427480915
5.01,0.03662109375,-0.998779296875,0.024169921875,-0.31297709923664124,-0.06870229007633588,-1.450381679389313
5.02,0.035888671875,-0.995849609375,0.029541015625,-0.33587786259541985,-0.0916030534351145,-1.4198473282442747
5.03,0.033935546875,-1.00048828125,0.02587890625,-0.4580152671755725,-0.16793893129770993,-1.465648854961832
5.04,0.0322265625,-1.000732421875,0.016845703125,-0.42748091603053434,-0.0916030534351145,-1.534351145038168
5.05,0.033203125,-0.991943359375,0.0185546875,-0.6106870229007634,0.1297709923664122,-1.5419847328244274
5.06,0.035400390625,-0.99951171875,0.02294921875,-0.7480916030534351,-0.08396946564885496,-1.3282442748091603
5.07,0.044677734375,-1.003662109375,0.01953125,-0.8015267175572519,0.03816793893129771,-1.3587786259541985
5.08,0.041748046875,-0.998779296875,0.02001953125,-0.33587786259541985,-0.09923664122137404,-1.4961832061068703
5.09,0.0458984375,-1.001220703125,0.02294921875,-0.08396946564885496,-0.11450381679389313,-1.3740458015267176
5.1,0.03564453125,-1.013427734375,0.02392578125,-0.030534351145038167,-0.061068702290076333,-1.4274809160305344
5.11,0.032958984375,-1.0146484375,0.020263671875,-0.44274809160305345,-1.916030534351145,-1.4045801526717556
5.12,0.038330078125,-1.006103515625,0.029296875,-0.7251908396946565,0.10687022900763359,-1.3358778625954197
5.13,0.0419921875,-1.0029296875,0.022705078125,-0.8625954198473282,-0.13740458015267176,-1.3206106870229009
5.14,0.0341796875,-0.996826171875,0.021484375,-0.549618320610687,-0.1297709923664122,-1.3969465648854962
5.15,0.0400390625,-0.99755859375,0.0234375,-0.29770992366412213,-0.15267175572519084,-1.1984732824427482
5.16,0.037109375,-0.985595703125,0.014892578125,-0.2366412213740458,-0.0916030534351145,-1.3587786259541985
5.17,0.0380859375,-0.9990234375,0.02978515625,0.061068702290076333,-0.3816793893129771,-1.4809160305343512
5.18,0.035888671875,-0.998779296875,0.02734375,-0.183206106870229,0.07633587786259542,-1.3129770992366412
5.19,0.0341796875,-1.000732421875,0.02880859375,-0.2595419847328244,-0.1984732824427481,-1.4198473282442747
5.2,0.032958984375,-0.999755859375,0.028076171875,-0.2595419847328244,-0.12213740458015267,-1.3511450381679388
5.21,0.039794921875,-1.004638671875,0.021728515625,-0.7709923664122137,0.15267175572519084,-1.2290076335877862
5.22,0.03369140625,-0.996826171875,0.0185546875,-0.8702290076335878,1.9312977099236641,-1.4427480916030535
5.23,0.04296875,-0.998046875,0.025634765625,-0.5419847328244275,-0.16793893129770993,-1.2366412213740459
5.24,0.03466796875,-1.00341796875,0.0146484375,-0.3435114503816794,-0.04580152671755725,-1.4274809160305344
5.25,0.032470703125,-1.013916015625,0.022216796875,-0.16793893129770993,-0.25190839694656486,-1.381679389312977
5.26,0.038330078125,-1.00537109375,0.02734375,-0.17557251908396945,-0.16793893129770993,-1.5114503816793894
5.27,0.035400390625,-1.001708984375,0.02587890625,-0.6564885496183206,0.06870229007633588,-1.366412213740458
5.28,0.043212890625,-0.99853515625,0.030517578125,-0.816793893129771,-0.10687022900763359,-1.3511450381679388
5.29,0.038818359375,-0.99951171875,0.02392578125,-0.6183206106870229,-0.09923664122137404,-1.4427480916030535
5.3,0.04052734375,-1.005859375,0.022216796875,-0.549618320610687,0.007633587786259542,-1.4274809160305344
5.31,0.037109375,-1.00634765625,0.01904296875,-0.42748091603053434,-0.07633587786259542,-1.4809160305343512
5.32,0.042724609375,-0.99462890625,0.030029296875,-0.22900763358778625,-0.25190839694656486,-1.549618320610687
5.33,0.038330078125,-1.00830078125,0.0234375,-0.33587786259541985,1.9389312977099236,-1.2366412213740459
5.34,0.04052734375,-1.004150390625,0.02294921875,-0.42748091603053434,-0.22900763358778625,-1.3893129770992367
5.35,0.035400390625,-1.001953125,0.027587890625,-0.42748091603053434,-0.22137404580152673,-1.4122137404580153
5.36,0.038818359375,-0.99951171875,0.025634765625,-0.5419847328244275,-0.06870229007633588,-1.3358778625954197
5.37,0.041015625,-0.997314453125,0.02197265625,-0.48854961832061067,-0.06870229007633588,-1.3893129770992367
5.38,0.038330078125,-0.985595703125,0.0283203125,-0.5648854961832062,-0.11450381679389313,-1.4198473282442747
5.39,0.04296875,-1.00439453125,0.015869140625,-0.5343511450381679,-0.06870229007633588,-1.4580152671755726
5.4,0.033935546875,-0.99755859375,0.0244140625,-0.42748091603053434,-0.3053435114503817,-1.3129770992366412
5.41,0.03369140625,-0.995361328125,0.02685546875,-0.20610687022900764,-0.1297709923664122,-1.282442748091603
5.42,0.03173828125,-1.0029296875,0.022705078125,-0.3282442748091603,-0.05343511450381679,-1.2290076335877862
5.43,0.035400390625,-0.997314453125,0.02880859375,-0.3816793893129771,-0.1984732824427481,-1.450381679389313
5.44,0.035400390625,-1.01318359375,0.01904296875,-0.2366412213740458,-0.16793893129770993,-1.4351145038167938
5.45,0.033447265625,-0.9951171875,0.031005859375,-0.366412213740458,-0.2366412213740458,-1.4885496183206106
5.46,0.0380859375,-0.986083984375,0.015869140625,-0.7709923664122137,-0.11450381679389313,-1.549618320610687
5.47,0.035400390625,-1.00244140625,0.02734375,-0.7862595419847328,-0.1984732824427481,-1.3969465648854962
5.48,0.04052734375,-0.999267578125,0.017822265625,-0.7862595419847328,-0.09923664122137404,-1.3511450381679388
5.49,0.033935546875,-1.0,0.013671875,-0.22137404580152673,-0.03816793893129771,-1.534351145038168
5.5,0.037841796875,-1.000244140625,0.017333984375,-0.3053435114503817,-0.183206106870229,-1.465648854961832
5.51,0.038330078125,-1.004638671875,0.029296875,-0.3969465648854962,-0.17557251908396945,-1.251908396946565
5.52,0.03759765625,-1.00439453125,0.0166015625,-0.48091603053435117,-0.13740458015267176,-1.3053435114503817
5.53,0.035400390625,-0.98583984375,0.0234375,-0.4580152671755725,-0.05343511450381679,-1.4580152671755726
5.54,0.035400390625,-1.002685546875,0.025146484375,-0.5267175572519084,0.09923664122137404,-1.3511450381679388
5.55,0.034423828125,-1.0,0.02294921875,-0.6030534351145038,-0.16030534351145037,-1.465648854961832
5.56,0.03857421875,-1.003173828125,0.01611328125,-0.549618320610687,-0.13740458015267176,-1.2900763358778626
5.57,0.041259765625,-0.990966796875,0.02099609375,-0.4961832061068702,1.9312977099236641,-1.3282442748091603
5.58,0.0390625,-0.98681640625,0.019287109375,-0.1450381679389313,-0.015267175572519083,-1.366412213740458
5.59,0.034912109375,-1.000244140625,0.018310546875,-0.007633587786259542,-0.13740458015267176,-1.4274809160305344
5.6,0.0419921875,-0.986083984375,0.027587890625,-0.44274809160305345,-0.1297709923664122,-1.5267175572519085
5.61,0.03759765625,-0.99853515625,0.01953125,-0.6946564885496184,-0.17557251908396945,-1.4885496183206106
5.62,0.044677734375,-0.995849609375,0.022216796875,-0.8931297709923665,-0.12213740458015267,-1.2748091603053435
5.63,0.037109375,-0.997314453125,0.030029296875,-0.6870229007633588,-0.08396946564885496,-1.2900763358778626
5.64,0.039794921875,-1.00390625,0.02783203125,-0.2824427480916031,-1.9389312977099236,-1.4198473282442747
5.65,0.0390625,-0.9970703125,0.0185546875,-0.183206106870229,-0.10687022900763359,-1.2213740458015268
5.66,0.03662109375,-1.011474609375,0.0263671875,-0.2366412213740458,1.8931297709923665,-1.297709923664122
5.67,0.034423828125,-0.9873046875,0.025634765625,-0.4961832061068702,0.0,-1.3206106870229009
5.68,0.03564453125,-1.00244140625,0.0244140625,-0.7022900763358778,-0.21374045801526717,-1.3511450381679388
5.69,0.040771484375,-1.000732421875,0.019287109375,-0.5725190839694656,-0.1984732824427481,-1.381679389312977
5.7,0.037109375,-0.99853515625,0.0224609375,-0.7633587786259542,-0.1984732824427481,-1.2061068702290076
5.71,0.0380859375,-1.006103515625,0.01513671875,-0.4732824427480916,-0.07633587786259542,-1.3206106870229009
5.72,0.037109375,-0.98681640625,0.02978515625,-0.1984732824427481,0.030534351145038167,-1.4198473282442747
5.73,0.03564453125,-0.985107421875,0.02734375,-0.20610687022900764,-0.20610687022900764,-1.3893129770992367
5.74,0.028076171875,-0.985107421875,0.0244140625,-0.42748091603053434,-0.19083969465648856,-1.549618320610687
5.75,0.03466796875,-1.001220703125,0.02392578125,-0.8625954198473282,-0.19083969465648856,-1.297709923664122
5.76,0.03564453125,-0.995849609375,0.02587890625,-1.0763358778625953,-0.183206106870229,-1.3129770992366412
5.77,0.0322265625,-0.999755859375,0.017578125,-0.7709923664122137,0.0916030534351145,-1.381679389312977
5.78,0.0400390625,-1.004150390625,0.014892578125,-0.5114503816793893,0.0916030534351145,-1.4580152671755726
5.79,0.03173828125,-0.989013671875,0.0166015625,-0.13740458015267176,-0.21374045801526717,-1.282442748091603
5.8,0.042236328125,-1.0146484375,0.018798828125,-0.183206106870229,-0.10687022900763359,-1.3740458015267176
5.81,0.03271484375,-1.00341796875,0.0283203125,-0.4122137404580153,-0.07633587786259542,-1.3053435114503817
5.82,0.035400390625,-0.99853515625,0.028076171875,-0.7480916030534351,-0.015267175572519083,-1.2748091603053435
5.83,0.035888671875,-1.001708984375,0.023193359375,-0.7862595419847328,-0.1450381679389313,-1.3893129770992367
5.84,0.039794921875,-1.00048828125,0.020263671875,-0.6870229007633588,-0.12213740458015267,-1.3282442748091603
5.85,0.046142578125,-0.997802734375,0.016357421875,-0.5038167938931297,-0.17557251908396945,-1.3282442748091603
5.86,0.036865234375,-1.00341796875,0.0244140625,-0.10687022900763359,-0.17557251908396945,-1.2213740458015268
5.87,0.0185546875,-0.98681640625,0.026123046875,-1.8778625954198473,-0.04580152671755725,-1.4885496183206106
5.88,0.0419921875,-1.0009765625,0.02734375,-0.015267175572519083,-0.12213740458015267,-1.4045801526717556
5.89,0.03857421875,-1.0029296875,0.024658203125,-0.6564885496183206,-1.900763358778626,-1.5572519083969465
5.9,0.0302734375,-0.99951171875,0.029052734375,-1.0916030534351144,-0.09923664122137404,-1.1374045801526718
5.91,0.03857421875,-0.99609375,0.01953125,-1.0,0.06870229007633588,-1.4427480916030535
5.92,0.032470703125,-0.999755859375,0.015625,-0.6870229007633588,-1.8244274809160306,-1.251908396946565
5.93,0.036865234375,-1.003173828125,0.016845703125,-0.35877862595419846,0.07633587786259542,-1.3358778625954197
5.94,0.0361328125,-1.00439453125,0.026123046875,-0.2366412213740458,-0.07633587786259542,-1.4045801526717556
5.95,0.03955078125,-1.002685546875,0.030517578125,-0.0916030534351145,-0.32061068702290074,-1.5954198473282444
5.96,0.03466796875,-1.001708984375,0.018798828125,-0.03816793893129771,-0.21374045801526717,-1.5648854961832062
5.97,0.03759765625,-1.001708984375,0.0302734375,-0.19083969465648856,-0.10687022900763359,-1.3893129770992367
5.98,0.0390625,-0.99658203125,0.023681640625,-0.7099236641221374,-0.2366412213740458,-1.3053435114503817
5.99,0.0361328125,-1.003662109375,0.025634765625,-1.251908396946565,-0.16793893129770993,-1.5572519083969465
6.0,0.033935546875,-0.984619140625,0.01806640625,-1.1755725190839694,-0.183206106870229,-1.2671755725190839
6.01,0.028564453125,-0.999267578125,0.001220703125,-0.6870229007633588,1.8854961832061068,-1.4351145038167938
6.02,0.037109375,-0.999267578125,0.01611328125,0.31297709923664124,-0.1450381679389313,-1.3358778625954197
6.03,0.032470703125,-0.993896484375,0.0244140625,0.3435114503816794,0.007633587786259542,-1.4732824427480915
6.04,0.04150390625,-0.996826171875,0.025146484375,-0.25190839694656486,-0.22137404580152673,-1.282442748091603
6.05,0.038818359375,-0.999755859375,0.038330078125,-1.099236641221374,1.9389312977099236,-1.4274809160305344
6.06,0.03662109375,-1.0,0.02978515625,-1.4122137404580153,-1.916030534351145,-1.465648854961832
6.07,0.03369140625,-0.98828125,0.018310546875,-0.6641221374045801,1.9389312977099236,-1.282442748091603
6.08,0.043212890625,-0.998046875,0.019287109375,-0.08396946564885496,0.16030534351145037,-1.4809160305343512
6.09,0.0341796875,-1.00146484375,0.02392578125,1.3740458015267176,-0.40458015267175573,-1.4809160305343512
6.1,0.03759765625,-0.997314453125,0.041015625,0.5343511450381679,-0.16030534351145037,-1.549618320610687
6.11,0.04150390625,-1.000244140625,0.047119140625,-2.3969465648854964,-0.15267175572519084,-1.1526717557251909
6.12,0.035888671875,-0.99755859375,0.03076171875,-4.916030534351145,-0.022900763358778626,-1.213740458015267
6.13,0.041748046875,-0.999755859375,-0.010009765625,-2.9389312977099236,0.10687022900763359,-1.4732824427480915
6.14,0.03564453125,-1.001220703125,-0.020263671875,1.633587786259542,-0.030534351145038167,-1.4809160305343512
6.15,0.034912109375,-1.001953125,0.014404296875,3.9160305343511452,-0.07633587786259542,-1.5877862595419847
6.16,0.042236328125,-0.99853515625,0.0673828125,0.8854961832061069,-0.2748091603053435,-1.2671755725190839
6.17,0.03857421875,-0.99169921875,0.052734375,-2.7099236641221376,-0.03816793893129771,-1.3740458015267176
6.18,0.033447265625,-1.000244140625,0.0205078125,-3.549618320610687,0.1297709923664122,-1.3282442748091603
6.19,0.033935546875,-1.004150390625,0.006103515625,-2.045801526717557,0.061068702290076333,-1.4732824427480915
6.2,0.039794921875,-0.99365234375,0.029541015625,-0.7480916030534351,-0.2366412213740458,-1.6106870229007633
6.21,0.044189453125,-1.0048828125,0.026123046875,1.9389312977099236,-0.08396946564885496,-1.3969465648854962
6.22,0.04541015625,-1.01171875,0.00927734375,-1.0305343511450382,-0.06870229007633588,-1.3053435114503817
6.23,0.035888671875,-1.004150390625,0.004150390625,1.4580152671755726,-0.1297709923664122,-1.450381679389313
6.24,0.04541015625,-0.995849609375,0.0390625,0.8091603053435115,-0.1450381679389313,-1.4122137404580153
6.25,0.03759765625,-1.000244140625,0.031005859375,-0.20610687022900764,-0.17557251908396945,-1.4809160305343512
6.26,0.046142578125,-1.0,0.035400390625,-1.633587786259542,-0.13740458015267176,-1.4885496183206106
6.27,0.044921875,-0.995361328125,0.0234375,-2.7938931297709924,-0.1297709923664122,-1.4274809160305344
6.28,0.02197265625,-0.989501953125,0.001953125,-1.5801526717557253,0.11450381679389313,-1.3511450381679388
6.29,0.037353515625,-0.997802734375,0.0126953125,-0.13740458015267176,-0.05343511450381679,-1.5267175572519085
6.3,0.038330078125,-1.00146484375,0.021484375,0.2900763358778626,-1.8854961832061068,-1.381679389312977
6.31,0.035400390625,-0.999267578125,0.031005859375,0.10687022900763359,-1.7938931297709924,-1.5801526717557253
6.32,0.042236328125,-0.996826171875,0.02783203125,-0.7099236641221374,-0.08396946564885496,-1.3206106870229009
6.33,0.04248046875,-1.002197265625,0.02587890625,-1.0229007633587786,0.0916030534351145,-1.4198473282442747
6.34,0.03125,-0.997802734375,0.022705078125,-0.6030534351145038,0.0,-1.618320610687023
6.35,0.041748046875,-0.99951171875,0.021728515625,-0.007633587786259542,-0.183206106870229,-1.4122137404580153
6.36,0.03466796875,-1.0029296875,0.0283203125,-0.10687022900763359,1.9312977099236641,-1.3969465648854962
6.37,0.0322265625,-1.002197265625,0.015625,-0.5725190839694656,-0.16030534351145037,-1.2748091603053435
6.38,0.0390625,-1.006591796875,0.022705078125,-0.7709923664122137,-0.12213740458015267,-1.3129770992366412
6.39,0.037109375,-1.002685546875,0.018310546875,-1.0229007633587786,-0.06870229007633588,-1.282442748091603
6.4,0.035400390625,-1.007080078125,0.011962890625,-0.5038167938931297,0.022900763358778626,-1.3511450381679388
6.41,0.033203125,-1.0078125,0.01513671875,0.007633587786259542,0.22137404580152673,-1.4045801526717556
6.42,0.0341796875,-0.989990234375,0.029296875,0.44274809160305345,0.0,-1.5419847328244274
6.43,0.039306640625,-1.0048828125,0.046142578125,-0.2900763358778626,-0.08396946564885496,-1.3893129770992367
6.44,0.033203125,-0.995361328125,0.025634765625,-1.1526717557251909,0.022900763358778626,-1.213740458015267
6.45,0.037353515625,-1.00048828125,0.022216796875,-1.450381679389313,-0.0916030534351145,-1.4732824427480915
6.46,0.0283203125,-1.00244140625,0.01513671875,-0.2824427480916031,-1.9389312977099236,-1.450381679389313
6.47,0.041015625,-0.99951171875,0.02197265625,0.16793893129770993,0.04580152671755725,-1.1908396946564885
6.48,0.0400390625,-1.00390625,0.0302734375,-0.6259541984732825,-0.0916030534351145,-1.251908396946565
6.49,0.034423828125,-0.98583984375,0.0263671875,-1.0534351145038168,0.03816793893129771,-1.2748091603053435
6.5,0.036865234375,-0.985595703125,0.021728515625,-0.6412213740458015,-0.13740458015267176,-1.4198473282442747
6.51,0.028564453125,-0.994384765625,0.001708984375,-0.35877862595419846,-0.3282442748091603,-1.3740458015267176
6.52,0.034423828125,-0.99755859375,0.02880859375,-0.22900763358778625,-1.9389312977099236,-1.1374045801526718
6.53,0.0380859375,-0.999755859375,0.0234375,-0.6183206106870229,0.22137404580152673,-1.3053435114503817
6.54,0.03955078125,-1.00048828125,0.01416015625,-1.015267175572519,-0.015267175572519083,-1.2748091603053435
6.55,0.03369140625,-1.01513671875,0.020751953125,-0.6870229007633588,-0.030534351145038167,-1.4198473282442747
6.56,0.04248046875,-0.99462890625,0.007080078125,-0.6335877862595419,-0.1450381679389313,-1.4198473282442747
6.57,0.040771484375,-0.998779296875,0.002685546875,-0.12213740458015267,0.06870229007633588,-1.450381679389313
6.58,0.03369140625,-0.992919921875,0.0234375,-0.2366412213740458,-0.015267175572519083,-1.1145038167938932
6.59,0.03369140625,-0.992431640625,0.02392578125,-0.5114503816793893,0.17557251908396945,-1.5038167938931297
6.6,0.03662109375,-0.996337890625,0.029296875,-1.1526717557251909,-0.007633587786259542,-1.4122137404580153
6.61,0.035400390625,-1.001220703125,0.0126953125,-0.9770992366412213,-0.24427480916030533,-1.3358778625954197
6.62,0.0458984375,-1.002197265625,0.021484375,-0.5190839694656488,0.09923664122137404,-1.3740458015267176
6.63,0.04443359375,-1.014892578125,0.017333984375,-0.32061068702290074,-0.1984732824427481,-1.3740458015267176
6.64,0.03759765625,-1.01416015625,0.019287109375,-0.37404580152671757,-0.07633587786259542,-1.4427480916030535
6.65,0.038818359375,-1.00439453125,0.030029296875,0.2748091603053435,-0.12213740458015267,-1.6106870229007633
6.66,0.04150390625,-1.0068359375,0.024658203125,0.3816793893129771,-0.030534351145038167,-1.297709923664122
6.67,0.0380859375,-0.99755859375,0.02392578125,1.9312977099236641,-0.0916030534351145,-1.4198473282442747
6.68,0.037109375,-1.005859375,0.02978515625,-0.7251908396946565,-0.04580152671755725,-1.465648854961832
6.69,0.039794921875,-0.995849609375,0.02880859375,-1.5267175572519085,0.1297709923664122,-1.1068702290076335
6.7,0.0361328125,-1.00341796875,0.009765625,-1.3129770992366412,-0.1297709923664122,-1.3282442748091603
6.71,0.031494140625,-1.012939453125,0.01318359375,-0.2824427480916031,-0.10687022900763359,-1.3129770992366412
6.72,0.038818359375,-0.999755859375,0.028564453125,0.3816793893129771,-0.015267175572519083,-1.2595419847328244
6.73,0.038330078125,-0.9951171875,0.023681640625,0.24427480916030533,-0.20610687022900764,-1.3358778625954197
6.74,0.041748046875,-0.998046875,0.030517578125,-0.7633587786259542,0.0916030534351145,-1.4580152671755726
6.75,0.0185546875,-0.998046875,0.021728515625,-0.8244274809160306,-0.05343511450381679,-1.3129770992366412
6.76,0.03564453125,-0.98583984375,0.021240234375,-0.6717557251908397,0.04580152671755725,-1.4274809160305344
6.77,0.038330078125,-0.986083984375,0.017333984375,-0.48091603053435117,0.03816793893129771,-1.3893129770992367
6.78,0.036865234375,-1.0029296875,0.021484375,-0.3969465648854962,-0.17557251908396945,-1.3053435114503817
6.79,0.03662109375,-1.0009765625,0.027099609375,-0.4198473282442748,0.16793893129770993,-1.3587786259541985
6.8,0.041015625,-1.00244140625,0.02490234375,-0.3816793893129771,0.022900763358778626,-1.450381679389313
6.81,0.03515625,-1.00390625,0.017333984375,-0.6412213740458015,-0.1984732824427481,-1.4427480916030535
6.82,0.038330078125,-1.000732421875,0.014892578125,-0.5572519083969466,-0.030534351145038167,-1.381679389312977
6.83,0.039306640625,-0.9970703125,0.015869140625,-0.5114503816793893,-0.11450381679389313,-1.2595419847328244
6.84,0.0322265625,-1.001220703125,0.020751953125,-0.5419847328244275,-0.15267175572519084,-1.4045801526717556
6.85,0.044189453125,-0.99462890625,0.025390625,-0.7251908396946565,-0.1984732824427481,-1.4274809160305344
6.86,0.037353515625,-0.998046875,0.021240234375,-0.5114503816793893,-0.015267175572519083,-1.3206106870229009
6.87,0.033935546875,-1.000244140625,0.025146484375,-0.4198473282442748,-0.16030534351145037,-1.3435114503816794
6.88,0.037109375,-1.00634765625,0.0185546875,-0.6030534351145038,-0.1984732824427481,-1.4351145038167938
6.89,0.033935546875,-0.99951171875,0.022705078125,-0.44274809160305345,-0.2748091603053435,-1.3358778625954197
6.9,0.037109375,-1.001220703125,0.0263671875,-0.7175572519083969,-0.10687022900763359,-1.465648854961832
6.91,0.031982421875,-1.0009765625,0.02783203125,-0.5801526717557252,-0.08396946564885496,-1.5954198473282444
6.92,0.040283203125,-0.985107421875,0.022705078125,-0.5954198473282443,-0.21374045801526717,-1.4274809160305344
6.93,0.033935546875,-1.001220703125,0.01953125,-0.44274809160305345,-0.06870229007633588,-1.3435114503816794
6.94,0.032958984375,-0.99560546875,0.01904296875,0.0,-0.05343511450381679,-1.5114503816793894
6.95,0.032958984375,-1.001708984375,0.018798828125,-0.37404580152671757,-0.19083969465648856,-1.381679389312977
6.96,0.036376953125,-0.996337890625,0.034423828125,-0.916030534351145,-0.015267175572519083,-1.2213740458015268
6.97,0.0380859375,-1.007568359375,0.02099609375,-0.8549618320610687,-0.17557251908396945,-1.4351145038167938
6.98,0.038818359375,-0.98681640625,0.014404296875,-0.6030534351145038,-0.05343511450381679,-1.4580152671755726
6.99,0.03759765625,-0.99951171875,0.021484375,-0.4580152671755725,0.05343511450381679,-1.2748091603053435
7.0,0.0390625,-0.994384765625,0.0224609375,-0.8015267175572519,-0.16030534351145037,-1.1984732824427482
7.01,0.0322265625,-1.000732421875,0.02490234375,-0.6259541984732825,-0.05343511450381679,-1.5725190839694656
7.02,0.03857421875,-1.000732421875,0.01953125,-0.5190839694656488,0.10687022900763359,-1.450381679389313
7.03,0.035888671875,-1.001220703125,0.02880859375,-0.1297709923664122,0.04580152671755725,-1.4580152671755726
7.04,0.02001953125,-0.997802734375,0.030029296875,-0.6030534351145038,0.09923664122137404,-1.3129770992366412
7.05,0.034912109375,-0.997802734375,0.018798828125,-0.4198473282442748,-1.9312977099236641,-1.2748091603053435
7.06,0.03125,-1.00537109375,0.020751953125,-0.3282442748091603,-0.1297709923664122,-1.381679389312977
7.07,0.037841796875,-1.000732421875,0.005615234375,-0.5877862595419847,0.11450381679389313,-1.3053435114503817
7.08,0.037109375,-0.99951171875,0.0126953125,-0.4198473282442748,-0.061068702290076333,-1.5038167938931297
7.09,0.034912109375,-1.000244140625,0.024658203125,0.061068702290076333,-0.015267175572519083,-1.366412213740458
7.1,0.040771484375,-0.993408203125,0.028564453125,-0.04580152671755725,-0.29770992366412213,-1.2366412213740459
7.11,0.019775390625,-1.001220703125,0.03369140625,-0.6793893129770993,-0.2595419847328244,-1.2900763358778626
7.12,0.036376953125,-0.999755859375,0.00390625,-1.2366412213740459,-0.12213740458015267,-1.4274809160305344
7.13,0.03955078125,-0.99365234375,0.01708984375,-1.015267175572519,0.12213740458015267,-1.3740458015267176
7.14,0.0341796875,-1.00439453125,0.0126953125,-0.15267175572519084,0.061068702290076333,-1.3358778625954197
7.15,0.03662109375,-0.998046875,0.012939453125,0.46564885496183206,0.030534351145038167,-1.3511450381679388
7.16,0.03857421875,-1.00048828125,0.029052734375,0.0,-0.22900763358778625,-1.4045801526717556
7.17,0.037841796875,-1.000732421875,0.03955078125,-0.5801526717557252,-0.09923664122137404,-1.3282442748091603
7.18,0.019775390625,-1.001220703125,0.026123046875,-0.7022900763358778,1.8778625954198473,-1.213740458015267
7.19,0.03759765625,-0.999267578125,0.004150390625,-0.6946564885496184,-0.1450381679389313,-1.3358778625954197
7.2,0.0380859375,-1.004150390625,0.018798828125,-0.5038167938931297,-0.04580152671755725,-1.3053435114503817
7.21,0.03369140625,-0.995361328125,0.02099609375,-0.2824427480916031,-0.16030534351145037,-1.4045801526717556
7.22,0.035400390625,-1.000732421875,0.0205078125,-0.16793893129770993,0.015267175572519083,-1.213740458015267
7.23,0.037841796875,-1.0,0.028564453125,0.25190839694656486,-0.25190839694656486,-1.4274809160305344
7.24,0.036376953125,-1.003662109375,0.03173828125,0.07633587786259542,-0.11450381679389313,-1.3206106870229009
7.25,0.046630859375,-1.01318359375,0.031005859375,-0.37404580152671757,-0.20610687022900764,-1.3969465648854962
7.26,0.042236328125,-1.00390625,0.021728515625,-1.0305343511450382,-0.08396946564885496,-1.534351145038168
7.27,0.039306640625,-1.012939453125,0.02392578125,-1.2061068702290076,1.916030534351145,-1.3740458015267176
7.28,0.039306640625,-0.99853515625,0.0185546875,-0.8244274809160306,-0.12213740458015267,-1.282442748091603
7.29,0.031494140625,-0.998046875,0.0224609375,-0.4961832061068702,-0.1450381679389313,-1.3969465648854962
7.3,0.0341796875,-0.997314453125,0.015380859375,0.3511450381679389,1.916030534351145,-1.4045801526717556
7.31,0.020263671875,-1.00390625,0.033203125,0.3511450381679389,-0.1450381679389313,-1.3969465648854962
7.32,0.0380859375,-1.013427734375,0.025390625,-0.2824427480916031,0.04580152671755725,-1.549618320610687
7.33,0.039306640625,-0.997802734375,0.027587890625,-1.3435114503816794,-0.06870229007633588,-1.450381679389313
7.34,0.035400390625,-1.00830078125,0.02880859375,-1.0229007633587786,0.16793893129770993,-1.3511450381679388
7.35,0.03564453125,-0.9970703125,0.002685546875,-0.3053435114503817,-0.022900763358778626,-1.2213740458015268
7.36,0.041015625,-1.004638671875,0.01611328125,0.45038167938931295,-0.022900763358778626,-1.4274809160305344
7.37,0.036376953125,-0.999755859375,0.02880859375,0.3969465648854962,0.05343511450381679,-1.5267175572519085
7.38,0.0224609375,-0.997802734375,0.0322265625,-0.7938931297709924,0.12213740458015267,-1.4351145038167938
7.39,0.037841796875,-1.00048828125,0.025634765625,-1.5877862595419847,0.09923664122137404,-1.4122137404580153
7.4,0.046142578125,-0.998779296875,0.013427734375,-1.2366412213740459,-0.06870229007633588,-1.366412213740458
7.41,0.043212890625,-0.98681640625,0.01513671875,0.15267175572519084,-0.015267175572519083,-1.4274809160305344
7.42,0.0380859375,-0.995361328125,0.001953125,0.9389312977099237,-0.09923664122137404,-1.366412213740458
7.43,0.037841796875,-0.9951171875,0.031494140625,0.5267175572519084,-0.20610687022900764,-1.5038167938931297
7.44,0.034423828125,-1.000244140625,0.03125,-0.7938931297709924,-1.9389312977099236,-1.366412213740458
7.45,0.036376953125,-0.996826171875,0.02099609375,-1.7938931297709924,-0.030534351145038167,-1.3740458015267176
7.46,0.033447265625,-0.997802734375,0.015869140625,-1.4732824427480915,-0.183206106870229,-1.3053435114503817
7.47,0.038330078125,-1.0048828125,0.005615234375,-0.12213740458015267,-0.04580152671755725,-1.4198473282442747
7.48,0.03662109375,-0.999267578125,0.0224609375,0.6106870229007634,-0.15267175572519084,-1.4351145038167938
7.49,0.0341796875,-1.001953125,0.04296875,0.37404580152671757,-0.15267175572519084,-1.2748091603053435
7.5,0.037353515625,-1.00244140625,0.02587890625,-0.5267175572519084,-0.030534351145038167,-1.2213740458015268
7.51,0.038330078125,-1.00341796875,0.023193359375,-0.816793893129771,-0.061068702290076333,-1.465648854961832
7.52,0.038330078125,-1.000244140625,0.021484375,-0.8091603053435115,-0.16030534351145037,-1.4122137404580153
7.53,0.045166015625,-0.988525390625,0.03125,-0.9312977099236641,-0.19083969465648856,-1.450381679389313
7.54,0.039306640625,-0.996826171875,0.02685546875,-1.1221374045801527,-0.08396946564885496,-1.3053435114503817
7.55,0.033935546875,-0.995849609375,0.020751953125,-0.5801526717557252,1.9236641221374047,-1.4274809160305344
7.56,0.034423828125,-0.996337890625,0.01953125,0.07633587786259542,1.8015267175572518,-1.4274809160305344
7.57,0.037841796875,-1.003662109375,0.0322265625,0.10687022900763359,-0.007633587786259542,-1.4351145038167938
7.58,0.0341796875,-0.997802734375,0.030029296875,-0.5038167938931297,-0.16793893129770993,-1.3435114503816794
7.59,0.032470703125,-1.000732421875,0.030517578125,-0.9465648854961832,0.030534351145038167,-1.4198473282442747
7.6,0.0185546875,-0.996337890625,0.01123046875,-0.5801526717557252,-0.06870229007633588,-1.5801526717557253
7.61,0.03857421875,-0.99609375,0.025146484375,-0.1450381679389313,0.030534351145038167,-1.2748091603053435
7.62,0.03564453125,-1.012939453125,0.020751953125,-0.3053435114503817,-0.22137404580152673,-1.4809160305343512
7.63,0.031005859375,-1.000244140625,0.01806640625,-0.6717557251908397,-0.07633587786259542,-1.3511450381679388
7.64,0.041015625,-0.997314453125,0.025146484375,-0.7862595419847328,-0.09923664122137404,-1.4198473282442747
7.65,0.03857421875,-0.998291015625,0.021240234375,-0.4961832061068702,0.12213740458015267,-1.282442748091603
7.66,0.03564453125,-1.001708984375,0.022216796875,-0.16030534351145037,-0.11450381679389313,-1.4809160305343512
7.67,0.034912109375,-1.010986328125,0.025390625,-0.5419847328244275,1.9312977099236641,-1.251908396946565
7.68,0.0400390625,-0.998046875,0.02685546875,-0.9007633587786259,0.11450381679389313,-1.4045801526717556
7.69,0.030029296875,-0.9912109375,0.02392578125,-0.9007633587786259,0.06870229007633588,-1.2442748091603053
7.7,0.03076171875,-1.001708984375,0.0048828125,0.22900763358778625,-0.07633587786259542,-1.3893129770992367
7.71,0.036865234375,-0.994384765625,0.02099609375,1.2061068702290076,-0.007633587786259542,-1.3893129770992367
7.72,0.03466796875,-1.001220703125,0.02783203125,1.0610687022900764,-0.08396946564885496,-1.450381679389313
7.73,0.037353515625,-0.9970703125,0.04052734375,-0.46564885496183206,-0.19083969465648856,-1.3282442748091603
7.74,0.041748046875,-0.9951171875,0.034423828125,-2.213740458015267,0.16030534351145037,-1.4580152671755726
7.75,0.031005859375,-0.9931640625,0.021240234375,-2.0076335877862594,0.17557251908396945,-1.3129770992366412
7.76,0.033935546875,-0.98486328125,0.007568359375,-1.8931297709923665,-0.015267175572519083,-1.5648854961832062
7.77,0.033447265625,-1.006103515625,0.014892578125,2.5267175572519083,-0.04580152671755725,-1.5190839694656488
7.78,0.035400390625,-0.9970703125,0.037841796875,1.9694656488549618,-0.15267175572519084,-1.3511450381679388
7.79,0.04296875,-0.99951171875,0.04833984375,-0.37404580152671757,-0.16030534351145037,-1.366412213740458
7.8,0.0380859375,-0.99755859375,0.038818359375,-2.099236641221374,-1.9389312977099236,-1.3587786259541985
7.81,0.041015625,-1.00537109375,0.021240234375,-2.366412213740458,-0.183206106870229,-1.2671755725190839
7.82,0.034423828125,-0.985595703125,0.010986328125,-0.7022900763358778,0.022900763358778626,-1.4122137404580153
7.83,0.034423828125,-1.00146484375,0.015380859375,0.16793893129770993,-0.05343511450381679,-1.4809160305343512
7.84,0.030517578125,-0.9990234375,0.027587890625,-0.2900763358778626,-0.1450381679389313,-1.5038167938931297
7.85,0.03759765625,-0.9970703125,0.029541015625,-0.3053435114503817,-0.030534351145038167,-1.5114503816793894
7.86,0.033203125,-1.002197265625,0.01171875,-0.5343511450381679,0.12213740458015267,-1.3053435114503817
7.87,0.03125,-1.017333984375,0.0205078125,0.7862595419847328,1.8931297709923665,-1.4045801526717556
7.88,0.037109375,-1.0087890625,0.032958984375,-0.4961832061068702,-1.8625954198473282,-1.3740458015267176
7.89,0.044921875,-1.0126953125,0.021728515625,0.3969465648854962,-0.015267175572519083,-1.3893129770992367
7.9,0.0341796875,-0.9931640625,0.015625,-0.16793893129770993,-1.9541984732824427,-1.4274809160305344
7.91,0.03369140625,-1.0029296875,0.07177734375,-3.4122137404580153,-0.09923664122137404,-1.1221374045801527
7.92,0.03271484375,-1.00146484375,0.02734375,-6.1603053435114505,0.015267175572519083,-1.1145038167938932
7.93,0.032470703125,-1.007080078125,-0.027587890625,-2.16793893129771,0.06870229007633588,-1.450381679389313
7.94,0.03662109375,-1.005859375,-0.042236328125,4.961832061068702,-0.16030534351145037,-1.6793893129770991
7.95,0.041259765625,-0.9853515625,0.022705078125,7.480916030534351,-1.9541984732824427,-1.6564885496183206
7.96,0.041748046875,-0.988525390625,0.0908203125,2.3740458015267176,-0.08396946564885496,-1.5114503816793894
7.97,0.040283203125,-0.988525390625,0.09716796875,-6.297709923664122,-0.015267175572519083,-0.9694656488549618
7.98,0.032958984375,-1.0029296875,0.04443359375,-9.488549618320612,-0.15267175572519084,-1.0
7.99,0.03125,-1.008056640625,-0.048095703125,-4.0,-0.21374045801526717,-1.3435114503816794
8.0,0.030029296875,-1.005615234375,-0.0615234375,5.3893129770992365,-0.3053435114503817,-1.4809160305343512
8.01,0.03271484375,-1.009033203125,0.016845703125,8.290076335877863,0.007633587786259542,-1.633587786259542
8.02,0.060546875,-0.987548828125,0.082763671875,2.9770992366412212,-0.21374045801526717,-1.534351145038168
8.03,0.04052734375,-0.994873046875,0.08837890625,-4.870229007633588,-0.1984732824427481,-1.1297709923664123
8.04,0.047607421875,-0.987548828125,0.041259765625,-7.816793893129771,-1.9389312977099236,-1.1755725190839694
8.05,0.02734375,-1.00732421875,-0.02734375,-4.213740458015267,-0.1984732824427481,-1.3129770992366412
8.06,0.029052734375,-1.0078125,-0.03759765625,0.21374045801526717,-0.10687022900763359,-1.4580152671755726
8.07,0.029052734375,-1.004150390625,0.030029296875,3.9389312977099236,-1.9389312977099236,-1.5954198473282444
8.08,0.036865234375,-0.995361328125,0.050048828125,1.0610687022900764,-0.12213740458015267,-1.4198473282442747
8.09,0.0390625,-0.994384765625,0.047119140625,-2.198473282442748,-1.9236641221374047,-1.3740458015267176
8.1,0.037353515625,-1.0087890625,0.0263671875,-2.8473282442748094,-0.1450381679389313,-1.4122137404580153
8.11,0.03466796875,-1.013916015625,-0.00732421875,-0.015267175572519083,-0.061068702290076333,-1.3053435114503817
8.12,0.03173828125,-0.99853515625,0.005126953125,2.1526717557251906,-0.03816793893129771,-1.465648854961832
8.13,0.033203125,-1.002197265625,0.0478515625,1.3511450381679388,-1.916030534351145,-1.534351145038168
8.14,0.038330078125,-1.001953125,0.042236328125,-1.3206106870229009,-0.1450381679389313,-1.4732824427480915
8.15,0.03173828125,-0.996337890625,0.042724609375,-3.3282442748091605,-0.061068702290076333,-1.450381679389313
8.16,0.037353515625,-0.99658203125,0.003173828125,-2.2442748091603053,-1.9465648854961832,-1.251908396946565
8.17,0.03759765625,-1.00244140625,-0.016357421875,0.3282442748091603,-0.10687022900763359,-1.5114503816793894
8.18,0.038330078125,-1.006103515625,0.001220703125,2.0839694656488548,0.007633587786259542,-1.3206106870229009
8.19,0.03515625,-0.9970703125,0.037353515625,1.4732824427480915,-0.06870229007633588,-1.366412213740458
8.2,0.031494140625,-0.99853515625,0.041748046875,-0.5725190839694656,0.07633587786259542,-1.3129770992366412
8.21,0.04052734375,-0.996826171875,0.02685546875,-1.8015267175572518,-0.007633587786259542,-1.2900763358778626
8.22,0.034423828125,-0.996337890625,0.0244140625,-2.9236641221374047,-0.030534351145038167,-1.2748091603053435
8.23,0.0361328125,-1.01318359375,0.027099609375,-2.8091603053435112,-1.9541984732824427,-1.2748091603053435
8.24,0.0419921875,-1.013427734375,0.0078125,-1.8244274809160306,1.8931297709923665,-1.4274809160305344
8.25,0.034912109375,-0.99267578125,-0.005615234375,0.7175572519083969,-0.13740458015267176,-1.465648854961832
8.26,0.03173828125,-1.001708984375,0.01025390625,2.519083969465649,1.9312977099236641,-1.4885496183206106
8.27,0.03369140625,-1.001953125,0.02978515625,2.2290076335877864,-0.07633587786259542,-1.4351145038167938
8.28,0.03759765625,-0.992431640625,0.056640625,-0.9694656488549618,-0.07633587786259542,-1.4122137404580153
8.29,0.03857421875,-0.99462890625,0.042236328125,-2.0763358778625953,-0.015267175572519083,-1.2595419847328244
8.3,0.02294921875,-1.015380859375,0.006591796875,-3.595419847328244,-0.13740458015267176,-1.183206106870229
8.31,0.029052734375,-1.005615234375,-0.01171875,-0.17557251908396945,-0.2366412213740458,-1.2900763358778626
8.32,0.03515625,-1.002685546875,-0.01123046875,3.2519083969465647,1.9083969465648856,-1.5190839694656488
8.33,0.03564453125,-0.994384765625,0.045654296875,3.3435114503816794,-0.04580152671755725,-1.4198473282442747
8.34,0.041748046875,-0.997314453125,0.05908203125,-0.20610687022900764,-0.17557251908396945,-1.3206106870229009
8.35,0.0361328125,-0.997802734375,0.043701171875,-1.9618320610687023,-0.1984732824427481,-1.2900763358778626
8.36,0.04248046875,-1.00048828125,0.03125,-5.251908396946565,-0.03816793893129771,-1.0458015267175573
8.37,0.038330078125,-1.01513671875,-0.006103515625,-5.824427480916031,0.061068702290076333,-1.2900763358778626
8.38,0.03759765625,-1.015380859375,-0.03125,0.9312977099236641,-0.183206106870229,-1.5190839694656488
8.39,0.027587890625,-0.986328125,-0.00537109375,4.580152671755725,-0.061068702290076333,-1.5572519083969465
8.4,0.037109375,-0.994873046875,0.03173828125,4.6183206106870225,-0.17557251908396945,-1.4351145038167938
8.41,0.033447265625,-0.99560546875,0.0673828125,0.4198473282442748,-0.3969465648854962,-1.5877862595419847
8.42,0.034423828125,-0.9951171875,0.059326171875,-4.1679389312977095,-1.9389312977099236,-1.0305343511450382
8.43,0.032958984375,-1.00390625,0.02099609375,-5.3816793893129775,-0.07633587786259542,-1.1755725190839694
8.44,0.033935546875,-1.001953125,-0.01123046875,-2.885496183206107,-1.9541984732824427,-1.4122137404580153
8.45,0.043212890625,-1.006591796875,-0.01708984375,1.0610687022900764,-0.13740458015267176,-1.5190839694656488
8.46,0.046142578125,-1.0126953125,0.008056640625,3.5801526717557253,-0.15267175572519084,-1.549618320610687
8.47,0.03271484375,-1.005126953125,0.044189453125,2.801526717557252,-0.2366412213740458,-1.4580152671755726
8.48,0.03857421875,-0.9951171875,0.060546875,-0.6259541984732825,-0.17557251908396945,-1.3435114503816794
8.49,0.038330078125,-0.997314453125,0.038818359375,-3.2748091603053435,0.13740458015267176,-1.2900763358778626
8.5,0.0400390625,-1.0009765625,0.01513671875,-3.0381679389312977,-0.0916030534351145,-1.3206106870229009
8.51,0.034423828125,-1.01171875,0.007080078125,-3.8931297709923665,-0.09923664122137404,-1.465648854961832
8.52,0.0390625,-1.0146484375,0.01123046875,-0.3511450381679389,-0.05343511450381679,-1.3893129770992367
8.53,0.03466796875,-0.996337890625,0.026611328125,0.9618320610687023,-0.0916030534351145,-1.381679389312977
8.54,0.043701171875,-0.998046875,0.045166015625,-0.5648854961832062,-0.15267175572519084,-1.5877862595419847
8.55,0.033447265625,-1.00244140625,0.00439453125,0.9007633587786259,0.2595419847328244,-1.3206106870229009
8.56,0.06103515625,-1.0068359375,0.025390625,-0.6106870229007634,-0.24427480916030533,-1.5267175572519085
8.57,0.043701171875,-0.997314453125,-0.02490234375,3.633587786259542,-0.3053435114503817,-1.633587786259542
8.58,0.0302734375,-1.001708984375,0.042236328125,3.33587786259542,-1.916030534351145,-1.4198473282442747
8.59,0.036865234375,-0.993408203125,0.052001953125,-0.22137404580152673,0.15267175572519084,-1.3511450381679388
8.6,0.04150390625,-1.013671875,0.051025390625,-4.259541984732825,0.11450381679389313,-1.213740458015267
8.61,0.033447265625,-1.000244140625,0.020263671875,-5.633587786259542,-1.9541984732824427,-1.16793893129771
8.62,0.031005859375,-1.00830078125,-0.00732421875,-3.030534351145038,-0.1450381679389313,-1.2671755725190839
8.63,0.03076171875,-1.0029296875,-0.015625,1.015267175572519,1.8778625954198473,-1.5038167938931297
8.64,0.03759765625,-1.000732421875,0.01513671875,2.9160305343511452,-0.20610687022900764,-1.5038167938931297
8.65,0.039306640625,-1.012939453125,0.027587890625,2.1908396946564888,-1.9389312977099236,-1.3893129770992367
8.66,0.037109375,-0.99853515625,0.05615234375,1.8473282442748091,-0.17557251908396945,-1.2900763358778626
8.67,0.03662109375,-0.986572265625,0.031494140625,-1.717557251908397,-0.04580152671755725,-1.2748091603053435
8.68,0.036376953125,-0.99267578125,0.0244140625,-2.3969465648854964,-0.007633587786259542,-1.3358778625954197
8.69,0.032958984375,-1.003173828125,0.012939453125,-2.0839694656488548,-0.05343511450381679,-1.3740458015267176
8.7,0.034423828125,-1.001953125,0.01171875,-0.37404580152671757,-0.16030534351145037,-1.4427480916030535
8.71,0.04248046875,-0.99755859375,0.019775390625,0.45038167938931295,-0.04580152671755725,-1.5877862595419847
8.72,0.037109375,-1.015380859375,0.01220703125,1.5038167938931297,-0.015267175572519083,-1.3358778625954197
8.73,0.021728515625,-0.996826171875,0.009033203125,2.030534351145038,-0.10687022900763359,-1.4198473282442747
8.74,0.046630859375,-1.010009765625,0.0068359375,2.2061068702290076,-0.007633587786259542,-1.3435114503816794
8.75,0.02294921875,-0.990478515625,0.00537109375,1.7251908396946565,-0.22900763358778625,-1.450381679389313
8.76,0.037353515625,-0.99951171875,0.037841796875,0.07633587786259542,-1.8549618320610688,-1.2442748091603053
8.77,0.04931640625,-0.994873046875,0.056640625,-2.4656488549618323,-0.07633587786259542,-1.0458015267175573
8.78,0.042724609375,-0.996826171875,0.0390625,-5.099236641221374,-0.32061068702290074,-1.3282442748091603
8.79,0.01611328125,-1.000732421875,-0.022705078125,-2.3053435114503817,-0.08396946564885496,-1.2748091603053435
8.8,0.020263671875,-1.007080078125,-0.04248046875,3.6412213740458017,-0.07633587786259542,-1.5648854961832062
8.81,0.043212890625,-0.987548828125,0.023681640625,5.648854961832061,0.05343511450381679,-1.549618320610687
8.82,0.041259765625,-0.99609375,0.0654296875,0.9236641221374046,-0.06870229007633588,-1.3053435114503817
8.83,0.04296875,-0.996826171875,0.071533203125,-5.66412213740458,1.9465648854961832,-0.9236641221374046
8.84,0.040283203125,-0.99560546875,0.009033203125,-6.66412213740458,0.015267175572519083,-1.2900763358778626
8.85,0.029541015625,-1.00732421875,-0.0224609375,-1.9694656488549618,-0.11450381679389313,-1.381679389312977
8.86,0.033203125,-0.999755859375,-0.026611328125,3.66412213740458,-0.09923664122137404,-1.5648854961832062
8.87,0.034423828125,-1.01513671875,0.022705078125,4.931297709923665,-0.12213740458015267,-1.5801526717557253
8.88,0.037841796875,-0.9931640625,0.067626953125,1.1068702290076335,-0.022900763358778626,-1.4122137404580153
8.89,0.036376953125,-0.99755859375,0.062255859375,-3.0763358778625953,-0.1984732824427481,-1.2366412213740459
8.9,0.041748046875,-1.000732421875,0.0048828125,-4.137404580152672,-0.10687022900763359,-1.4122137404580153
8.91,0.038330078125,-1.002685546875,-0.0009765625,-1.618320610687023,-0.0916030534351145,-1.3358778625954197
8.92,0.02978515625,-1.005615234375,0.008544921875,0.7022900763358778,-0.16793893129770993,-1.4045801526717556
8.93,0.039306640625,-1.0029296875,0.028076171875,1.2290076335877862,-0.08396946564885496,-1.3969465648854962
8.94,0.038330078125,-1.001953125,0.031005859375,1.8244274809160306,-0.05343511450381679,-1.4122137404580153
8.95,0.03515625,-1.01025390625,0.02197265625,-1.5114503816793894,-0.13740458015267176,-1.3358778625954197
8.96,0.0380859375,-1.002685546875,0.018798828125,-1.0610687022900764,-0.1297709923664122,-1.2671755725190839
8.97,0.03662109375,-1.003173828125,0.00732421875,0.19083969465648856,-0.16030534351145037,-1.4885496183206106
8.98,0.03564453125,-0.999267578125,0.0166015625,1.1297709923664123,-0.10687022900763359,-1.4045801526717556
8.99,0.03515625,-0.995849609375,0.037353515625,0.8091603053435115,-0.09923664122137404,-1.381679389312977
9.0,0.036376953125,-0.9990234375,0.052490234375,-1.5572519083969465,0.06870229007633588,-1.3129770992366412
9.01,0.038330078125,-0.98828125,0.031982421875,-2.7709923664122136,-0.2366412213740458,-1.2213740458015268
9.02,0.04638671875,-1.0146484375,-0.009033203125,-1.4427480916030535,-0.12213740458015267,-1.3053435114503817
9.03,0.046875,-1.0146484375,0.01416015625,1.1145038167938932,0.16793893129770993,-1.4732824427480915
9.04,0.034423828125,-1.003173828125,0.02099609375,1.4809160305343512,-0.061068702290076333,-1.450381679389313
9.05,0.021484375,-0.988525390625,0.048583984375,-0.3893129770992366,-1.9312977099236641,-1.465648854961832
9.06,0.03515625,-1.00146484375,0.013671875,0.5419847328244275,0.5038167938931297,-1.4732824427480915
9.07,0.03564453125,-0.997314453125,0.05029296875,-2.183206106870229,-0.06870229007633588,-1.3587786259541985
9.08,0.046142578125,-0.996826171875,0.025146484375,-5.786259541984733,0.06870229007633588,-1.1984732824427482
9.09,0.0439453125,-1.00537109375,-0.00927734375,-1.0229007633587786,-0.2595419847328244,-1.4732824427480915
9.1,0.030029296875,-1.01171875,-0.00146484375,2.564885496183206,-0.3282442748091603,-1.5190839694656488
9.11,0.0390625,-0.998291015625,0.0615234375,1.549618320610687,-0.061068702290076333,-1.16793893129771
9.12,0.039306640625,-0.996826171875,0.0634765625,-3.786259541984733,0.04580152671755725,-1.1755725190839694
9.13,0.0400390625,-1.00439453125,-0.004150390625,-3.6030534351145036,-0.15267175572519084,-1.2442748091603053
9.14,0.017822265625,-0.99951171875,-0.02734375,1.549618320610687,0.11450381679389313,-1.4274809160305344
9.15,0.039306640625,-1.0078125,-0.001220703125,5.549618320610687,-0.11450381679389313,-1.5648854961832062
9.16,0.036865234375,-0.98681640625,0.04736328125,3.4656488549618323,-0.22900763358778625,-1.5648854961832062
9.17,0.04150390625,-0.995849609375,0.08203125,-2.687022900763359,-0.09923664122137404,-1.1603053435114503
9.18,0.037353515625,-0.993896484375,0.05517578125,-7.213740458015267,-0.13740458015267176,-1.16793893129771
9.19,0.036865234375,-1.0009765625,-0.026123046875,-4.351145038167939,-0.08396946564885496,-1.297709923664122
9.2,0.03759765625,-1.00439453125,-0.02783203125,2.8396946564885495,0.0,-1.366412213740458
9.21,0.0361328125,-0.997314453125,0.021484375,5.557251908396947,-0.0916030534351145,-1.6412213740458015
9.22,0.040283203125,-0.99609375,0.06787109375,2.282442748091603,-0.15267175572519084,-1.4122137404580153
9.23,0.041748046875,-0.98876953125,0.08837890625,-4.5038167938931295,-0.0916030534351145,-1.1603053435114503
9.24,0.033935546875,-0.997802734375,0.03125,-7.549618320610687,-1.9236641221374047,-1.099236641221374
9.25,0.033935546875,-1.0068359375,-0.02587890625,-3.3969465648854964,-0.183206106870229,-1.4732824427480915
9.26,0.039794921875,-1.00439453125,-0.03955078125,3.4122137404580153,0.10687022900763359,-1.4427480916030535
9.27,0.030029296875,-1.005859375,0.00146484375,7.0458015267175576,-1.8625954198473282,-1.534351145038168
9.28,0.0439453125,-1.00048828125,0.060546875,4.106870229007634,-0.09923664122137404,-1.5725190839694656
9.29,0.03759765625,-0.995361328125,0.08837890625,-3.0229007633587788,-0.11450381679389313,-1.381679389312977
9.3,0.03759765625,-1.0009765625,0.043701171875,-6.3816793893129775,1.8625954198473282,-1.2213740458015268
9.31,0.032958984375,-1.001953125,-0.00439453125,-5.0458015267175576,1.8702290076335877,-1.2290076335877862
9.32,0.03271484375,-1.011962890625,-0.005126953125,-0.5343511450381679,0.11450381679389313,-1.381679389312977
9.33,0.03955078125,-1.001953125,-0.001953125,2.801526717557252,1.8549618320610688,-1.3282442748091603
9.34,0.034423828125,-1.004638671875,0.03564453125,2.8396946564885495,1.9465648854961832,-1.5114503816793894
9.35,0.037353515625,-0.99072265625,0.051513671875,0.25190839694656486,0.07633587786259542,-1.3435114503816794
9.36,0.03759765625,-1.003173828125,0.03515625,-1.3511450381679388,-0.09923664122137404,-1.4274809160305344
9.37,0.038330078125,-1.007080078125,0.024169921875,-0.5419847328244275,0.08396946564885496,-1.3969465648854962
9.38,0.039306640625,-0.9912109375,0.0234375,-0.45038167938931295,-0.25190839694656486,-1.3740458015267176
9.39,0.0361328125,-0.998291015625,0.021728515625,-1.6946564885496183,-0.1450381679389313,-1.450381679389313
9.4,0.032958984375,-0.998779296875,0.025390625,-2.648854961832061,-0.022900763358778626,-1.2671755725190839
9.41,0.02880859375,-1.008544921875,0.00537109375,-1.3587786259541985,1.900763358778626,-1.3969465648854962
9.42,0.018798828125,-0.999755859375,-0.005126953125,1.0076335877862594,-0.22137404580152673,-1.5419847328244274
9.43,0.03369140625,-0.988525390625,0.01904296875,2.5419847328244276,-0.26717557251908397,-1.6259541984732824
9.44,0.034912109375,-1.001708984375,0.04345703125,1.3129770992366412,-0.030534351145038167,-1.4198473282442747
9.45,0.036376953125,-1.001708984375,0.048828125,-1.5419847328244274,-0.007633587786259542,-1.251908396946565
9.46,0.0380859375,-1.002197265625,0.03662109375,-3.183206106870229,0.03816793893129771,-1.2213740458015268
9.47,0.0390625,-0.99755859375,0.008056640625,-2.2061068702290076,0.05343511450381679,-1.3358778625954197
9.48,0.03564453125,-1.001708984375,0.002197265625,-0.022900763358778626,-0.2900763358778626,-1.5572519083969465
9.49,0.040283203125,-1.00390625,0.009765625,1.450381679389313,0.2824427480916031,-1.4274809160305344
9.5,0.037353515625,-0.998046875,0.0263671875,1.0916030534351144,-0.0916030534351145,-1.4885496183206106
9.51,0.03662109375,-0.998046875,0.044921875,-0.549618320610687,-0.030534351145038167,-1.2595419847328244
9.52,0.036865234375,-1.000244140625,0.03857421875,-1.2442748091603053,0.030534351145038167,-1.3969465648854962
9.53,0.03369140625,-0.998291015625,0.002685546875,-1.015267175572519,-0.061068702290076333,-1.2595419847328244
9.54,0.03369140625,-0.99853515625,0.023193359375,-0.8473282442748091,0.22137404580152673,-1.450381679389313
9.55,0.035400390625,-0.999755859375,0.013427734375,-0.37404580152671757,0.007633587786259542,-1.549618320610687
9.56,0.037841796875,-1.00341796875,0.02099609375,-0.0916030534351145,-0.22900763358778625,-1.549618320610687
9.57,0.034912109375,-1.0146484375,0.0185546875,0.0916030534351145,-0.1984732824427481,-1.381679389312977
9.58,0.036865234375,-1.005126953125,0.040771484375,-0.3969465648854962,-0.1984732824427481,-1.5419847328244274
9.59,0.019287109375,-0.99951171875,0.015869140625,-0.7480916030534351,-0.19083969465648856,-1.4809160305343512
9.6,0.031494140625,-1.0,0.0302734375,-0.6946564885496184,0.0916030534351145,-1.4198473282442747
9.61,0.036376953125,-1.000732421875,0.01513671875,-0.4580152671755725,0.16030534351145037,-1.3587786259541985
9.62,0.03369140625,-1.000244140625,0.01708984375,-0.20610687022900764,-0.05343511450381679,-1.251908396946565
9.63,0.034423828125,-1.0029296875,0.0322265625,-0.3053435114503817,-0.11450381679389313,-1.4045801526717556
9.64,0.03564453125,-0.99267578125,0.015380859375,-0.7480916030534351,-0.2748091603053435,-1.4198473282442747
9.65,0.040771484375,-0.98583984375,0.02099609375,-0.4580152671755725,-0.21374045801526717,-1.2290076335877862
9.66,0.03955078125,-1.004150390625,0.020263671875,-0.4961832061068702,-0.07633587786259542,-1.5648854961832062
9.67,0.031982421875,-0.997314453125,0.02001953125,-0.4351145038167939,-0.1450381679389313,-1.366412213740458
9.68,0.029541015625,-1.002197265625,0.027099609375,-0.6717557251908397,0.16793893129770993,-1.5267175572519085
9.69,0.039306640625,-1.0009765625,0.019287109375,-0.6412213740458015,0.03816793893129771,-1.5877862595419847
9.7,0.04150390625,-0.99853515625,0.025634765625,-0.16030534351145037,-0.10687022900763359,-1.3053435114503817
9.71,0.03271484375,-1.014404296875,0.022216796875,0.0,0.16030534351145037,-1.4122137404580153
9.72,0.033935546875,-0.99169921875,0.029541015625,-0.15267175572519084,0.022900763358778626,-1.4045801526717556
9.73,0.033203125,-1.000244140625,0.030517578125,-0.6564885496183206,-1.9389312977099236,-1.3129770992366412
9.74,0.0380859375,-1.000732421875,0.021240234375,-0.732824427480916,-0.015267175572519083,-1.381679389312977
9.75,0.041259765625,-1.00244140625,0.024658203125,-0.8015267175572519,-1.9465648854961832,-1.2366412213740459
9.76,0.03759765625,-1.0078125,0.02490234375,-0.366412213740458,0.21374045801526717,-1.2900763358778626
9.77,0.036865234375,-0.998291015625,0.02294921875,-0.007633587786259542,0.007633587786259542,-1.213740458015267
9.78,0.033447265625,-1.006103515625,0.01416015625,-0.19083969465648856,-1.8854961832061068,-1.549618320610687
9.79,0.0390625,-1.014404296875,0.0419921875,-0.4122137404580153,-0.3053435114503817,-1.381679389312977
9.8,0.035888671875,-1.01416015625,0.024169921875,-0.5801526717557252,-0.04580152671755725,-1.2061068702290076
9.81,0.034912109375,-1.004638671875,0.020751953125,-0.9083969465648855,-0.08396946564885496,-1.3282442748091603
9.82,0.036865234375,-1.000732421875,0.023681640625,-0.7633587786259542,-0.29770992366412213,-1.4427480916030535
9.83,0.0361328125,-0.99609375,0.015380859375,-0.44274809160305345,-0.12213740458015267,-1.3893129770992367
9.84,0.038330078125,-1.001708984375,0.031005859375,-0.2824427480916031,-0.12213740458015267,-1.366412213740458
9.85,0.042724609375,-1.003662109375,0.018798828125,0.29770992366412213,-0.11450381679389313,-1.4427480916030535
9.86,0.037109375,-0.99560546875,0.025390625,1.9083969465648856,-0.11450381679389313,-1.3969465648854962
9.87,0.03759765625,-0.98779296875,0.023193359375,-0.29770992366412213,0.03816793893129771,-1.4351145038167938
9.88,0.035400390625,-0.995361328125,0.021484375,-0.7557251908396947,-0.11450381679389313,-1.3358778625954197
9.89,0.03955078125,-0.99560546875,0.02294921875,-1.2366412213740459,0.03816793893129771,-1.4198473282442747
9.9,0.03564453125,-1.001708984375,0.0224609375,-0.648854961832061,-0.10687022900763359,-1.5267175572519085
9.91,0.030517578125,-0.996337890625,0.010498046875,0.1984732824427481,-0.24427480916030533,-1.4198473282442747
9.92,0.01904296875,-0.987548828125,0.02734375,0.31297709923664124,-0.07633587786259542,-1.381679389312977
9.93,0.036865234375,-1.01513671875,0.024169921875,-0.10687022900763359,1.900763358778626,-1.3358778625954197
9.94,0.031982421875,-0.992431640625,0.0263671875,-0.6870229007633588,-0.19083969465648856,-1.366412213740458
9.95,0.040771484375,-1.0029296875,0.021484375,-1.5114503816793894,0.061068702290076333,-1.2061068702290076
9.96,0.03955078125,-0.998046875,0.021484375,-1.2366412213740459,-0.03816793893129771,-1.2061068702290076
9.97,0.04052734375,-0.99609375,0.00830078125,-1.9236641221374047,0.0916030534351145,-1.3435114503816794
9.98,0.0283203125,-0.994873046875,0.017578125,1.2442748091603053,-0.2366412213740458,-1.549618320610687
9.99,0.037841796875,-0.986083984375,0.038330078125,0.2900763358778626,-0.007633587786259542,-1.2748091603053435
10.0,0.038330078125,-1.000732421875,0.032958984375,-1.083969465648855,-0.2366412213740458,-1.3282442748091603
10.01,0.041015625,-1.006103515625,0.04345703125,-1.7938931297709924,0.15267175572519084,-1.16793893129771
10.02,0.04150390625,-1.001220703125,0.017578125,-1.5267175572519085,-0.06870229007633588,-1.3969465648854962
10.03,0.033203125,-1.001708984375,0.00048828125,-0.1297709923664122,-0.07633587786259542,-1.534351145038168
10.04,0.03759765625,-1.003662109375,0.008056640625,1.2900763358778626,-0.22900763358778625,-1.5190839694656488
10.05,0.0390625,-1.002197265625,0.0322265625,1.213740458015267,-0.0916030534351145,-1.465648854961832
10.06,0.0341796875,-1.00048828125,0.040771484375,-0.7175572519083969,-0.0916030534351145,-1.2213740458015268
10.07,0.039794921875,-0.98828125,0.043212890625,-2.068702290076336,-0.05343511450381679,-1.3206106870229009
10.08,0.03564453125,-1.001708984375,0.0078125,-1.7786259541984732,-0.13740458015267176,-1.2290076335877862
10.09,0.0341796875,-0.987548828125,0.010009765625,-0.4732824427480916,0.030534351145038167,-1.4122137404580153
10.1,0.032958984375,-0.99853515625,0.01611328125,0.22137404580152673,-0.2748091603053435,-1.381679389312977
10.11,0.03564453125,-0.994384765625,0.01904296875,0.6717557251908397,-0.16030534351145037,-1.366412213740458
10.12,0.02490234375,-0.99267578125,0.026123046875,0.1984732824427481,-0.26717557251908397,-1.1908396946564885
10.13,0.037353515625,-0.9990234375,0.02734375,-0.6106870229007634,-0.07633587786259542,-1.4351145038167938
10.14,0.0380859375,-1.014892578125,0.02734375,-0.9389312977099237,-0.09923664122137404,-1.2595419847328244
10.15,0.044677734375,-0.99755859375,0.025634765625,-0.8320610687022901,1.9312977099236641,-1.3206106870229009
10.16,0.03564453125,-0.99755859375,0.019287109375,-0.4122137404580153,-0.08396946564885496,-1.3053435114503817
10.17,0.031982421875,-0.99609375,0.012451171875,-1.8854961832061068,-0.12213740458015267,-1.4809160305343512
10.18,0.033203125,-0.997802734375,0.014892578125,0.5877862595419847,-0.17557251908396945,-1.3969465648854962
10.19,0.04150390625,-0.997314453125,0.035400390625,-0.2900763358778626,-0.007633587786259542,-1.2671755725190839
10.2,0.038818359375,-1.00146484375,0.02587890625,-1.4427480916030535,-1.9465648854961832,-1.2671755725190839
10.21,0.041748046875,-0.986328125,0.010498046875,-1.4351145038167938,-0.07633587786259542,-1.366412213740458
10.22,0.0400390625,-1.008544921875,0.00439453125,0.5419847328244275,-0.04580152671755725,-1.5114503816793894
10.23,0.031982421875,-0.99560546875,0.021484375,1.3053435114503817,-1.9541984732824427,-1.465648854961832
10.24,0.02978515625,-1.001220703125,0.043212890625,-0.25190839694656486,-0.022900763358778626,-1.4274809160305344
10.25,0.036376953125,-0.994873046875,0.041015625,-1.8778625954198473,-0.21374045801526717,-1.2290076335877862
10.26,0.042724609375,-0.99853515625,0.020263671875,-1.7633587786259541,-0.1297709923664122,-1.381679389312977
10.27,0.04150390625,-1.0048828125,0.014892578125,-0.5648854961832062,0.03816793893129771,-1.4351145038167938
10.28,0.0390625,-0.98486328125,0.005126953125,0.5572519083969466,-0.07633587786259542,-1.450381679389313
10.29,0.03369140625,-0.986328125,0.028564453125,0.549618320610687,-0.17557251908396945,-1.4732824427480915
10.3,0.031982421875,-0.99658203125,0.02734375,-0.48091603053435117,0.17557251908396945,-1.3053435114503817
10.31,0.031982421875,-0.998779296875,0.01904296875,-1.2748091603053435,-0.022900763358778626,-1.1984732824427482
10.32,0.0380859375,-0.9990234375,0.012451171875,-0.6564885496183206,0.05343511450381679,-1.4427480916030535
10.33,0.04150390625,-1.003662109375,0.035400390625,0.04580152671755725,-0.03816793893129771,-1.2900763358778626
10.34,0.040771484375,-1.002685546875,0.031005859375,-0.3282442748091603,-0.06870229007633588,-1.4198473282442747
10.35,0.041259765625,-0.999755859375,0.027587890625,-0.8015267175572519,0.12213740458015267,-1.366412213740458
10.36,0.039306640625,-0.99853515625,0.0224609375,-1.251908396946565,-0.1984732824427481,-1.3129770992366412
10.37,0.03369140625,-1.008544921875,0.003173828125,-0.37404580152671757,-0.09923664122137404,-1.251908396946565
10.38,0.0341796875,-0.996337890625,0.013916015625,0.5114503816793893,0.12213740458015267,-1.4885496183206106
10.39,0.03271484375,-1.000732421875,0.026611328125,0.5648854961832062,0.0,-1.4045801526717556
10.4,0.044677734375,-0.996337890625,0.03369140625,-0.48854961832061067,0.16793893129770993,-1.2290076335877862
10.41,0.037109375,-0.996826171875,0.025146484375,-1.5648854961832062,-0.030534351145038167,-1.2213740458015268
10.42,0.04150390625,-0.99853515625,0.01806640625,-1.4732824427480915,-1.9465648854961832,-1.2366412213740459
10.43,0.0380859375,-1.015380859375,0.0068359375,1.916030534351145,-0.06870229007633588,-1.450381679389313
10.44,0.0400390625,-1.014892578125,0.023193359375,0.9694656488549618,-0.0916030534351145,-1.4045801526717556
10.45,0.037353515625,-0.990966796875,0.043212890625,0.16793893129770993,0.12213740458015267,-1.4732824427480915
10.46,0.03759765625,-0.9990234375,0.040283203125,-1.0610687022900764,-0.061068702290076333,-1.450381679389313
10.47,0.028076171875,-1.00048828125,0.015869140625,-1.1984732824427482,-0.183206106870229,-1.282442748091603
10.48,0.035400390625,-1.008544921875,0.012939453125,-0.35877862595419846,-0.16793893129770993,-1.3358778625954197
10.49,0.0361328125,-1.0146484375,0.024658203125,-0.07633587786259542,-0.1450381679389313,-1.4427480916030535
10.5,0.036865234375,-0.98779296875,0.02587890625,-0.3816793893129771,0.03816793893129771,-1.282442748091603
10.51,0.04150390625,-0.999755859375,0.02294921875,-0.44274809160305345,-0.17557251908396945,-1.1908396946564885
10.52,0.0341796875,-1.005126953125,0.043212890625,-0.2748091603053435,-0.29770992366412213,-1.366412213740458
10.53,0.03369140625,-1.002685546875,0.02783203125,-0.3969465648854962,-0.183206106870229,-1.4885496183206106
10.54,0.038818359375,-1.004638671875,0.026611328125,-0.35877862595419846,-0.22900763358778625,-1.2900763358778626
10.55,0.03662109375,-0.992919921875,0.022705078125,-0.17557251908396945,0.022900763358778626,-1.5038167938931297
10.56,0.037353515625,-1.0126953125,0.02294921875,-0.26717557251908397,-0.07633587786259542,-1.3206106870229009
10.57,0.03466796875,-1.0029296875,0.037109375,-1.16793893129771,-0.1450381679389313,-1.465648854961832
10.58,0.041015625,-0.987548828125,0.017822265625,-1.1984732824427482,-0.15267175572519084,-1.2595419847328244
10.59,0.041015625,-1.00341796875,0.0234375,-0.12213740458015267,-0.08396946564885496,-1.450381679389313
10.6,0.035888671875,-1.00244140625,0.00634765625,0.7938931297709924,-0.2748091603053435,-1.450381679389313
10.61,0.034912109375,-0.994384765625,0.034912109375,0.15267175572519084,-1.9541984732824427,-1.5572519083969465
10.62,0.031982421875,-1.001708984375,0.025146484375,-1.2442748091603053,-0.29770992366412213,-1.3740458015267176
10.63,0.0400390625,-0.9990234375,0.016357421875,-1.6946564885496183,0.19083969465648856,-1.1984732824427482
10.64,0.034423828125,-1.013671875,0.008056640625,-1.1145038167938932,-0.08396946564885496,-1.4274809160305344
10.65,0.017822265625,-1.0068359375,0.00439453125,0.2595419847328244,1.9465648854961832,-1.5725190839694656
10.66,0.0400390625,-1.004638671875,0.02783203125,0.5725190839694656,-0.08396946564885496,-1.4885496183206106
10.67,0.03759765625,-1.0009765625,0.034912109375,0.183206106870229,1.9236641221374047,-1.3740458015267176
10.68,0.034912109375,-1.004150390625,0.03662109375,-0.8778625954198473,-0.16030534351145037,-1.2366412213740459
10.69,0.039306640625,-0.995849609375,0.0224609375,-1.450381679389313,-0.04580152671755725,-1.3129770992366412
10.7,0.03125,-1.00146484375,0.0224609375,-0.7557251908396947,-0.0916030534351145,-1.3587786259541985
10.71,0.039794921875,-1.013671875,0.024658203125,0.03816793893129771,0.04580152671755725,-1.3206106870229009
10.72,0.0322265625,-0.986572265625,0.025146484375,0.3282442748091603,1.916030534351145,-1.4427480916030535
10.73,0.03759765625,-0.998046875,0.0419921875,-0.1297709923664122,-0.1297709923664122,-1.366412213740458
10.74,0.0341796875,-1.001220703125,0.029296875,-0.7557251908396947,1.9312977099236641,-1.1297709923664123
10.75,0.042236328125,-0.999755859375,0.01025390625,-0.8473282442748091,1.9465648854961832,-1.450381679389313
10.76,0.042724609375,-0.99658203125,0.01318359375,-0.8396946564885496,-0.22137404580152673,-1.4961832061068703
10.77,0.039306640625,-1.00048828125,0.029296875,-0.3969465648854962,-0.1984732824427481,-1.3206106870229009
10.78,0.045166015625,-0.98583984375,0.01123046875,0.4122137404580153,1.9236641221374047,-1.4351145038167938
10.79,0.032470703125,-0.988037109375,0.015869140625,0.9847328244274809,-0.061068702290076333,-1.4198473282442747
10.8,0.03076171875,-1.000244140625,0.032470703125,0.3053435114503817,-0.20610687022900764,-1.3129770992366412
10.81,0.03955078125,-1.001953125,0.043701171875,-0.06870229007633588,-0.09923664122137404,-1.213740458015267
10.82,0.037353515625,-0.9951171875,0.022705078125,-3.183206106870229,-0.16030534351145037,-1.4045801526717556
10.83,0.036376953125,-1.000244140625,-0.001953125,-1.5954198473282444,-0.07633587786259542,-1.2061068702290076
10.84,0.038330078125,-0.999755859375,0.003173828125,0.7862595419847328,-0.24427480916030533,-1.465648854961832
10.85,0.033935546875,-1.00048828125,0.012939453125,2.4427480916030535,-0.26717557251908397,-1.4274809160305344
10.86,0.045166015625,-1.01513671875,0.020751953125,2.519083969465649,0.16030534351145037,-1.3740458015267176
10.87,0.03173828125,-0.99853515625,0.062255859375,0.007633587786259542,-0.007633587786259542,-1.3358778625954197
10.88,0.031494140625,-0.9951171875,0.049560546875,-2.83206106870229,0.007633587786259542,-1.2900763358778626
10.89,0.03955078125,-0.999755859375,0.029296875,-4.022900763358779,-0.16793893129770993,-1.4809160305343512
10.9,0.042724609375,-1.0068359375,-0.00244140625,-2.549618320610687,0.0,-1.2595419847328244
10.91,0.03466796875,-1.0087890625,-0.009765625,0.45038167938931295,-1.9312977099236641,-1.4580152671755726
10.92,0.018310546875,-1.00830078125,0.002197265625,3.381679389312977,0.022900763358778626,-1.6488549618320612
10.93,0.02294921875,-1.027587890625,0.0517578125,2.9389312977099236,-1.9465648854961832,-1.6564885496183206
10.94,0.043701171875,-0.98828125,0.049072265625,0.2900763358778626,0.20610687022900764,-1.4274809160305344
10.95,0.028076171875,-0.98583984375,0.05419921875,-3.3206106870229006,0.03816793893129771,-1.2290076335877862
10.96,0.0322265625,-0.98681640625,0.0146484375,-5.587786259541985,0.05343511450381679,-1.213740458015267
10.97,0.043212890625,-1.00390625,-0.01513671875,-2.717557251908397,1.9236641221374047,-1.450381679389313
10.98,0.0361328125,-0.995361328125,0.003662109375,0.4580152671755725,-0.2900763358778626,-1.4351145038167938
10.99,0.037353515625,-0.985107421875,0.025634765625,1.6641221374045803,-0.366412213740458,-1.6030534351145038
11.0,0.01904296875,-1.013916015625,0.021728515625,0.46564885496183206,-0.17557251908396945,-1.4580152671755726
