Time,AccX,AccY,AccZ,GyroX,GyroY,GyroZ
1747959981.077243,-0.7477482809888145,-0.33453338958410483,1.5697925190033764,0.4267536486963294,0.5091525346406519,0.49205624040123763
1747959981.092418,-0.77332322830941,-0.32389854735333656,1.5728686646813936,0.4289022324837637,0.5422106963051556,0.49665692257026595
1747959981.1076145,-0.7665032423572513,-0.31899015863144364,1.559245733821603,0.43011081086419545,0.5447433780455814,0.493896513268849
1747959981.1227763,-0.7790065499362089,-0.32348951495984557,1.5873704943063316,0.42984223789076614,0.5439435838117627,0.493896513268849
1747959981.137936,-0.777869885610849,-0.32267145017286336,1.5649585757950635,0.43037938383762475,0.5422106963051556,0.49803712722097443
1747959981.1531057,-0.7585465920797325,-0.3267617741077743,1.5737475634465412,0.4299765243774808,0.5420773972661859,0.49113610396743196
1747959981.1682668,-0.767639906682611,-0.3324882276166494,1.555730138761012,0.4309165297844833,0.5418107991882464,0.49757705900407156
1747959981.1834228,-0.7761648891228095,-0.3243075797468278,1.559685183204177,0.4293050919439076,0.5424772943830952,0.4936664791603975
1747959981.1985798,-0.7625249172184918,-0.3283979036817385,1.5491383980224038,0.42661936220961477,0.5406111078375184,0.4934364450519461
1747959981.213737,-0.767639906682611,-0.3283979036817385,1.564079677029916,0.4240679189620366,0.577268343554206,0.49849719543787724
1747959981.2288945,-0.767639906682611,-0.32267145017286336,1.5878099436889055,0.4326622541117736,0.5434103876558836,0.497807093112523
1747959981.2440534,-0.7721865639840502,-0.3288069360752297,1.5500172967875514,0.4279622270767612,0.5402112107206091,0.4934364450519461
1747959981.2592125,-0.777869885610849,-0.330852098042685,1.5535328918481428,0.4315879622180565,0.5408777059154579,0.4959668202449117
1747959981.2743716,-0.7693449031706505,-0.3259437093207921,1.57023196838595,0.4322593946516297,0.5456764713183697,0.4932064109434947
1747959981.2895315,-0.7784382177735292,-0.32144435299239016,1.5755053609768368,0.430647956811054,0.5095524317575613,0.49044600164207774
1747959981.304692,-0.7727548961467301,-0.33862371351901577,1.5570484869087338,0.4302450973509101,0.5447433780455814,0.4936664791603975
1747959981.3198507,-0.777869885610849,-0.32144435299239016,1.5649585757950635,0.4311851027579126,0.5403445097595788,0.49711699078716876
1747959981.335009,-0.8125381475343232,-0.31858112623795254,1.551775094317847,0.42849937302361973,0.5424772943830952,0.49688695667871735
1747959981.3501644,-0.7716182318213702,-0.32021725581191685,1.5693530696208025,0.4309165297844833,0.5423439953441255,0.493896513268849
1747959981.3653228,-0.7863948680510477,-0.3328972600101404,1.5658374745602115,0.43172224870477116,0.5408777059154579,0.4932064109434947
1747959981.3804777,-0.7488849453141742,-0.3320791952231583,1.5807787535677233,0.42809651356347583,0.5395447155257602,0.4899859334251749
1747959981.3956342,-0.7812798785869286,-0.32144435299239016,1.5803393041851495,0.43145367573134186,0.5419440982272161,0.49688695667871735
1747959981.410793,-0.7625249172184918,-0.3251256445338099,1.559245733821603,0.42567935680261226,0.5400779116816393,0.49113610396743196
1747959981.425954,-0.7619565850558119,-0.3251256445338099,1.570671417768524,0.4319908216782004,0.5424772943830952,0.4918262062927862
1747959981.4411118,-0.7630932493811717,-0.32389854735333656,1.5755053609768368,0.4293050919439076,0.5439435838117627,0.49067603575052915
1747959981.4562688,-0.7835532072376483,-0.32471661214031877,1.566716373325359,0.42769365410333193,0.5444767799676418,0.49895726365478005
1747959981.4714265,-0.7755965569601295,-0.32267145017286336,1.563200778264768,0.43212510816491506,0.5446100790066115,0.49412654737730033
1747959981.4865825,-0.77332322830941,-0.32308048256635447,1.5781420572722802,0.42782794059004653,0.5451432751624906,0.4876855923406608
1747959981.501739,-0.7892365288644472,-0.3148998346965327,1.5689136202382283,0.43279654059848827,0.542610593422065,0.4943565814857518
1747959981.5168946,-0.7693449031706505,-0.330852098042685,1.5610035313518986,0.42836508653690514,0.5770017454762665,0.49228627450968904
1747959981.5320563,-0.7773015534481693,-0.3263527417142832,1.57023196838595,0.42782794059004653,0.5456764713183697,0.497807093112523
1747959981.5472078,-0.7744598926347697,-0.3328972600101404,1.5588062844390294,0.4289022324837637,0.5415442011103068,0.4927463427265919
1747959981.5623646,-0.7699132353333307,-0.31858112623795254,1.566716373325359,0.4293050919439076,0.5408777059154579,0.49251630861814044
1747959981.5775225,-0.7699132353333307,-0.32185338538588126,1.5662769239427852,0.43145367573134186,0.5406111078375184,0.49688695667871735
1747959981.5926821,-0.7693449031706505,-0.3337153247971226,1.5785815066548539,0.4282308000501905,0.5418107991882464,0.4936664791603975
1747959981.607838,-0.7528632704529337,-0.32308048256635447,1.5675952720905069,0.42742508112990263,0.5431437895779441,0.49895726365478005
1747959981.6229904,-0.7613882528931322,-0.3275798388947564,1.5693530696208025,0.42984223789076614,0.5091525346406519,0.4952767179195574
1747959981.6381464,-0.7647982458692115,-0.3275798388947564,1.5504567461701255,0.43172224870477116,0.5766018483593571,0.49895726365478005
1747959981.6533036,-0.7602515885677723,-0.3271708065012653,1.5763842597419846,0.4289022324837637,0.5427438924610347,0.49205624040123763
1747959981.6684616,-0.7704815674960104,-0.330443065649194,1.5645191264124898,0.427290794643188,0.5410110049544277,0.49757705900407156
1747959981.6836195,-0.77389156047209,-0.32267145017286336,1.5785815066548539,0.4311851027579126,0.5459430693963093,0.49826716132942583
1747959981.698775,-0.7699132353333307,-0.32144435299239016,1.5794604054200019,0.4315879622180565,0.5431437895779441,0.4961968543533631
1747959981.7139337,-0.7875315323764076,-0.3251256445338099,1.5785815066548539,0.43011081086419545,0.5399446126426695,0.49918729776323145
1747959981.7290933,-0.7699132353333307,-0.3271708065012653,1.5588062844390294,0.4282308000501905,0.5771350445152362,0.4959668202449117
1747959981.744252,-0.7625249172184918,-0.3271708065012653,1.564079677029916,0.43051367032433935,0.5471427607470373,0.4959668202449117
1747959981.7594173,-0.7682082388452909,-0.33657855155156013,1.5693530696208025,0.42903651897047834,0.544343480928672,0.49228627450968904
1747959981.774575,-0.7784382177735292,-0.32348951495984557,1.5495778474049775,0.4315879622180565,0.5380784260970927,0.49044600164207774
1747959981.7897327,-0.767639906682611,-0.3435321022409087,1.5803393041851495,0.43105081627119796,0.5430104905389743,0.5012576047392943
1747959981.8048956,-0.7687765710079708,-0.31776306145097044,1.5407888597535,0.42970795140405155,0.5434103876558836,0.4932064109434947
1747959981.8200514,-0.7647982458692115,-0.31980822341842585,1.555730138761012,0.4313193892446272,0.5431437895779441,0.4964268884618145
1747959981.8352067,-0.7682082388452909,-0.3267617741077743,1.567155822707933,0.4302450973509101,0.5435436866948534,0.49090606985898055
1747959981.8503652,-0.7727548961467301,-0.3271708065012653,1.5601246325867508,0.4302450973509101,0.5446100790066115,0.4936664791603975
1747959981.865524,-0.7699132353333307,-0.3320791952231583,1.5724292152988195,0.4318565351914858,0.541410902071337,0.4959668202449117
1747959981.8806813,-0.7687765710079708,-0.30262886289180035,1.566716373325359,0.4282308000501905,0.5424772943830952,0.4932064109434947
1747959981.8958414,-0.77332322830941,-0.3263527417142832,1.5675952720905069,0.42984223789076614,0.5422106963051556,0.4934364450519461
1747959981.9110005,-0.77332322830941,-0.3292159684687207,1.5697925190033764,0.4309165297844833,0.5403445097595788,0.49412654737730033
1747959981.9261596,-0.767639906682611,-0.33576048676457815,1.571550316533672,0.42809651356347583,0.5092858336796217,0.4934364450519461
1747959981.9413204,-0.7716182318213702,-0.3279888712882475,1.5579273856738813,0.43105081627119796,0.5422106963051556,0.4932064109434947
1747959981.9564779,-0.7755965569601295,-0.3275798388947564,1.5737475634465412,0.4302450973509101,0.5428771915000045,0.4932064109434947
1747959981.9716358,-0.7761648891228095,-0.31776306145097044,1.5482594992572558,0.43051367032433935,0.5462096674742488,0.4957367861364603
1747959981.9867969,-0.7682082388452909,-0.3296250008622118,1.555730138761012,0.4336022595187761,0.5404778087985486,0.493896513268849
1747959982.0019555,-0.8187898013238022,-0.2981295065633984,1.559245733821603,0.4331994000586322,0.5391448184088509,0.4918262062927862
1747959982.0171137,-0.7659349101945712,-0.3431230698474177,1.5478200498746821,0.43037938383762475,0.5400779116816393,0.49412654737730033
1747959982.0322752,-0.7721865639840502,-0.3279888712882475,1.5478200498746821,0.4331994000586322,0.5423439953441255,0.4964268884618145
1747959982.0474331,-0.7716182318213702,-0.330852098042685,1.5662769239427852,0.4315879622180565,0.5428771915000045,0.495046683811106
1747959982.0625916,-0.7591149242424124,-0.3275798388947564,1.544304454814091,0.4279622270767612,0.5419440982272161,0.49412654737730033
1747959982.0777495,-0.7852582037256879,-0.3320791952231583,1.5675952720905069,0.43051367032433935,0.5764685493203874,0.4948166497026546
1747959982.0929053,-0.7704815674960104,-0.3414869402734534,1.5842943486283143,0.4289022324837637,0.5436769857338232,0.49251630861814044
1747959982.1080604,-0.7625249172184918,-0.32389854735333656,1.5460622523443865,0.43011081086419545,0.5412776030323673,0.4899859334251749
1747959982.123218,-0.7773015534481693,-0.330852098042685,1.5675952720905069,0.4258136432893269,0.5411443039933974,0.495046683811106
1747959982.1383753,-0.77389156047209,-0.31776306145097044,1.5627613288821942,0.4302450973509101,0.5410110049544277,0.4945866155942032
1747959982.1535323,-0.7699132353333307,-0.3320791952231583,1.5922044375146445,0.42984223789076614,0.5420773972661859,0.4934364450519461
1747959982.1686904,-0.7693449031706505,-0.33330629240363163,1.5504567461701255,0.43105081627119796,0.5444767799676418,0.49550675202800887
1747959982.1838484,-0.7812798785869286,-0.3279888712882475,1.5794604054200019,0.43172224870477116,0.5412776030323673,0.49688695667871735
1747959982.1990044,-0.7773015534481693,-0.3292159684687207,1.5952805831926615,0.43051367032433935,0.5099523288744705,0.4961968543533631
1747959982.2141623,-0.7773015534481693,-0.33330629240363163,1.5500172967875514,0.4318565351914858,0.5412776030323673,0.493896513268849
1747959982.22932,-0.7818482107496085,-0.31858112623795254,1.5535328918481428,0.4289022324837637,0.5416775001492765,0.4952767179195574
1747959982.244479,-0.7710498996586903,-0.3267617741077743,1.559245733821603,0.43078224329776865,0.5456764713183697,0.4959668202449117
1747959982.2596357,-0.7790065499362089,-0.3312611304361762,1.5645191264124898,0.43306511357191757,0.5408777059154579,0.4929763768350433
1747959982.274793,-0.7750282247974498,-0.32471661214031877,1.5737475634465412,0.42943937843062224,0.5422106963051556,0.49688695667871735
1747959982.28995,-0.7750282247974498,-0.3300340332557029,1.5948411338100876,0.42661936220961477,0.5428771915000045,0.49412654737730033
1747959982.3051076,-0.7761648891228095,-0.32267145017286336,1.564079677029916,0.430647956811054,0.577268343554206,0.493896513268849
1747959982.320261,-0.777869885610849,-0.32348951495984557,1.5724292152988195,0.42702222166975873,0.5762019512424478,0.49550675202800887
1747959982.3354192,-0.7721865639840502,-0.3259437093207921,1.5588062844390294,0.4282308000501905,0.5419440982272161,0.4934364450519461
1747959982.3505764,-0.7591149242424124,-0.3275798388947564,1.5684741708556547,0.42702222166975873,0.5436769857338232,0.49113610396743196
1747959982.365739,-0.7744598926347697,-0.325534676927301,1.5944016844275137,0.43037938383762475,0.5394114164867904,0.4915961721843348
1747959982.380896,-0.7880998645390873,-0.330852098042685,1.5658374745602115,0.42809651356347583,0.5448766770845511,0.4957367861364603
1747959982.3960528,-0.7807115464242487,-0.3251256445338099,1.5807787535677233,0.4295736649173369,0.5399446126426695,0.4952767179195574
1747959982.4112105,-0.7477482809888145,-0.33535145437108693,1.5544117906132904,0.4338708324922054,0.5419440982272161,0.4936664791603975
1747959982.4263682,-0.7659349101945712,-0.33330629240363163,1.5763842597419846,0.4318565351914858,0.5403445097595788,0.4929763768350433
1747959982.4415228,-0.814243144022363,-0.33576048676457815,1.571550316533672,0.4293050919439076,0.5442101818897023,0.49688695667871735
1747959982.4566824,-0.7755965569601295,-0.2997656361373626,1.593083336279792,0.429170805457193,0.5454098732404302,0.49412654737730033
1747959982.471839,-0.7647982458692115,-0.33903274591250676,1.5548512399958643,0.42876794599704904,0.5455431722794,0.49826716132942583
1747959982.4869952,-0.7682082388452909,-0.3337153247971226,1.5601246325867508,0.42849937302361973,0.5410110049544277,0.4943565814857518
1747959982.5021524,-0.7721865639840502,-0.3271708065012653,1.564079677029916,0.42876794599704904,0.5435436866948534,0.4945866155942032
1747959982.517309,-0.767071574519931,-0.31694499666398823,1.5768237091245585,0.4309165297844833,0.544343480928672,0.4945866155942032
1747959982.5324655,-0.7647982458692115,-0.3267617741077743,1.563200778264768,0.42876794599704904,0.5771350445152362,0.4957367861364603
1747959982.5476234,-0.7784382177735292,-0.3312611304361762,1.5948411338100876,0.43051367032433935,0.5450099761235209,0.49757705900407156
1747959982.5627813,-0.7574099277543727,-0.31694499666398823,1.5623218794996203,0.43212510816491506,0.5436769857338232,0.49665692257026595
1747959982.57794,-0.7653665780318912,-0.3259437093207921,1.5684741708556547,0.42836508653690514,0.5454098732404302,0.493896513268849
1747959982.5930946,-0.7704815674960104,-0.32348951495984557,1.5469411511095343,0.42970795140405155,0.5412776030323673,0.4964268884618145
1747959982.6082513,-0.7716182318213702,-0.3328972600101404,1.5658374745602115,0.43051367032433935,0.5767351473983269,0.4959668202449117
1747959982.6234095,-0.8085598223955641,-0.3296250008622118,1.5579273856738813,0.43105081627119796,0.5454098732404302,0.5001074341970372
1747959982.6385667,-0.7704815674960104,-0.3259437093207921,1.57023196838595,0.4311851027579126,0.5440768828507325,0.4897558993167235
1747959982.6537223,-0.7852582037256879,-0.32021725581191685,1.5460622523443865,0.4289022324837637,0.5404778087985486,0.4932064109434947
1747959982.6688802,-0.7892365288644472,-0.3328972600101404,1.5623218794996203,0.42836508653690514,0.5415442011103068,0.4998774000885857
1747959982.6840405,-0.7665032423572513,-0.325534676927301,1.5508961955526992,0.4341394054656347,0.5418107991882464,0.49113610396743196
1747959982.6992111,-0.7687765710079708,-0.3279888712882475,1.5719897659162456,0.4302450973509101,0.5762019512424478,0.49688695667871735
1747959982.714375,-0.750021609639534,-0.31817209384446143,1.5623218794996203,0.4264850757229001,0.5767351473983269,0.497807093112523
1747959982.7295425,-0.77332322830941,-0.3259437093207921,1.5636402276473418,0.42487363788232446,0.5435436866948534,0.4964268884618145
1747959982.7446995,-0.777869885610849,-0.3259437093207921,1.566716373325359,0.432527967625059,0.5764685493203874,0.495046683811106
1747959982.7598739,-0.7818482107496085,-0.3288069360752297,1.5697925190033764,0.432527967625059,0.5444767799676418,0.49918729776323145
1747959982.7750447,-0.7818482107496085,-0.3312611304361762,1.5895677412192009,0.42782794059004653,0.5440768828507325,0.4934364450519461
1747959982.7902124,-0.7693449031706505,-0.3320791952231583,1.559685183204177,0.43037938383762475,0.5412776030323673,0.4952767179195574
1747959982.8053825,-0.760819920730452,-0.32103532059889905,1.5794604054200019,0.4302450973509101,0.5464762655521884,0.493896513268849
1747959982.8205464,-0.7761648891228095,-0.32471661214031877,1.5737475634465412,0.42836508653690514,0.5408777059154579,0.4996473659801343
1747959982.8357148,-0.7716182318213702,-0.3283979036817385,1.582536551098019,0.42943937843062224,0.577268343554206,0.4899859334251749
1747959982.8508773,-0.767071574519931,-0.3243075797468278,1.5566090375261596,0.42849937302361973,0.5771350445152362,0.4929763768350433
1747959982.8660429,-0.7761648891228095,-0.3279888712882475,1.5583668350564552,0.427290794643188,0.5422106963051556,0.497807093112523
1747959982.8812053,-0.7619565850558119,-0.3243075797468278,1.564079677029916,0.42943937843062224,0.5415442011103068,0.4964268884618145
1747959982.8963654,-0.7483166131514942,-0.3263527417142832,1.5948411338100876,0.43306511357191757,0.5439435838117627,0.493896513268849
1747959982.9115286,-0.7699132353333307,-0.32471661214031877,1.5588062844390294,0.43051367032433935,0.5455431722794,0.493896513268849
1747959982.926688,-0.7693449031706505,-0.32185338538588126,1.5610035313518986,0.4293050919439076,0.5434103876558836,0.4964268884618145
1747959982.9418464,-0.777869885610849,-0.32389854735333656,1.5618824301170462,0.4319908216782004,0.5091525346406519,0.4961968543533631
1747959982.9570239,-0.7807115464242487,-0.3283979036817385,1.574626462211689,0.43212510816491506,0.5398113136036997,0.493896513268849
1747959982.9721866,-0.7699132353333307,-0.3288069360752297,1.5838548992457406,0.42849937302361973,0.5432770886169138,0.49205624040123763
1747959982.9873967,-0.7795748820988888,-0.32471661214031877,1.5653980251776374,0.43037938383762475,0.5410110049544277,0.49665692257026595
1747959983.002586,-0.7687765710079708,-0.3157178994835149,1.559685183204177,0.43105081627119796,0.5418107991882464,0.49872722954632864
1747959983.0177522,-0.7716182318213702,-0.3279888712882475,1.574187012829115,0.4264850757229001,0.5408777059154579,0.4929763768350433
1747959983.0329187,-0.7812798785869286,-0.3251256445338099,1.5935227856623662,0.4258136432893269,0.5454098732404302,0.49711699078716876
1747959983.0481153,-0.760819920730452,-0.32185338538588126,1.5601246325867508,0.4333336865453469,0.509685730796531,0.49665692257026595
1747959983.0632734,-0.77389156047209,-0.3263527417142832,1.5645191264124898,0.4337365460054908,0.541410902071337,0.48952586520827207
1747959983.078415,-0.7568415955916927,-0.3296250008622118,1.5790209560374278,0.4289022324837637,0.53967801456473,0.497807093112523
1747959983.0935724,-0.7585465920797325,-0.32471661214031877,1.571110867151098,0.4299765243774808,0.5416775001492765,0.4948166497026546
1747959983.1087284,-0.7784382177735292,-0.32389854735333656,1.5636402276473418,0.4295736649173369,0.5438102847727929,0.4929763768350433
1747959983.1238828,-0.780143214261569,-0.32471661214031877,1.551775094317847,0.43346797303206147,0.5411443039933974,0.49665692257026595
1747959983.1390371,-0.7613882528931322,-0.3259437093207921,1.5684741708556547,0.42849937302361973,0.5406111078375184,0.5001074341970372
1747959983.1541948,-0.7682082388452909,-0.3324882276166494,1.5588062844390294,0.42836508653690514,0.5444767799676418,0.4934364450519461
1747959983.1693478,-0.7755965569601295,-0.31776306145097044,1.5768237091245585,0.43172224870477116,0.5420773972661859,0.4934364450519461
1747959983.1845067,-0.77389156047209,-0.3275798388947564,1.5645191264124898,0.4302450973509101,0.5771350445152362,0.4948166497026546
1747959983.1996596,-0.7721865639840502,-0.32062628820540806,1.5675952720905069,0.4279622270767612,0.5398113136036997,0.4943565814857518
1747959983.2148137,-0.7750282247974498,-0.32267145017286336,1.5908860893669228,0.42943937843062224,0.5407444068764882,0.4932064109434947
1747959983.2299676,-0.7585465920797325,-0.32267145017286336,1.5724292152988195,0.42903651897047834,0.5092858336796217,0.4934364450519461
1747959983.245086,-0.7812798785869286,-0.33453338958410483,1.5737475634465412,0.42984223789076614,0.5402112107206091,0.4929763768350433
1747959983.2602432,-0.767639906682611,-0.3259437093207921,1.5693530696208025,0.4267536486963294,0.5431437895779441,0.49251630861814044
1747959983.2754028,-0.7477482809888145,-0.3243075797468278,1.5812182029502975,0.4251422108557537,0.5411443039933974,0.4961968543533631
1747959983.2905576,-0.7687765710079708,-0.32471661214031877,1.5961594819578093,0.43105081627119796,0.5459430693963093,0.49688695667871735
1747959983.3057132,-0.7744598926347697,-0.33330629240363163,1.574187012829115,0.427290794643188,0.5395447155257602,0.49895726365478005
1747959983.3208659,-0.7795748820988888,-0.3324882276166494,1.5675952720905069,0.4247393513956098,0.5351458472397577,0.49711699078716876
1747959983.33602,-0.7693449031706505,-0.3116275755486042,1.5447439041966649,0.42661936220961477,0.536745435707395,0.49757705900407156
1747959983.3512115,-0.7750282247974498,-0.3251256445338099,1.5737475634465412,0.434407978439064,0.5311468760706645,0.4961968543533631
1747959983.3663695,-0.8148114761850429,-0.32062628820540806,1.5610035313518986,0.4338708324922054,0.5442101818897023,0.4915961721843348
1747959983.3815613,-0.7659349101945712,-0.3296250008622118,1.5649585757950635,0.42232219463474624,0.5452765742014605,0.49067603575052915
1747959983.3967276,-0.7704815674960104,-0.33616951915806914,1.5627613288821942,0.4302450973509101,0.5486090501757047,0.49136613807588336
1747959983.4118884,-0.77332322830941,-0.3435321022409087,1.566716373325359,0.43722799466007145,0.541410902071337,0.4945866155942032
1747959983.4270444,-0.7858265358883678,-0.3586663008000789,1.5724292152988195,0.42836508653690514,0.5455431722794,0.49550675202800887
1747959983.4421995,-0.7829848750749682,-0.3267617741077743,1.556169588143586,0.42903651897047834,0.5418107991882464,0.4948166497026546
1747959983.457349,-0.7744598926347697,-0.32144435299239016,1.564079677029916,0.4326622541117736,0.5390115193698811,0.49251630861814044
1747959983.4725015,-0.7784382177735292,-0.2936301502349965,1.5728686646813936,0.42702222166975873,0.5422106963051556,0.49849719543787724
1747959983.4876578,-0.7585465920797325,-0.33862371351901577,1.567155822707933,0.4264850757229001,0.5491422463315838,0.49113610396743196
1747959983.5028083,-0.7818482107496085,-0.33535145437108693,1.5421072079012217,0.430647956811054,0.5418107991882464,0.4998774000885857
1747959983.5179622,-0.7773015534481693,-0.31776306145097044,1.571550316533672,0.4387051460139325,0.5392781174478206,0.5007975365223913
1747959983.5331166,-0.780143214261569,-0.3140817699095506,1.5719897659162456,0.42554507031589767,0.5450099761235209,0.4943565814857518
1747959983.5482697,-0.767071574519931,-0.32226241777937237,1.5623218794996203,0.4302450973509101,0.5423439953441255,0.493896513268849
1747959983.5634232,-0.7693449031706505,-0.3275798388947564,1.5623218794996203,0.43037938383762475,0.5383450241750323,0.4932064109434947
1747959983.5786588,-0.7795748820988888,-0.32471661214031877,1.5697925190033764,0.42836508653690514,0.5462096674742488,0.4943565814857518
1747959983.5938227,-0.7784382177735292,-0.32471661214031877,1.5724292152988195,0.43011081086419545,0.5416775001492765,0.493896513268849
1747959983.6089816,-0.7761648891228095,-0.325534676927301,1.5693530696208025,0.4289022324837637,0.5390115193698811,0.49734702489562016
1747959983.6241424,-0.7659349101945712,-0.31980822341842585,1.5618824301170462,0.43105081627119796,0.5436769857338232,0.48952586520827207
1747959983.6393,-0.7761648891228095,-0.3296250008622118,1.5957200325752354,0.4251422108557537,0.5379451270581229,0.493896513268849
1747959983.6544597,-0.7773015534481693,-0.3292159684687207,1.5482594992572558,0.42943937843062224,0.5427438924610347,0.49665692257026595
1747959983.6696153,-0.7630932493811717,-0.33535145437108693,1.5693530696208025,0.43037938383762475,0.542610593422065,0.49895726365478005
1747959983.684772,-0.77389156047209,-0.32267145017286336,1.564079677029916,0.43346797303206147,0.5418107991882464,0.5003374683054885
1747959983.699928,-0.77332322830941,-0.3271708065012653,1.5689136202382283,0.42970795140405155,0.5771350445152362,0.4936664791603975
1747959983.7150881,-0.7682082388452909,-0.32185338538588126,1.556169588143586,0.425410783829183,0.5431437895779441,0.4934364450519461
1747959983.730246,-0.7619565850558119,-0.3275798388947564,1.5583668350564552,0.42849937302361973,0.5422106963051556,0.49688695667871735
1747959983.745403,-0.7557049312663329,-0.3292159684687207,1.567155822707933,0.4353479838460665,0.544343480928672,0.4994173318716829
1747959983.7605624,-0.767639906682611,-0.32267145017286336,1.5689136202382283,0.43306511357191757,0.5422106963051556,0.49734702489562016
1747959983.7757173,-0.7653665780318912,-0.32348951495984557,1.5539723412307165,0.4286336595103344,0.5106188240693195,0.493896513268849
1747959983.790874,-0.7619565850558119,-0.32308048256635447,1.5816576523328711,0.430647956811054,0.5447433780455814,0.4929763768350433
1747959983.8061123,-0.7682082388452909,-0.3271708065012653,1.5645191264124898,0.4295736649173369,0.5439435838117627,0.4915961721843348
1747959983.821331,-0.7744598926347697,-0.3300340332557029,1.5539723412307165,0.42554507031589767,0.5390115193698811,0.4943565814857518
1747959983.836495,-0.7721865639840502,-0.3263527417142832,1.555730138761012,0.43011081086419545,0.5452765742014605,0.49757705900407156
1747959983.8516517,-0.7829848750749682,-0.3267617741077743,1.574187012829115,0.4336022595187761,0.5416775001492765,0.49251630861814044
1747959983.866807,-0.7665032423572513,-0.3267617741077743,1.5429861066663693,0.4275593676166173,0.5399446126426695,0.4959668202449117
1747959983.8819594,-0.7858265358883678,-0.33330629240363163,1.559685183204177,0.4319908216782004,0.5400779116816393,0.49251630861814044
1747959983.8971124,-0.7625249172184918,-0.31980822341842585,1.559685183204177,0.42970795140405155,0.5419440982272161,0.49113610396743196
1747959983.912266,-0.7767332212854894,-0.33330629240363163,1.559245733821603,0.43078224329776865,0.5422106963051556,0.4934364450519461
1747959983.9274225,-0.7693449031706505,-0.32348951495984557,1.5719897659162456,0.432527967625059,0.5442101818897023,0.49757705900407156
1747959983.9425771,-0.777869885610849,-0.33330629240363163,1.5662769239427852,0.4286336595103344,0.5102189269524101,0.49803712722097443
1747959983.9577336,-0.7682082388452909,-0.3288069360752297,1.5763842597419846,0.4289022324837637,0.5420773972661859,0.4964268884618145
1747959983.9728901,-0.7818482107496085,-0.3259437093207921,1.5724292152988195,0.4279622270767612,0.5402112107206091,0.4943565814857518
1747959983.988046,-0.7795748820988888,-0.325534676927301,1.5469411511095343,0.4282308000501905,0.5404778087985486,0.4959668202449117
1747959984.0032015,-0.7551365991036532,-0.3251256445338099,1.5601246325867508,0.42849937302361973,0.5418107991882464,0.5003374683054885
1747959984.0183654,-0.7699132353333307,-0.3259437093207921,1.5763842597419846,0.4282308000501905,0.544343480928672,0.49251630861814044
1747959984.0336034,-0.8074231580702043,-0.30549208964623786,1.5434255560489434,0.42849937302361973,0.5444767799676418,0.49665692257026595
1747959984.0487688,-0.7704815674960104,-0.3324882276166494,1.5588062844390294,0.427290794643188,0.5423439953441255,0.493896513268849
1747959984.0639274,-0.7591149242424124,-0.3120366079420952,1.585612696776036,0.4289022324837637,0.5095524317575613,0.48906579699136926
1747959984.0790856,-0.7721865639840502,-0.3259437093207921,1.5882493930714794,0.42769365410333193,0.5410110049544277,0.4964268884618145
1747959984.0942428,-0.7659349101945712,-0.3243075797468278,1.5728686646813936,0.43145367573134186,0.5411443039933974,0.495046683811106
1747959984.1093981,-0.767071574519931,-0.3427140374539266,1.5689136202382283,0.43145367573134186,0.542610593422065,0.493896513268849
1747959984.1245532,-0.7875315323764076,-0.3243075797468278,1.5794604054200019,0.4258136432893269,0.5392781174478206,0.4929763768350433
1747959984.139709,-0.7807115464242487,-0.3292159684687207,1.5653980251776374,0.43078224329776865,0.5452765742014605,0.49251630861814044
1747959984.1548648,-0.7755965569601295,-0.30017466853085384,1.5610035313518986,0.4313193892446272,0.5408777059154579,0.4952767179195574
1747959984.170018,-0.7636615815438517,-0.3312611304361762,1.5530934424655687,0.42742508112990263,0.5770017454762665,0.4964268884618145
1747959984.1851752,-0.7665032423572513,-0.3337153247971226,1.5601246325867508,0.43011081086419545,0.542610593422065,0.49734702489562016
1747959984.2003298,-0.77332322830941,-0.339441778305998,1.559685183204177,0.42970795140405155,0.509685730796531,0.49228627450968904
1747959984.2154877,-0.7539999347782933,-0.3263527417142832,1.5627613288821942,0.43105081627119796,0.5407444068764882,0.4918262062927862
1747959984.230645,-0.7613882528931322,-0.32308048256635447,1.5662769239427852,0.42876794599704904,0.5402112107206091,0.4961968543533631
1747959984.2458024,-0.7795748820988888,-0.31858112623795254,1.5728686646813936,0.4289022324837637,0.5430104905389743,0.49205624040123763
1747959984.2610464,-0.7630932493811717,-0.3296250008622118,1.563200778264768,0.430647956811054,0.5418107991882464,0.4899859334251749
1747959984.276211,-0.7687765710079708,-0.3300340332557029,1.5733081140639673,0.43172224870477116,0.5422106963051556,0.49849719543787724
1747959984.29137,-0.7761648891228095,-0.32226241777937237,1.5434255560489434,0.430647956811054,0.5456764713183697,0.49757705900407156
1747959984.3065267,-0.7943515183285663,-0.33535145437108693,1.5425466572837954,0.42943937843062224,0.5423439953441255,0.4957367861364603
1747959984.3216834,-0.7693449031706505,-0.3279888712882475,1.559685183204177,0.4282308000501905,0.5435436866948534,0.495046683811106
1747959984.336843,-0.7755965569601295,-0.3320791952231583,1.5478200498746821,0.4313193892446272,0.5091525346406519,0.49251630861814044
1747959984.3520014,-0.7522949382902535,-0.32021725581191685,1.5737475634465412,0.43037938383762475,0.5415442011103068,0.49412654737730033
1747959984.3671894,-0.7659349101945712,-0.32471661214031877,1.5605640819693247,0.430647956811054,0.5770017454762665,0.49826716132942583
1747959984.3824155,-0.7744598926347697,-0.3259437093207921,1.5425466572837954,0.42836508653690514,0.5402112107206091,0.4957367861364603
1747959984.3975863,-0.7630932493811717,-0.32103532059889905,1.5552906893784382,0.4286336595103344,0.5398113136036997,0.4915961721843348
1747959984.4127488,-0.7750282247974498,-0.3263527417142832,1.5755053609768368,0.43105081627119796,0.5768684464372966,0.495046683811106
1747959984.4279027,-0.77332322830941,-0.3279888712882475,1.585612696776036,0.43306511357191757,0.5431437895779441,0.4952767179195574
1747959984.4430637,-0.7750282247974498,-0.3263527417142832,1.564079677029916,0.42876794599704904,0.5415442011103068,0.4927463427265919
1747959984.4582195,-0.7750282247974498,-0.3275798388947564,1.575065911594263,0.43239368113834437,0.5412776030323673,0.49665692257026595
1747959984.4733875,-0.767639906682611,-0.33330629240363163,1.556169588143586,0.42970795140405155,0.5412776030323673,0.4927463427265919
1747959984.4886272,-0.7721865639840502,-0.3316701628296672,1.567155822707933,0.4318565351914858,0.5387449212919415,0.4927463427265919
1747959984.5037909,-0.7630932493811717,-0.3300340332557029,1.540349410370926,0.4302450973509101,0.5418107991882464,0.4961968543533631
1747959984.5189488,-0.7682082388452909,-0.3275798388947564,1.5697925190033764,0.4279622270767612,0.5408777059154579,0.4934364450519461
1747959984.5341043,-0.7761648891228095,-0.3153088670900239,1.5675952720905069,0.4302450973509101,0.5094191327185914,0.49711699078716876
1747959984.5492601,-0.7710498996586903,-0.3259437093207921,1.5614429807344725,0.42903651897047834,0.5448766770845511,0.49688695667871735
1747959984.5644171,-0.7727548961467301,-0.33616951915806914,1.559245733821603,0.427290794643188,0.5428771915000045,0.49251630861814044
1747959984.579574,-0.7665032423572513,-0.32267145017286336,1.5662769239427852,0.42876794599704904,0.5431437895779441,0.4932064109434947
1747959984.5947313,-0.7682082388452909,-0.32348951495984557,1.5601246325867508,0.42876794599704904,0.5404778087985486,0.495046683811106
1747959984.6098862,-0.7721865639840502,-0.3271708065012653,1.5614429807344725,0.4271565081564733,0.5399446126426695,0.4959668202449117
1747959984.62504,-0.7710498996586903,-0.330443065649194,1.5693530696208025,0.42970795140405155,0.5404778087985486,0.49044600164207774
1747959984.640198,-0.7653665780318912,-0.3300340332557029,1.5645191264124898,0.4295736649173369,0.5452765742014605,0.49228627450968904
1747959984.6553583,-0.7665032423572513,-0.3251256445338099,1.571550316533672,0.43172224870477116,0.5424772943830952,0.49067603575052915
1747959984.6705806,-0.7721865639840502,-0.3435321022409087,1.5601246325867508,0.42849937302361973,0.5763352502814176,0.4936664791603975
1747959984.6858509,-0.7824165429122885,-0.3296250008622118,1.5566090375261596,0.42849937302361973,0.5091525346406519,0.49067603575052915
1747959984.7010741,-0.7835532072376483,-0.3259437093207921,1.5842943486283143,0.42702222166975873,0.5454098732404302,0.4936664791603975
1747959984.719673,-0.7704815674960104,-0.3275798388947564,1.556169588143586,0.429170805457193,0.5434103876558836,0.49665692257026595
1747959984.7348924,-0.7721865639840502,-0.3324882276166494,1.5689136202382283,0.43037938383762475,0.5411443039933974,0.49757705900407156
1747959984.7501063,-0.77389156047209,-0.3296250008622118,1.5416677585186478,0.430647956811054,0.5446100790066115,0.49251630861814044
1747959984.765366,-0.7699132353333307,-0.32308048256635447,1.556169588143586,0.4293050919439076,0.5408777059154579,0.49228627450968904
1747959984.7805994,-0.7704815674960104,-0.330852098042685,1.570671417768524,0.42943937843062224,0.5444767799676418,0.4961968543533631
1747959984.7958298,-0.77389156047209,-0.3316701628296672,1.567155822707933,0.42970795140405155,0.5440768828507325,0.4918262062927862
1747959984.8110578,-0.7829848750749682,-0.3312611304361762,1.5504567461701255,0.4302450973509101,0.5431437895779441,0.4996473659801343
1747959984.8262813,-0.7630932493811717,-0.3263527417142832,1.571550316533672,0.4295736649173369,0.5410110049544277,0.4961968543533631
1747959984.8415115,-0.7704815674960104,-0.31899015863144364,1.5623218794996203,0.42742508112990263,0.542610593422065,0.50056750241394
1747959984.8567445,-0.7585465920797325,-0.32103532059889905,1.540349410370926,0.43212510816491506,0.5438102847727929,0.49665692257026595
1747959984.8719914,-0.7750282247974498,-0.3328972600101404,1.5777026078897063,0.43051367032433935,0.5434103876558836,0.4943565814857518
1747959984.8872313,-0.7665032423572513,-0.32021725581191685,1.5961594819578093,0.4289022324837637,0.5448766770845511,0.49067603575052915
1747959984.9024758,-0.7619565850558119,-0.32103532059889905,1.551775094317847,0.430647956811054,0.5770017454762665,0.4964268884618145
1747959984.9177198,-0.7483166131514942,-0.3263527417142832,1.5548512399958643,0.4313193892446272,0.5400779116816393,0.4929763768350433
1747959984.932963,-0.7579782599170526,-0.32389854735333656,1.5566090375261596,0.4286336595103344,0.5430104905389743,0.49734702489562016
1747959984.9529877,-0.7704815674960104,-0.32144435299239016,1.5618824301170462,0.430647956811054,0.577268343554206,0.49550675202800887
1747959984.9682307,-0.7585465920797325,-0.32226241777937237,1.5689136202382283,0.42984223789076614,0.5419440982272161,0.4943565814857518
1747959984.9834647,-0.77389156047209,-0.330852098042685,1.5645191264124898,0.429170805457193,0.5402112107206091,0.497807093112523
1747959984.9986973,-0.7682082388452909,-0.3283979036817385,1.5869310449237577,0.44246516764194244,0.5366121366684252,0.49734702489562016
1747959985.0139298,-0.7682082388452909,-0.3243075797468278,1.5649585757950635,0.4346765514124933,0.5399446126426695,0.4948166497026546
1747959985.0291626,-0.7790065499362089,-0.330852098042685,1.567155822707933,0.4299765243774808,0.5435436866948534,0.49251630861814044
1747959985.0443933,-0.77332322830941,-0.32267145017286336,1.5579273856738813,0.4353479838460665,0.5368787347463647,0.49688695667871735
1747959985.059621,-0.7517266061275736,-0.31694499666398823,1.559685183204177,0.4342736919523493,0.544343480928672,0.49665692257026595
1747959985.0748575,-0.7716182318213702,-0.31939919102493464,1.5957200325752354,0.42621650274947087,0.550208638643342,0.4899859334251749
1747959985.090097,-0.7619565850558119,-0.3259437093207921,1.5636402276473418,0.427290794643188,0.5455431722794,0.4957367861364603
1747959985.105341,-0.7585465920797325,-0.3259437093207921,1.5649585757950635,0.42742508112990263,0.5451432751624906,0.4948166497026546
1747959985.1205835,-0.7767332212854894,-0.3140817699095506,1.5482594992572558,0.4282308000501905,0.5771350445152362,0.49550675202800887
1747959985.1358244,-0.7534316026156134,-0.32144435299239016,1.5434255560489434,0.4267536486963294,0.5768684464372966,0.4934364450519461
1747959985.15107,-0.767639906682611,-0.3251256445338099,1.5873704943063316,0.427290794643188,0.5478092559418861,0.50056750241394
1747959985.1663353,-0.7761648891228095,-0.330443065649194,1.5838548992457406,0.42487363788232446,0.5762019512424478,0.49550675202800887
1747959985.1863256,-0.7710498996586903,-0.3324882276166494,1.5693530696208025,0.42984223789076614,0.5438102847727929,0.4943565814857518
1747959985.2016273,-0.767639906682611,-0.31980822341842585,1.5675952720905069,0.43051367032433935,0.5424772943830952,0.49849719543787724
1747959985.2168906,-0.7602515885677723,-0.3259437093207921,1.563200778264768,0.4295736649173369,0.5419440982272161,0.49826716132942583
1747959985.2321348,-0.7773015534481693,-0.32308048256635447,1.5961594819578093,0.4295736649173369,0.5438102847727929,0.49228627450968904
1747959985.247377,-0.7630932493811717,-0.3316701628296672,1.5552906893784382,0.43306511357191757,0.576068652203478,0.4961968543533631
1747959985.2626617,-0.7682082388452909,-0.2944482150219787,1.5658374745602115,0.4341394054656347,0.5408777059154579,0.4952767179195574
1747959985.2778883,-0.7619565850558119,-0.325534676927301,1.5662769239427852,0.4237993459886073,0.5407444068764882,0.4943565814857518
1747959985.2931037,-0.780143214261569,-0.3243075797468278,1.5579273856738813,0.434407978439064,0.5771350445152362,0.495046683811106
1747959985.3083217,-0.7767332212854894,-0.33903274591250676,1.5548512399958643,0.44541947034966456,0.5334129597331506,0.4874555582322093
1747959985.32353,-0.7937831861658866,-0.3263527417142832,1.544304454814091,0.4902711569123548,0.5292806895250877,0.49044600164207774
1747959985.338748,-0.7647982458692115,-0.31776306145097044,1.5425466572837954,0.4900025839389255,0.5202163548751431,0.4915961721843348
1747959985.353959,-0.7699132353333307,-0.32021725581191685,1.5992356276358264,0.4627424271358533,0.5114186183031381,0.481704705520924
1747959985.3692045,-0.7665032423572513,-0.3328972600101404,1.5803393041851495,0.4215164757144584,0.5483424520977652,0.5134494124872192
1747959985.3845243,-0.8301564445774001,-0.31735402905747934,1.6071457165221565,0.37344191347061684,0.5436769857338232,0.4821647737378268
1747959985.3997772,-0.7477482809888145,-0.3132637051225685,1.544304454814091,0.3566561026312866,0.5359456414735763,0.47710402335189567
1747959985.4200633,-0.7704815674960104,-0.3120366079420952,1.5803393041851495,0.3594761188522941,0.530213782797876,0.4731934435082216
1747959985.435318,-0.803444832931445,-0.30590112203972897,1.5548512399958643,0.3445703188269689,0.5400779116816393,0.47181323885751314
1747959985.4505625,-0.7693449031706505,-0.3443501670278909,1.5504567461701255,0.39627061621210585,0.5248818212390851,0.4810146031955697
1747959985.4657965,-0.780143214261569,-0.33330629240363163,1.5456228029618126,0.4189650324668802,0.5442101818897023,0.5074685256674825
1747959985.4810243,-0.7773015534481693,-0.3259437093207921,1.5829760004805928,0.4199050378738827,0.547276059786007,0.5007975365223913
1747959985.4962425,-0.7420649593620152,-0.3406688754864712,1.5126640992687714,0.4627424271358533,0.5889986589835461,0.5152896853548306
1747959985.5114555,-0.8153798083477228,-0.3275798388947564,1.5873704943063316,0.4695910379583,0.5454098732404302,0.5097688667519965
1747959985.52667,-0.7880998645390873,-0.3157178994835149,1.5957200325752354,0.4397794379076496,0.5460763684352791,0.4945866155942032
1747959985.5418873,-0.7636615815438517,-0.32389854735333656,1.5737475634465412,0.4211136162543145,0.5487423492146746,0.4918262062927862
1747959985.5570996,-0.784121539400328,-0.3263527417142832,1.5504567461701255,0.42326220004174875,0.5462096674742488,0.48929583109982067
1747959985.5723403,-0.7602515885677723,-0.33985081069948897,1.5618824301170462,0.43346797303206147,0.5438102847727929,0.493896513268849
1747959985.5875814,-0.7557049312663329,-0.32226241777937237,1.5689136202382283,0.4428680271020864,0.5631386454234101,0.504478082257614
1747959985.6028268,-0.7852582037256879,-0.32471661214031877,1.6264814893554074,0.39291345404423983,0.55140832999407,0.5003374683054885
1747959985.61808,-0.7750282247974498,-0.32471661214031877,1.5535328918481428,0.39224202161066657,0.5712698868005662,0.49918729776323145
1747959985.633332,-0.7784382177735292,-0.3251256445338099,1.5926438868972181,0.3613561296662991,0.5439435838117627,0.49711699078716876
1747959985.6533186,-0.7647982458692115,-0.33535145437108693,1.6686686300825,0.20048091858215872,0.5327464645383018,0.50056750241394
1747959985.6685662,-0.7352449734098565,-0.3312611304361762,1.6449383634235104,0.07868307513197903,0.5371453328243042,0.5378330279830691
1747959985.6838,-0.7784382177735292,-0.36971017542433804,1.5970383807229571,0.01731415070338793,0.5172837760178081,0.5155197194632819
1747959985.699028,-0.8341347697161596,-0.3627566247349897,1.4216980770759775,0.15925496716076382,0.574335764696871,0.5428937783690002
1747959985.7142646,-0.9585995133430585,-0.3243075797468278,1.4502622869432797,0.2943471727956931,0.42850661606393914,0.46399207917016505
1747959985.7294958,-0.8477747416204773,-0.3292159684687207,1.7758942794305277,0.16825216177064484,0.3141360406278737,0.4074036884911171
1747959985.7447252,-0.7630932493811717,-0.3607114627675342,1.763589696718459,-0.09521792516348149,0.41650970255665953,0.35771632106561146
1747959985.759955,-0.8193581334864821,-0.45683407523793895,1.7381016325291738,-0.40985116353588613,0.30707119156247575,0.35104533192052045
1747959985.7751954,-0.8500480702711968,-0.4854663427823148,1.8066557362106994,-0.7824961641690158,0.28694303667804005,0.23165762963423625
1747959985.7904375,-0.7216050015055389,-0.5145076427201818,1.719205309078497,-1.0307918781043877,0.20869650080278312,0.2643224730343371
1747959985.8056822,-0.6596567957734294,-0.5365953919687001,1.804897938680404,-1.438351365283324,0.1316496562782543,0.2801948265174848
1747959985.8209283,-0.737518302060576,-0.5521386229213614,1.7301915436428439,-1.5267118735415581,0.05087043866257168,0.23648834591171597
1747959985.836179,-0.7284249874576976,-0.535368294788227,1.6304365337985722,-1.74868743608086,-0.02964218087517123,0.23809858467087586
1747959985.8514206,-0.5789536286728831,-0.643352846669873,1.726236499199679,-2.072049296089717,-0.1070889225166094,0.22245626529617968
1747959985.86667,-0.49540880075893745,-0.7681077266846537,1.608903514052452,-2.0802407717793097,-0.13881409379141552,0.25673134745544046
1747959985.8868513,-0.4908621434574981,-0.8838638940426302,1.4375182548486372,-1.9201712796154575,-0.22532517008279818,0.29583714589218096
1747959985.902128,-0.4772221715531805,-0.8601400152201475,1.39708891165184,-1.8636366687085928,-0.348360183051899,0.21049449165670608
1747959985.9174142,-0.35275742792628184,-0.8732290518118622,1.3280953585877402,-1.989194533786783,-0.36435606772827167,0.10536890409440963
1747959985.932657,-0.3169525016774478,-0.9812136036935082,1.3817081832617542,-1.9827487824244805,-0.3804852514436141,0.0156556017983579
1747959985.9478958,-0.33627579520856454,-1.0572936288828496,1.374237543757998,-1.9576372094088426,-0.4829922124113698,-0.048293880351135465
1747959985.9631283,-0.22715601997402324,-1.1141491315781102,1.3461127832732693,-1.8742453011590496,-0.44126961321383085,-0.22910068959394725
1747959985.9783459,-0.2601192854094576,-1.191047221554434,1.249433919107015,-1.913188382306296,-0.4526000315262616,-0.5056016879525476
1747959985.9935641,-0.1259928950170005,-1.2425853031343106,1.1931843981375578,-1.8096535010493076,-0.4014132005618686,-0.6758269282065947
1747959986.0087745,-0.0737063360504494,-1.2573104692999897,1.2652540968796748,-1.930645625579199,-0.2383884759018361,-0.8085566087830609
1747959986.023992,-0.18566777209839025,-1.3239827494390364,1.1773642203648982,-2.0402233987383465,-0.3692881321701533,-0.9113818552608433
1747959986.0392106,-0.0759796647011689,-1.4049711633502708,1.124630294456032,-2.057009209577677,-0.5357786318434,-0.969580484699051
1747959986.054428,0.004723502399377244,-1.4610086012585493,1.067501874721427,-1.9360170850477851,-0.52991347412873,-0.9274842428524421
1747959986.0696788,0.04564341811233025,-1.474506670243755,1.1145229586568328,-1.7815876253259477,-0.39154907167810526,-0.8051060971562896
1747959986.0849237,-0.03108142384945667,-1.5538589545810253,1.0292697784374993,-1.6091637763843483,-0.49432263072380056,-0.7418467173321504
1747959986.1001759,-0.05551970684469243,-1.6221673642940364,1.0863981981721043,-1.4093454841529616,-0.46206426329311545,-0.6381013344205626
1747959986.1203613,0.00870182753813653,-1.629120914983385,1.0705780203994444,-1.1652126513057435,-0.3628897782996041,-0.49801056237365104
1747959986.1356158,0.10190830221764063,-1.6373015628532066,1.0631073808956883,-0.887239623806436,-0.22839104797910303,-0.2649860105123679
1747959986.1508563,0.07349169408364553,-1.6626615712496533,1.0547578426267845,-0.6032237044049698,-0.15347698807809051,-0.11523380591049703
1747959986.1661332,0.0831533408492039,-1.6757506078413682,1.0376193167064032,-0.2861733092717015,-0.025909807784017524,0.221536128862374
1747959986.1813557,-0.0316497560121366,-1.6381196276401888,1.0160862969602829,-0.06486917916597257,0.02874279819358938,0.46859276133919336
1747959986.1965752,0.070650033270246,-1.689248676826574,0.9914771315361453,0.33463311881008545,0.19043453246392428,0.8141039922332182
1747959986.2117906,0.07349169408364553,-1.6741144782674042,1.000266119187623,0.5421057407842064,0.24135476535037753,1.1453531084032553
1747959986.2270074,0.12464158872483677,-1.645073178329537,0.9189679834114546,0.8854762873135442,0.3177351146800576,1.4904042710803773
1747959986.2422209,-0.049268053055213534,-1.6238034938680004,0.8328359044269733,1.1134947417550052,0.28880922322361685,1.6348656911878656
1747959986.2574368,0.13771322846647455,-1.5808550925514369,0.8860092797184133,1.1806379851123259,0.47502798066438995,1.727109368676883
1747959986.2726705,0.070650033270246,-1.5313621729390157,0.9075422994645335,1.0577658497684292,0.5403445097595788,1.7650649965713663
1747959986.2879074,0.00358683807401744,-1.5788099305839811,0.8622790130594236,1.372264801654119,0.35745822829305,2.0284540507482363
1747959986.303146,-0.01630478761977927,-1.4953673223118003,0.7757074846923684,1.0306399794520718,0.28600994340525165,2.1848772444951985
1747959986.3183897,-0.1197412412275215,-1.5734925094685974,0.6649662402837497,0.9383851630791129,0.3983810332567704,2.3212874708068867
1747959986.3336258,-0.10553293716052392,-1.547723468678659,0.6579350501625676,0.7741527898271066,0.3763866918267578,2.346821256844994
1747959986.3535762,-0.060634696308811575,-1.4282860097792627,0.7985588525862104,0.3385274269248101,0.7902802078279035,2.4114608413198413
1747959986.3688238,-0.02937642736141688,-1.4634627956194959,0.6043222254885539,0.24022971864969261,0.7405596662921781,2.2791912289602783
1747959986.3840625,-0.12826622366772,-1.3452524339005725,0.6900148550904611,0.1583149617537613,0.7997444395947574,2.1625639359754105
1747959986.3993444,-0.18396277561035046,-1.3632498592141802,0.690454304473035,-0.183444146935001,0.8070758867380949,2.0585885189553714
1747959986.41458,-0.05210971386861307,-1.3906550295780828,0.7251708056963718,-0.26159888220292216,0.9405082247468379,1.8064711360926209
1747959986.4298117,-0.2055593977921869,-1.425422783024825,0.728246951374389,-0.3020191147040291,0.6157917658164704,1.6238240539821978
1747959986.4451215,-0.08109465416528805,-1.449555694240799,0.6847414624995745,-0.24293306054958697,0.7821489664507474,1.460269802873242
1747959986.4603474,-0.1487261815241966,-1.4970034518857647,0.6908937538556089,-0.39695966081128053,0.8667938561965534,1.2688814246416649
1747959986.4755726,-0.310132515725289,-1.5407699179893104,0.7638423513628736,-0.020554638550140947,0.7614876154104325,1.2518589006162602
1747959986.4908073,-0.22715601997402324,-1.5141828124123902,0.7568111612416915,-0.024448946664865523,0.5632719444623798,1.2343763083739527
1747959986.506044,-0.37833237524687735,-1.5559041165484806,0.7647212501280214,0.23539540512796553,0.5315467731875738,1.2249449099274448
1747959986.521276,-0.4209572874478701,-1.528907978578069,0.8442615883738943,0.16462642662934945,0.28867592418464705,1.1932002029611495
1747959986.5365024,-0.29478754733293167,-1.5403608855958195,0.7541744649462482,0.28105281061094356,0.331598214732914,1.2580698215444484
1747959986.551728,-0.31183751221332867,-1.553040889794043,0.7497799711205093,0.37035332427618006,0.27827859914500475,1.2516288665078088
1747959986.5669532,-0.34650577413680284,-1.5898538052082407,0.7409909834690316,0.4718739082324489,0.2561509586760224,1.2072322835766858
1747959986.586892,-0.3709440571320386,-1.5550860517614984,0.7770258328400901,0.4588481190211287,0.21309536908878568,1.178017951803356
1747959986.6021502,-0.43459725935218785,-1.5403608855958195,0.7229735587835024,0.4612652757819922,0.1415137851620175,1.218964023107708
1747959986.617392,-0.38231070038563675,-1.5235905574626853,0.6882570575601656,0.4055363837954161,0.23389001916807028,1.3017763021502171
1747959986.6326287,-0.4380072523282672,-1.5796279953709633,0.6838625637344268,0.3814991026734953,0.11712006103054895,1.3190288602840732
1747959986.6478777,-0.44369057395506617,-1.5849454164863475,0.7260497044615196,0.3443017458535396,0.17683803048900731,1.3247797129953587
1747959986.6631217,-0.4380072523282672,-1.5239995898561762,0.6948487982987739,0.3498074918088399,0.22869135664824913,1.3307605998150955
1747959986.678342,-0.5744069713714439,-1.5244086222496671,0.6702396328746364,0.29125858360125634,0.13591522552528695,1.2868240851008754
1747959986.6935716,-0.4459639026057858,-1.5055931321490776,0.6719974304049319,0.23150109701324093,0.3012060338478057,1.3020063362586685
1747959986.7088003,-0.637491841428913,-1.4900499011964163,0.6161873588180486,0.3072386755202986,0.1527109044354784,1.2419674339528495
1747959986.7240336,-0.47210718208906133,-1.5481325010721503,0.7550533637113959,0.24291544838398543,0.3766532899046974,1.2364466153500153
1747959986.7392633,-0.5698603140700047,-1.485141512474523,0.6711185316397841,0.19067800505198995,0.3250665618233951,1.1619155642117571
1747959986.7544885,-0.5260987375436521,-1.4712344110958262,0.6618900946057326,0.19134943748556316,0.46916282294971995,1.1943503735034064
1747959986.7697308,-0.6221468730365558,-1.411106649252637,0.6469488155982206,0.1568378103999003,0.5704700925667475,1.2603701626289627
1747959986.7849734,-0.6460168238691117,-1.4012898718088511,0.5520277489622617,0.19551231857371704,0.561405757916803,1.321099167260136
1747959986.8002188,-0.7596832564050924,-1.3873827704301542,0.5252213366252547,0.21726672942148895,0.5592729732932866,1.3781476261560868
1747959986.8201432,-0.7528632704529337,-1.3571143733118138,0.45359108726571173,0.3657875837278822,0.6408519851427878,1.4211640044365015
1747959986.8354113,-0.7108066904146206,-1.2659001495633024,0.4215112823378182,0.5501629299870848,0.6225900168039289,1.4453175858239
1747959986.8506603,-0.7477482809888145,-1.2454485298887483,0.4065700033303062,0.6296605301221525,0.5548741050072841,1.4131128106407018
1747959986.8659048,-0.8131064796970031,-1.2454485298887483,0.3951443193833852,0.6449691896076216,0.5486090501757047,1.3470930215151458
1747959986.881132,-0.8364080983668791,-1.2303143313295781,0.3819608379061687,0.6280490922815768,0.5961968070879138,1.2559995145683858
1747959986.8963578,-0.8131064796970031,-1.165687213157987,0.33493975397076314,0.589777443567904,0.6305879591421153,1.1616855301033056
1747959986.9115918,-0.7619565850558119,-1.1480988202378704,0.3138461836072167,0.5216941948035808,0.6471170399743671,1.023204996815554
1747959986.9268227,-0.6926200612088638,-1.191047221554434,0.33450030458818925,0.5114884218132681,0.643651264961153,0.8479190061755761
1747959986.9420495,-0.7000083793237024,-1.1914562539479252,0.33977369717907585,0.5735287786754324,0.6403187889869087,0.6894255054525513
1747959986.9572728,-0.6687501103763078,-1.1697775370928976,0.39909936382655015,0.5674858867732735,0.5843331926196039,0.585450088432512
1747959986.972533,-0.6431751630557123,-1.2074085172940774,0.410964497156045,0.5701716165075663,0.5168838789008987,0.504478082257614
1747959986.9877744,-0.6852317430940249,-1.28389757487691,0.42942137122414814,0.5958203354700629,0.34919368787692406,0.29836752108514647
1747959987.003012,-0.6454484917064318,-1.3595685676727607,0.47336630948153646,0.6249605030871401,0.2924082972758007,0.0959375056479016
1747959987.0182528,-0.6062335724815187,-1.3227556522585628,0.524342437860107,0.6941180437451804,0.2662816856377252,0.017955942882871945
1747959987.0334952,-0.5647453246058856,-1.3755208310189126,0.5775158131515469,0.6041460976463706,0.19523329786683602,-0.005047467962269403
1747959987.0535173,-0.4902938112948183,-1.4818692533265945,0.7115478748365814,0.5582201191899633,0.04913755115596463,-0.19091502759101242
1747959987.0687692,-0.43459725935218785,-1.5951712263236248,0.7300047489046846,0.5595629840571097,0.023144238556858876,-0.3206542647576103
1747959987.0839992,-0.38458402903635625,-1.596398323504098,0.8218496698626263,0.5188741785825733,0.009147839465032725,-0.36643105233944184
1747959987.0992284,-0.4584672101847437,-1.621758331900545,0.7910882130824544,0.5967603408770654,-0.03923971168099494,-0.3204242306491589
1747959987.1144555,-0.6050969081561588,-1.5812641249449282,0.743627679764475,0.6749150761449867,-0.25718364039657404,-0.3029416384068514
1747959987.129687,-0.5545153456776473,-1.6238034938680004,0.8776597414495094,0.7017723734879149,-0.06176724926688648,-0.36022013141125375
1747959987.1449125,-0.32149915897888715,-1.616440910785161,0.984885390797537,0.3919734486372373,0.3133362463940551,-0.34618805079571735
1747959987.1601422,-0.5215520802422129,-1.7207441711253875,0.867991855032884,0.3628332810201601,0.09525901863950614,-0.3080023887927825
1747959987.1753857,-0.427777273400029,-1.7845532245099966,0.7950432575256193,0.4342736919523493,0.007548250997395312,-0.32916552677031263
1747959987.1906276,-0.5158687586154138,-1.8250474314656135,0.9180890846463068,0.36847331346217504,0.08046282531386134,-0.3144433438294222
1747959987.2058778,-0.5857736146250418,-1.8786306750129453,0.8737046970063445,0.26775844842619406,0.3122698540822969,-0.13938738729789557
1747959987.2211225,-0.33059247358176547,-1.9289416594123492,0.7915276624650283,0.041351431825308704,0.7442920393833318,-0.03012118578347367
1747959987.2363682,-0.3834473647109965,-1.889674549637205,0.9646707191991384,0.03571139938329376,0.6800419025999012,-0.013558729974971873
1747959987.2516131,-0.4169789623091108,-1.946939084725957,0.9607156747559735,-0.11213802248952631,0.5800676233725712,-0.04622357337507266
1747959987.2668517,-0.2845575684046934,-1.9211700439360184,0.8332753538095472,0.1291747941366842,0.6769760247035963,-0.039322550121530186
1747959987.2863462,-0.21237938374434573,-1.87658551304549,0.8701891019457535,0.2940785998222638,0.571403185839536,0.04371976302943048
1747959987.301586,-0.3624190746918401,-1.9060358453768482,0.9791725488240766,0.10674895085533909,0.3366635782137654,0.10329859711834682
1747959987.3168194,-0.12428789852896083,-2.2099469137407235,0.8622790130594236,0.365116151294309,0.5586064780984378,0.10421873355215255
1747959987.3320487,-0.3266141484430063,-2.045515891557308,1.0086156574565268,0.40486495136184286,0.315735629095511,0.0814453568154625
1747959987.3472707,-0.2720542608257356,-2.045924923950799,0.9519266871044958,0.35397037289699385,0.23109073934970503,0.14654500950721278
1747959987.3625014,-0.19646608318930836,-2.094599778776238,0.9532450352522175,0.3981506270261108,0.3425287359284354,0.1941620699566557
1747959987.3777344,-0.1680494750553133,-2.1445017307821503,0.9954321759793103,0.33557312421708796,0.36279018985184097,0.2723736668301366
1747959987.3930037,-0.09359796174424595,-2.1747701279004903,1.0187229932557262,0.2535240808344421,0.5630053463844402,0.2949170094583753
1747959987.408296,-0.19191942588786925,-2.169861739178597,0.992356030301293,0.3041500863258619,0.651915805377279,0.3485149567275549
1747959987.4235446,-0.17543779317015196,-2.137548180092802,1.007736758691379,0.3780076540189146,0.6889729382108759,0.43063713344470994
1747959987.438777,-0.16122948910315438,-2.052469442246656,1.0015844673353447,0.5293485245463154,0.7390933768635106,0.604312885325528
1747959987.4540014,-0.27773758245253455,-2.01238426768453,0.9550028327825131,0.5426428867310649,0.6632462236897096,0.7784487054232488
1747959987.4692326,-0.2709175965003757,-2.00093136066678,0.9506083389567741,0.6452377625810509,0.7606878211766139,1.0163039735620116
1747959987.4844744,-0.2788742467778944,-1.9465300523324656,0.9339092624189667,0.625363362547284,0.8009441309454853,1.2587599238698026
1747959987.4997053,-0.3266141484430063,-1.9162616552141256,0.8280019612186607,0.6260347949808571,0.765353287540556,1.500755805960691
1747959987.519351,-0.2953558794956116,-1.8483622778946058,0.7713129908666296,0.625363362547284,0.7726847346838934,1.7563237004502126
1747959987.5345895,-0.2771692502898546,-1.7861893540839606,0.7629634525977258,0.5340485515813278,0.7608211202155837,1.9017052569915067
1747959987.5498345,-0.32434081979228657,-1.7673738639833712,0.7115478748365814,0.3851248378147906,0.7266965662393217,1.9716356259607366
1747959987.565064,-0.35503075657700134,-1.7546938597851476,0.6992432921245126,0.26493843220518665,0.861728492715702,1.996249275565038
1747959987.5802839,-0.433460595026828,-1.5984434854715537,0.7489010723553615,-0.028880400726448707,0.7332282191488406,1.8989448476900899
1747959987.595503,-0.25045763864389914,-1.708882231714146,0.5858653514204507,0.05048291292190438,0.8695931360149185,1.8000301810559813
1747959987.6107183,-0.29080922219417227,-1.6225763966875273,0.6974854945942172,0.016777004756529323,0.9451736911107799,1.6689107392386753
1747959987.6259303,-0.44312224179238635,-1.6168499431786523,0.712866222984303,-0.11227230897624096,0.7366939941620547,1.4892541005381201
1747959987.641146,-0.43232393070146813,-1.6524357614123764,0.6350836822687257,-0.05815485483024052,0.7037691315365208,1.3625053067813906
1747959987.6563594,-0.4880204826440987,-1.5845363840928561,0.6768313736132446,-0.07077778458141681,0.5812673147232992,1.3583646928292652
1747959987.6715684,-0.4357339236775476,-1.625030591048474,0.599927731662815,-0.08434071973959556,0.5712698868005662,1.3528438742264313
1747959987.686806,-0.45789887802206375,-1.6442551135425552,0.6060800230188493,0.0664630048409467,0.5123517115759264,1.3303005315981926
1747959987.702051,-0.6471534881944716,-1.5743105742555796,0.6210213020263614,0.03678569127701092,0.3983810332567704,1.3146582122234962
1747959987.7172935,-0.6301035233140744,-1.5538589545810253,0.5120378551480382,0.09640889137831166,0.4317057929992137,1.3519237377926256
1747959987.7325387,-0.6318085198021142,-1.5170460391668277,0.5124773045306121,0.16153783743491273,0.4461020892079492,1.369866398251836
1747959987.7524407,-0.6562468027973498,-1.4835053829005589,0.5190690452692204,0.1990037672282977,0.5142178981215033,1.3595148633715222
1747959987.7677033,-0.6164635514097567,-1.5681750883532133,0.47336630948153646,0.2375439889153998,0.5738025685409919,1.343182441671472
1747959987.782928,-0.7318349804337769,-1.5125466828384257,0.4667745687429282,0.23552969161468013,0.49795541536719096,1.3176486556333646
1747959987.7981486,-0.6869367395820647,-1.4724615082762997,0.4307397193718698,0.24170687000355365,0.6227233158428986,1.338121691285541
1747959987.8133664,-0.7369499698978961,-1.4426021435514504,0.43821035887562576,0.24882405379942962,0.4322389891550928,1.2631305719303796
1747959987.828578,-0.6357868449408735,-1.367749215542582,0.5977304847499456,0.37559049725805105,0.7177655306283469,1.1927401347442466
1747959987.8437936,-0.8449330808070776,-1.46509892519346,0.45271218850056394,0.17832364827424296,0.5208828500699919,1.1816984975385787
1747959987.8590078,-0.8051498294194845,-1.3927001915455384,0.3380158996487803,0.40473066487512827,0.5937974243864579,1.1667462804892368
1747959987.8742206,-0.83129310890276,-1.3268459761934739,0.34416819100481466,0.41748788111301915,0.6583141592478281,1.2037817719499144
1747959987.8894746,-0.8301564445774001,-1.279398218548508,0.3314241589101721,0.4776482271611785,0.7474912163186063,1.190209759551281
1747959987.904735,-0.8642563743381946,-1.2843066072704012,0.34768378606540573,0.4353479838460665,0.8833229370288052,1.133621368872233
1747959987.9199808,-0.9250679157449442,-1.3018950001905176,0.2470498774559864,0.4867797082577741,0.9389086362792005,1.0784131828438934
1747959987.9352224,-0.9091546151899068,-1.2082265820810596,0.24133703548252589,0.5930003192490554,0.9465066815004777,1.0457483394437928
1747959987.9504633,-0.9057446222138272,-1.1988188370307646,0.22551685770986607,0.6248262166004254,0.9579703988518782,0.9539647301716783
1747959987.965708,-0.9227945870942245,-1.244221432708275,0.29099481571337477,0.658666411252515,0.9083831563551226,0.7816691829415686
1747959987.9856205,-0.9256362479076239,-1.2659001495633024,0.3859158823493336,0.5810488219314524,0.8318695079864727,0.5093087985350937
1747959988.0008519,-0.8739180211037527,-1.2360407848384531,0.3652617613683611,0.5245142110245883,0.8157403242711302,0.31446990867674557
1747959988.0161805,-0.9358662268358622,-1.2278601369686317,0.34812323544797963,0.49080830285921334,0.6597804486764955,0.07707470875488559
1747959988.0314374,-1.014296065285689,-1.1652781807644956,0.3810819391410209,0.4442108919692328,0.4892909778341557,-0.10994302141611456
1747959988.0466807,-0.9460962057641005,-1.2462665946757303,0.4355736625801825,0.2856185511592414,0.3137361435109644,-0.2132283361107996
1747959988.0619197,-0.8182214691611223,-1.4270589125987894,0.4654562205952066,0.30388151335243263,0.18576906609998217,-0.2962706492617604
1747959988.0771704,-0.6602251279361093,-1.5182731363473012,0.4760030057769798,0.512294140733556,0.1609754448516043,-0.4214092042593298
1747959988.0924108,-0.5442853667494092,-1.4405569815839951,0.4755635563944059,0.7675727519780892,0.17337225547579327,-0.5488481003414134
1747959988.1076488,-0.6715917711897073,-1.439738916797013,0.5076433613222994,0.7429983249093097,0.07486426567713095,-0.6072767638880727
1747959988.122882,-0.7085333617639009,-1.4679621519478978,0.4597433786217461,0.7901328817461489,-0.06469982812422159,-0.6608747111572524
1747959988.1381133,-0.5977085900413202,-1.5481325010721503,0.60388277610598,0.7258096546098357,0.03527445110310823,-0.6521334150360989
1747959988.1533463,-0.5715653105580445,-1.6630706036431446,0.6324469859732824,0.6814951139940041,0.020744855855402977,-0.699980509593993
1747959988.1685765,-0.6221468730365558,-1.7542848273916563,0.6012460798105366,0.7800613952425508,-0.03270805877147598,-0.7653101963941946
1747959988.1838334,-0.4482372312565055,-1.692111903581012,0.5766369143863992,0.971688211784344,0.16564091121554642,-0.7275846026081627
1747959988.1992161,-0.5965719257159601,-1.6471183402969927,0.7783441809878118,0.7011009410543417,0.31480253582272266,-0.6519033809276473
1747959988.2192197,-0.667613446050948,-1.772282252705264,0.6025644279582583,0.6264376544410011,0.12791728318710055,-0.5983054336584677
1747959988.23447,-0.5988452543666798,-1.787825483657925,0.5933359909242067,0.7493097897848979,0.23775569129819368,-0.5902542398626682
1747959988.2497294,-0.5175737551034536,-1.7816899977555591,0.7220946600183547,0.6186490382115519,0.41264403042653613,-0.4572945251777505
1747959988.26498,-0.4732438464144212,-1.8618603468798112,0.6882570575601656,0.5203513299364344,0.5208828500699919,-0.35285903994080836
1747959988.2802563,-0.42834560556270884,-1.8385455004508198,0.7427487809993272,0.398822059459684,0.6800419025999012,-0.25348430508979725
1747959988.2954783,-0.4363022558402275,-1.95961908892418,0.7348386921129972,0.4123849946178628,0.6969708805490623,-0.048523914459586814
1747959988.310701,-0.5988452543666798,-1.8696319623561415,0.6016855291931105,0.49832834611523324,0.6369863130126644,-0.03633210671166187
1747959988.325939,-0.4777905037158604,-1.7501945034567452,0.7691157439537601,0.3720990486034704,0.8537305503775156,0.015885635906809248
1747959988.341163,-0.5459903632374488,-1.7841441921165053,0.780980877283255,0.2993157728041348,0.653648692883886,-0.009418116022846257
1747959988.3563838,-0.5243937410556125,-1.840590662418275,0.7489010723553615,0.4107735567772871,0.7874809280095383,-0.07129729119627681
1747959988.3716054,-0.4584672101847437,-1.8598151849123559,0.822728568627774,0.45293951360568446,0.6977706747828809,-0.1656112756613568
1747959988.3868575,-0.40390732256747297,-1.8994913270809906,0.8372303982527121,0.464353864976429,0.5925977330357299,-0.19712594851920062
1747959988.4030805,-0.4317555985387882,-1.9273055298383848,0.8345937019572689,0.5203513299364344,0.3821185505024581,-0.18447407255437287
1747959988.4190693,-0.4374389201655873,-1.9142164932466703,0.8205313217149046,0.5410314488904892,0.2762791135604582,-0.21759898417137657
1747959988.4343526,-0.4539205528833046,-1.9285326270188579,0.8293203093663822,0.5634572921718343,0.18376958051543552,-0.213918438436154
1747959988.4545991,-0.3607140782038004,-1.9747532874833502,0.8596423167639802,0.45119378927839415,0.23962187784377048,-0.15387953613033478
1747959988.4698849,-0.3942456758019147,-1.9706629635484396,0.8649157093548668,0.3553132377641402,0.17137276989124667,-0.13754711443028433
1747959988.485115,-0.32149915897888715,-2.007475878962637,0.8117423340634269,0.3221444755456238,0.24522043748050104,-0.13110615939364467
1747959988.5003371,-0.40390732256747297,-2.0500152478857094,0.8205313217149046,0.33637884313737576,0.2637490038972995,-0.11408363536823996
1747959988.5155592,-0.4090223120315921,-1.9931597451904488,0.8930404698395954,0.3515532161361303,0.27041395584578815,0.14102419090437884
1747959988.5307865,-0.3391174560219641,-2.0046126522081993,0.8917221216918738,0.25446408624144456,0.34146234361667727,0.2776644513245191
1747959988.546005,-0.3391174560219641,-1.983752000140154,0.8969955142827604,0.15630066445304175,0.5179502712126569,0.42304600786581326
1747959988.5612235,-0.2453426491797801,-2.026700401456718,0.8367909488701383,0.07143160484938843,0.5979296945945208,0.5589961659605993
1747959988.5764558,-0.2896725578688125,-2.0373352436874863,0.8473377340519115,0.1221918968275228,0.6199240360245334,0.6404282403524001
1747959988.5917125,-0.25727762459605796,-2.0496062154922186,0.8662340575025884,0.2178038753683475,0.6343203322332689,0.6908057101032599
1747959988.6069715,-0.2140843802323854,-2.039789438048433,0.8873276278661348,0.2834699673718071,0.6480501332471555,0.746934032565405
1747959988.6222255,-0.2663709391989365,-2.008293943749619,0.8811753365101005,0.3119387025553111,0.6523157024941884,0.8136439240163154
1747959988.6374838,-0.28228423975397376,-2.0046126522081993,0.8521716772602241,0.390227724309947,0.6591139534816467,0.9256705348321543
1747959988.652731,-0.27944257894057434,-2.0107481381105656,0.8337148031921211,0.4579081136141262,0.6885730410939666,1.0480486805283067
1747959988.6679845,-0.293082550844892,-2.005839749388673,0.8231680180103479,0.5502972164737995,0.721231305641561,1.1883694866836696
1747959988.6879613,-0.30899585139992924,-1.9763894170573146,0.8139395809762964,0.6212004814591301,0.7246970806547751,1.3758472850715728
1747959988.7031991,-0.38060570389759707,-1.9604371537111622,0.8130606822111486,0.6244233571402815,0.6779091179763848,1.4883339641043145
1747959988.7184289,-0.3538940922516416,-1.9305777889863132,0.7726313390143513,0.6116661409023906,0.6504495159486114,1.593919619883514
1747959988.733665,-0.34877910278752244,-1.9072629425573218,0.7295652995221107,0.6014603679120778,0.6376528082075132,1.6668404322626122
1747959988.7489,-0.36810239631863917,-1.8140035568413544,0.709790077306286,0.5173970272287123,0.6091268138679817,1.7123871857359925
1747959988.7641287,-0.40959064419427205,-1.7416048231934327,0.6777102723783924,0.37115904319646786,0.6471170399743671,1.7091667082176727
1747959988.7793603,-0.40788564770623237,-1.7358783696845577,0.6008066304279628,0.2473469024455686,0.587798967632818,1.7043359919401928
1747959988.794589,-0.37037572496935867,-1.7330151429301202,0.6161873588180486,0.21766958888163287,0.784681648191173,1.5559639919890305
1747959988.8098195,-0.4902938112948183,-1.6712512515129663,0.709790077306286,-0.23031013079841056,0.8094752694395508,1.3544541129855912
1747959988.8250504,-0.4169789623091108,-1.7264706246342625,0.5357681218070279,-0.007797422312250002,0.8012107290234249,1.244037740928912
1747959988.840278,-0.38231070038563675,-1.601715744619482,0.6364020304164473,-0.11818091439168521,0.8016106261403342,1.18353877040619
1747959988.8555083,-0.4755171750651408,-1.7264706246342625,0.588502047715894,-0.08796645488089094,0.7576219432803091,1.179628190562516
1747959988.870743,-0.5357603843092105,-1.6970202923029047,0.5977304847499456,-0.020286065576711643,0.6880398449380876,1.1642159052962713
1747959988.88601,-0.5977085900413202,-1.6675699599715466,0.5915781933939112,0.03181709126856913,0.5919312378408811,1.2435776727120094
1747959988.9013627,-0.6340818484528337,-1.6614344740691802,0.5471938057539489,0.04269429669245517,0.5682040089042614,1.332140804465804
1747959988.9216425,-0.5761119678594837,-1.641800919181608,0.5137956526783338,0.1499891995774536,0.5887320609056065,1.427604959473141
1747959988.9369082,-0.6193052122231562,-1.58208218973191,0.4962176773753784,0.14072343199414328,0.607793823478284,1.4262247548224325
1747959988.952161,-0.620441876548516,-1.5784008981904902,0.47688190454212753,0.19980948614858557,0.6628463265728004,1.41932373156889
1747959988.9674053,-0.6534051419839506,-1.5616305700573556,0.4760030057769798,0.1572406698600442,0.6137922802319238,1.3408821005869576
1747959988.9826758,-0.6681817782136279,-1.449555694240799,0.4948993292276568,0.09050028596286747,0.7020362440299137,1.30384660912628
1747959988.9978943,-0.9273412443956637,-1.4368756900425752,0.2918737144785225,0.29636147009641267,0.5052868625105285,1.1649060076216253
1747959989.013125,-0.5994135865293597,-1.3002588706165534,0.5063250131745778,0.1415291509144312,0.8273373406615004,1.2693414928585676
1747959989.028344,-0.684663410931345,-1.3350266240632955,0.267264549054385,0.10298892922732905,0.7304289393304754,1.3500834649250142
1747959989.0435514,-0.6875050717447446,-1.2847156396638924,0.21540952191066676,0.23902114026926083,0.8955864486140244,1.2221845006260277
1747959989.0587611,-0.8466380772951174,-1.225405942607685,0.23650309227421318,0.2067923834577469,0.9029178957573618,1.167436382814591
1747959989.0739744,-0.7875315323764076,-1.1992278694242557,0.1648728429146702,0.12152046439394959,1.0443481761042912,1.074732637108671
1747959989.0892131,-0.8813063392185916,-1.2147711003769168,0.14597651946399315,0.16784930231050088,1.0967346984194122,0.9507442526533585
1747959989.1044652,-0.960304509831098,-1.206181420113604,0.18904255895623379,0.18060651854839183,1.1311258504736137,0.795701263557105
1747959989.1197062,-1.0404393447689644,-1.2233607806402298,0.23166914906590047,0.22250390240335996,1.116729554264878,0.6583709008116104
1747959989.134949,-1.0739709423670787,-1.2311323961165601,0.1987104453728592,0.2601041186834595,1.1093981071215404,0.5539354155746682
1747959989.1550195,-1.0006560933813713,-1.2953504818946604,0.2580361120203335,0.40083635676040363,1.114996666758271,0.4149948140700137
1747959989.1702678,-1.0114544044722893,-1.3039401621579731,0.2474893268385603,0.5684258921802761,0.9864963931914096,0.2640924389258857
1747959989.1855044,-0.9381395554865817,-1.2969866114686248,0.233426946596196,0.6951923356388975,0.9213131631351905,0.14217436144663592
1747959989.2007387,-0.9523478595535795,-1.2761259594005794,0.25100492189915136,0.7710642006326698,0.7492241038252134,0.012895192496940822
1747959989.2159603,-0.9091546151899068,-1.278171121368035,0.23035080091817883,0.8365960061494147,0.6265889879730221,-0.13340650047815883
1747959989.2311912,-0.9193845941181449,-1.312938874814777,0.20705998364176298,0.8792991089246707,0.5490089472926141,-0.3070822523589768
1747959989.2464135,-0.8778963462425122,-1.3873827704301542,0.25935446016805513,0.8955477738171422,0.45183394788364944,-0.4950201189637826
1747959989.2616394,-0.8295881124147204,-1.416424070368021,0.29143426509594866,0.8504275142810229,0.3766532899046974,-0.6493730057346818
1747959989.27688,-0.790373193189807,-1.411106649252637,0.28616087250506206,0.8226302115310922,0.3318648128108536,-0.7565689002730409
1747959989.2921112,-0.8244731229506013,-1.430331171746718,0.2936315120088181,0.8004729412231762,0.23482311244085868,-0.8205183824225344
1747959989.307355,-0.7784382177735292,-1.4974124842792558,0.3384553490313542,0.8298816818136827,0.16497441602069757,-0.8736562614748111
1747959989.3225985,-0.7346766412471766,-1.5526318574005522,0.42986082060672204,0.7940271898608735,0.09165994458732235,-0.8814774211621592
1747959989.3378372,-0.7051233687878216,-1.527271849004105,0.4215112823378182,0.7887900168790025,0.07393117240434244,-0.86698527232972
1747959989.3530772,-0.6386285057542731,-1.5428150799567657,0.45359108726571173,0.7656927411640841,0.0940593272887782,-0.777732038250571
1747959989.3683157,-0.5965719257159601,-1.5567221813354628,0.4311791687544436,0.805441541231618,0.0907268513145339,-0.7291948413673226
1747959989.3882933,-0.5749753035341238,-1.6225763966875273,0.5072039119397255,0.8262559466723874,-0.00684804521133997,-0.6781272692911084
1747959989.4035845,-0.4902938112948183,-1.6328022065248042,0.5551038946402789,0.7232582113622575,-0.1276169745179545,-0.561730010414693
1747959989.4188938,-0.41811562663447055,-1.6520267290188855,0.4909442847844918,0.7711984871193844,0.1549769880979645,-0.44050203526079723
1747959989.4341328,-0.556220342165687,-1.6974293246963956,0.7155029192797464,0.39398774593795693,0.46529715081959655,-0.3438877097112033
1747959989.4493268,-0.4539205528833046,-1.7829170949360318,0.5770763637689731,0.27729278898293364,0.31360284447199466,-0.3392870275421749
1747959989.464551,-0.491998807782858,-1.7996874230691668,0.5520277489622617,0.5892402976210455,0.19310051324331967,-0.25509454384895713
1747959989.4797761,-0.2595509532467777,-1.6925209359745024,0.6781497217609662,0.6488634977223462,0.43250558723303234,-0.08601947413716748
1747959989.4950273,-0.4465322347684658,-1.832000982154962,0.7194579637229113,0.6113975679289613,0.4318390920381835,0.20083305910174665
1747959989.5102704,-0.1885094329117898,-1.8823119665543655,0.6056405736362754,0.6029375192659389,0.5488756482536443,0.19738254747497547
1747959989.525513,-0.21351604806970548,-1.8315919497614712,0.7365964896432928,0.5556686759423851,0.5699368964108684,0.06442283279005778
1747959989.5407538,-0.22488269132330363,-1.8234113018916496,0.8209707710974785,0.33302168096950974,0.6692446804433495,-0.06048568809906041
1747959989.5560014,-0.14645285287347698,-1.8442719539596948,0.6794680699086879,0.35276179451656203,0.7648200913846769,-0.17205223069799647
1747959989.5712407,-0.30956418356260906,-1.8929468087851338,0.7822992254309766,0.45159664873853805,0.579001231060813,-0.30984266166039376
1747959989.5864518,-0.24420598485442024,-1.9514384410543584,0.886888178483561,0.33973600530524184,0.5807341185674201,-0.4248597158861013
1747959989.601696,-0.19419275453858886,-1.9919326480099762,0.8306386575141038,0.3786790864524878,0.46876292583281065,-0.5260747236047234
1747959989.6219807,-0.25443596378265854,-2.0283365310306825,0.781420326665829,0.5704401894809956,0.4029132005817427,-0.6275197654317977
1747959989.6372237,-0.4363022558402275,-2.158817864554338,0.803392795794523,0.4459566162965231,0.27294663758621385,-0.7211436475715232
1747959989.6524699,-0.16520781424191378,-2.1436836659951677,0.8082267390028358,0.48704828123120336,0.5180835702516267,-0.7620897188758751
1747959989.6677032,-0.3817423682229568,-2.2471688615484124,0.9514872377219219,0.3990906324331133,0.3005395386529569,-0.7752016630576057
1747959989.6829443,-0.32604581628032636,-2.311386947326512,0.9369854080969837,0.3518217891095595,0.30173923000368486,-0.6300501406247627
1747959989.6981611,-0.27375925731377526,-2.3719237415631924,0.9668679661120079,0.3648475783208798,0.4510341536498308,-0.3123730368533594
1747959989.7133727,-0.39936066526603375,-2.37846825985905,0.9840064920323893,0.32791879447435335,0.36225699369596187,0.07684467464643413
1747959989.7285974,-0.24818430999317964,-2.344927603592781,0.8763413933017878,0.3487331999151228,0.47902695183348315,0.4936664791603975
1747959989.7438126,-0.24647931350513996,-2.3273392106726645,0.8521716772602241,0.402582081087694,0.568470606982201,0.7135790868399499
1747959989.7590334,-0.23795433106494124,-2.301161137489235,0.8148184797414441,0.3856619837616492,0.6237897081546568,0.8389476759459709
1747959989.7742467,-0.20328606914146718,-2.2537133798442692,0.8499744303473549,0.4544166649595455,0.6415184803376367,0.9284309441335712
1747959989.7894783,-0.199307744002708,-2.1690436743916153,0.8662340575025884,0.43924229196079106,0.6324541456876921,1.091525127025624
1747959989.8047082,-0.1953294188639486,-2.0528784746401474,0.8196524229497568,0.3821705351070685,0.6361865187788458,1.2116029316372627
1747959989.8201044,-0.21124271941898598,-2.0340629845395575,0.8139395809762964,0.46247385416242404,0.6515159082603696,1.3254698153207127
1747959989.8353662,-0.2305660129501026,-2.0185197535868964,0.7941643587604715,0.4702624703918732,0.6709775679499566,1.4384165625703575
1747959989.8555818,-0.2601192854094576,-1.9857971621076098,0.7414304328516055,0.5289456650861715,0.75122358940976,1.6436069873090193
1747959989.870833,-0.32547748411764643,-1.8941739059656069,0.7779047316052379,0.48369111906333734,0.858795913858367,1.6900738772162054
1747959989.8861141,-0.15043117801223627,-1.967799736794002,0.7256102550789457,0.4745596379667417,0.9530383344099965,1.8757114027364967
1747959989.9013488,-0.3186574981654875,-1.7894616132318895,0.7387937365561622,0.2931385944152613,0.8789240687428026,1.9233284631859395
1747959989.916562,-0.3476424384621627,-1.86513260602774,0.6052011242537016,0.3851248378147906,0.7633538019560093,2.026153709663722
1747959989.931778,-0.3124058443760087,-1.810731297693426,0.6333258847384302,0.33597598367723186,0.5981962926724603,2.044556438339835
1747959989.9469903,-0.44539557044310585,-1.7416048231934327,0.7572506106242654,0.027654210180415306,0.49648912593852346,2.0167223112172143
1747959989.9622047,-0.32604581628032636,-1.7465132119153255,0.4891864872541963,-0.04566621156577888,0.5200830558361733,1.9849776042509186
1747959989.9774225,-0.3590090817157606,-1.508865391297006,0.5753185662386775,-0.06003486564424554,0.7001700574843368,1.7728861562587144
1747959989.9926636,-0.3476424384621627,-1.669206089545511,0.49841492428824785,-0.07144921701498996,0.8490650840135734,1.671211080323189
1747959990.007904,-0.503933783199136,-1.5779918657969993,0.4764424551595537,-0.011960303400403882,0.5948638166982161,1.5653953904355384
1747959990.02317,-0.46017220667278347,-1.6213492995070542,0.5933359909242067,-0.2288329794445495,0.8562632321179412,1.4745319175972296
1747959990.038413,-0.5533786813522874,-1.6283028501964028,0.5010516205836911,-0.18908417937701583,0.8104083627123393,1.4289851641238496
1747959990.053658,-0.6278301946633547,-1.5910809023887138,0.45490943541343337,-0.1431582009206085,0.7781499952816542,1.4931646803817942
1747959990.0688975,-0.6977350506729829,-1.6033518741934465,0.4680929168906499,-0.015586038541699154,0.63951899475309,1.534570819903049
1747959990.0888305,-0.7454749523380946,-1.5464963714981859,0.5190690452692204,0.02966850748113492,0.677109323742566,1.6373960663808313
1747959990.1040583,-0.6391968379169528,-1.469598281521862,0.410964497156045,0.0746544805305398,0.690705825717483,1.7158376973627636
1747959990.1192842,-0.6585201314480698,-1.4299221393532269,0.3525177292737185,0.23552969161468013,0.6661788025470446,1.689383774890851
1747959990.1345153,-0.7142166833907002,-1.4356485928621021,0.35515442556916177,0.2590298267897424,0.6188576437127752,1.5665455609777956
1747959990.149747,-0.6210102087111959,-1.3632498592141802,0.3762479959327082,0.32442734581977273,0.8424001320650849,1.44370734706474
1747959990.1649714,-0.9330245660224625,-1.371021474690511,0.3138461836072167,0.18463511314983105,0.619524138907624,1.4101223672308334
1747959990.1802015,-0.8534580632472764,-1.3333904944893311,0.18069302068732995,0.26547557815204514,0.6717773621837752,1.3901093997955605
1747959990.195445,-0.8614147135247949,-1.3198924255041253,0.21145447746750184,0.30280722145871547,0.7051021219262185,1.311207700596725
1747959990.2106872,-0.8898313216587901,-1.3051672593384465,0.19211870463425096,0.2466754700119954,0.7528231778773973,1.176867781261099
1747959990.2259269,-0.8801696748932317,-1.2630369228088647,0.19431595154712034,0.1905437185652753,0.804676504036639,1.01929441697188
1747959990.2411582,-0.8602780491994351,-1.234404655264489,0.17234348241842617,0.17348933475251588,0.8694598369759488,0.8697722464784604
1747959990.2563934,-0.9114279438406265,-1.2233607806402298,0.203104939198598,0.14730346984316078,0.8957197476529941,0.6880453008018429
1747959990.2716253,-0.9585995133430585,-1.269172408711231,0.22991135153560494,0.11171755086378077,0.8909209822500822,0.5258712543435956
1747959990.286861,-0.9483695344148202,-1.2376769144124176,0.203104939198598,0.20007805912201482,0.8879884033927472,0.2673129164442055
1747959990.302102,-0.8682346994769539,-1.2229517482467387,0.1929976033993987,0.3425560215262493,0.9382421410843517,0.15459620330301233
1747959990.3219767,-0.7625249172184918,-1.239722076379873,0.16003889970635743,0.5662773083928417,0.9470398776563567,0.10559893820286104
1747959990.337233,-0.8432280843190381,-1.2900330607792763,0.1973920972251375,0.72419821676926,0.9445071959159311,-0.03656214082011322
1747959990.352485,-0.8148114761850429,-1.2961685466816426,0.20222604043345022,0.7576355519612057,0.8967861399647523,-0.21667884773757085
1747959990.3677268,-0.8540263954099563,-1.3113027452408126,0.20090769228572858,0.8419674656180005,0.8439997205327221,-0.33261603839708387
1747959990.382965,-0.8449330808070776,-1.3305272677348936,0.20705998364176298,0.8604990007846209,0.7209647075636214,-0.4059969189930852
1747959990.398214,-0.8028765007687648,-1.3313453325218758,0.18420861574792108,1.0075427037371534,0.6793754074050522,-0.43728155774247734
1747959990.413481,-0.7898048610271271,-1.3603866324597427,0.1877242108085121,1.1202090660907373,0.5937974243864579,-0.4667259236242587
1747959990.4287596,-0.8125381475343232,-1.41969632951595,0.18420861574792108,1.170163639148584,0.4576991055983195,-0.5382665313526485
1747959990.444004,-0.7630932493811717,-1.5129557152319166,0.2685828972021067,1.211255304083264,0.3919826793862213,-0.6263695948895402
1747959990.4592328,-0.8102648188836037,-1.5743105742555796,0.35910947001232674,1.1164490444627273,0.2756126183656093,-0.7381661715969277
1747959990.4744554,-0.7687765710079708,-1.5824912221254013,0.4254663267809832,0.9976055037202698,0.1512446150068109,-0.8152275979281518
1747959990.4897158,-0.6630667887495088,-1.5702202503206686,0.46413787244748494,0.8819848386589635,0.16484111698172776,-0.809246711108415
1747959990.5049646,-0.6124852262709974,-1.554677019368007,0.4680929168906499,0.8516360926614547,0.011947119283397867,-0.8090166769999636
1747959990.5202053,-0.6772750928165063,-1.5722654122881243,0.5212662921820898,0.8807762602785318,-0.17587122662501242,-0.8094767452168665
1747959990.5354466,-0.5874786111130819,-1.5890357404212585,0.5239029884775331,0.8868191521806907,-0.2717132356442793,-0.8241989281577569
1747959990.555694,-0.5630403281178458,-1.6945660979419581,0.4610617267694677,0.9489937955295695,-0.348360183051899,-0.6719163483629202
1747959990.570946,-0.5772486321848433,-1.7231983654863336,0.7458249266773443,0.5172627407419976,0.07073199546906794,-0.5417170429794198
1747959990.586192,-0.5056387796871757,-1.7260615922407712,0.5401626156327668,0.43655656222649825,-0.0846946839696876,-0.44303241045376285
1747959990.6014085,-0.5494003562135281,-1.7285157866017178,0.5603772872311654,0.6221404868661325,-0.19653257766532728,-0.3277853221196042
1747959990.6166215,-0.3663973998305995,-1.7129725556490571,0.6592533983102893,0.6323462598564453,0.07459766759919129,-0.1610105934923285
1747959990.6318383,-0.38003737173491714,-1.8074590385454972,0.5647717810569043,0.7070095464697859,0.05220342905226938,0.08443580022533087
1747959990.647052,-0.3317291379071253,-1.8299558201875068,0.5783947119166947,0.6704836220834034,0.5394114164867904,0.27191359861323383
1747959990.6622696,-0.3038808619358101,-1.6569351177407783,0.7822992254309766,0.45293951360568446,0.4381041468697628,0.31055932883307147
1747959990.6774828,-0.8381130948549189,-1.7747364470662106,0.815257929124018,0.13938056712699692,0.09712520518508294,0.11894091649304311
1747959990.6927073,-0.09814461904568528,-1.8283196906135424,0.6895754057078872,0.5237084921043005,1.0488803434292635,0.11388016610711194
1747959990.7079525,-0.30047086895973074,-1.8041867793975683,0.9677468648771557,0.06847730214166631,0.7798828827882612,-0.09706111134283535
1747959990.723194,-0.28569423273005323,-1.9387584368561348,0.7387937365561622,0.10164606436018275,0.6301880620252059,-0.1552597407810432
1747959990.7384324,-0.35332576008896166,-2.0029765226342353,0.7467038254424921,0.2540612267813006,0.26761467602742295,-0.34043719808443196
1747959990.7536848,-0.34707410629948277,-1.9371223072821708,0.8939193686047431,0.20222664290944908,0.6359199207009062,-0.3613703019535106
1747959990.7689295,-0.3896990185004754,-1.996841036731869,0.9049056031690903,-0.768933229010837,1.0618103502093315,-0.32962559498721544
1747959990.7890751,-0.5846369502996822,-2.0647404140513888,0.5542249958751311,-0.7197843748732784,0.8706595283266767,-0.2272604167263359
1747959990.8043032,-0.39481400796459454,-2.0590139605425133,0.38503698358418587,-0.7671875046835466,0.9121155294462762,0.009214646761718348
1747959990.8195145,-0.4692655212756619,-2.313432109293968,0.709790077306286,0.0069740912263605015,0.6971041795880321,0.08719620952674784
1747959990.8347414,-0.35105243143824205,-2.1714978687525615,1.0595917858350974,0.2196838861823525,0.8603955023260041,0.14470473663960148
1747959990.8499537,-0.34480077764876305,-2.159226896947829,0.7590084081545609,0.48194539473604703,0.7100341863681001,0.14263442966353873
1747959990.8651564,-0.3044491940984899,-2.169861739178597,0.6821047662041312,0.625363362547284,0.5799343243336015,0.12147129168600862
1747959990.8803663,-0.2351126702515418,-2.1747701279004903,0.7273680526092412,0.7256753681231211,0.36572276870917597,0.05131088860832722
1747959990.8956468,-0.2828525719166537,-2.097872037924166,0.7300047489046846,0.6796151031799991,0.17630483433312832,0.11802078005923738
1747959990.910895,-0.2845575684046934,-2.177224322261437,0.6517827588065332,0.6817636869674333,0.06686632333894449,0.34322417223317236
1747959990.9261384,-0.2413643240410207,-2.1170965604182475,0.6807864180564096,0.503296946123675,0.07419777048228199,0.4545606807236571
1747959990.9413831,-0.228292684299383,-2.1841778729507855,0.6407965242421861,0.4471651946769549,0.1340490389797101,0.5221907086083729
1747959990.95662,-0.22374602699794377,-2.194403682788062,0.6342047835035779,0.49967121098237965,0.3102703684977503,0.5548555520084738
1747959990.9718573,-0.18225777912231078,-2.144092698388659,0.6785891711435401,0.6338234112103064,0.49302335092530936,0.5792391675043238
1747959990.9870968,-0.19589775102662854,-2.025882336669736,0.7612056550674302,0.7267496600168382,0.6176579523620472,0.5935012822283114
1747959991.0023403,-0.228292684299383,-1.9890694212555386,0.7119873242191553,0.770258481712382,0.7206981094856819,0.6898855736694542
1747959991.022506,-0.2453426491797801,-1.9522565058413406,0.6816653168215574,0.8696304818812166,0.7656198856184955,0.796851434099362
1747959991.0377643,-0.21692604104578483,-1.9121713312792146,0.7229735587835024,0.6694093301896864,0.8094752694395508,0.9001367487940473
1747959991.053012,-0.3419591168353636,-1.952665538234832,0.626294694617248,0.6170376003709762,0.768285866397891,0.9834090960534593
1747959991.068252,-0.30672252274920964,-1.9485752142999209,0.5814708575947118,0.5583544056766779,0.8735921071840117,1.0756527735424766
1747959991.0834892,-0.3544624244143215,-1.9399855340366083,0.5577405909357221,0.49859691908866255,0.9623692671378807,1.1856090773822527
1747959991.098718,-0.3794690395722372,-1.8483622778946058,0.5577405909357221,0.4192336054403095,0.9507722507475104,1.2194240913246106
1747959991.1139452,-0.3817423682229568,-1.889674549637205,0.5964121366022239,0.28655855656624385,0.965701743112125,1.348243192057403
1747959991.1291666,-0.3311608057444454,-1.7960061315277467,0.5814708575947118,0.18544083207011897,0.9601031834753945,1.4144930152914101
1747959991.1443977,-0.5494003562135281,-1.8831300313413477,0.49841492428824785,0.2993157728041348,0.7374937883958733,1.5016759423944965
1747959991.1596212,-0.39481400796459454,-1.8225932371046674,0.5880625983333201,0.2041066537234541,0.8274706397004703,1.5575742307481903
1747959991.1748483,-0.3504840992755621,-1.8291377554005246,0.5529066477274094,0.029265648020991075,0.8838561331846843,1.58678856252152
1747959991.1900802,-0.4016339939167535,-1.806640973758515,0.48830758848904854,0.05652580482406322,0.6940383016917273,1.5686158679538582
1747959991.2053387,-0.4249356125866294,-1.62748478540942,0.5612561859963132,0.0534372156296265,0.7968118607374224,1.4899442028634744
1747959991.2205846,-0.4237989482612696,-1.7154267500100033,0.5559827934054267,-0.12046378466583418,0.8053429992314879,1.3783776602645381
1747959991.2358284,-0.47892716804122015,-1.719517073944914,0.41799568727722713,0.10728609680219764,0.5527413203837678,1.3558343176362997
1747959991.2557838,-0.45789887802206375,-1.7011106162378158,0.5304947292161414,-0.0699720656611289,0.677109323742566,1.343872543996826
1747959991.2710357,-0.49768212940965695,-1.7023377134182884,0.4329369662847392,-0.027940395319446143,0.6628463265728004,1.2840636757994583
1747959991.286276,-0.5891836076011214,-1.6479364050839744,0.38020304037587316,0.001736918244489516,0.6053944407768281,1.2553094122430315
1747959991.301503,-0.5880469432757616,-1.6373015628532066,0.3661406601335089,0.10097463192660955,0.5143511971604731,1.2902745967276465
1747959991.316733,-0.6471534881944716,-1.6123505868502503,0.3727324008721171,0.1283690752163963,0.4580990027152288,1.3677960912757732
1747959991.3319592,-0.6744334320031069,-1.6000796150455177,0.3727324008721171,0.10178035084689735,0.5019543865362841,1.4266848230393352
1747959991.3471851,-0.6755700963284668,-1.5931260643561695,0.327908563849581,0.10070605895318024,0.4851587076260927,1.4391066648957116
1747959991.3624141,-0.6517001454959108,-1.5612215376638647,0.2931920626262442,0.149452053630595,0.5459430693963093,1.428295061798495
1747959991.3776453,-0.743769955850055,-1.4867776420484875,0.29626820830426137,0.15025777255088285,0.5375452299412136,1.3951701501814915
1747959991.392881,-0.6585201314480698,-1.479006026572157,0.233426946596196,0.1775179293539551,0.6556481784684326,1.3974704912660059
1747959991.4081254,-0.7363816377352164,-1.48023312375263,0.2470498774559864,0.14166343740114584,0.591398041685002,1.4089721966885764
1747959991.4234107,-0.5567886743283668,-1.3902459971845917,0.23166914906590047,0.36028183777258194,0.6725771564175939,1.2049319424921716
1747959991.4386678,-0.9222262549315445,-1.5211363631017387,0.3134067342246428,0.10419750760776086,0.4792935499114227,1.1881394525752182
1747959991.453963,-0.8068548259075243,-1.4213324590899143,0.16091779847150522,0.15267492931174642,0.5315467731875738,1.1649060076216253
1747959991.4692142,-0.9176795976301053,-1.4237866534508608,0.21540952191066676,0.1827551023358261,0.5683373079432312,1.0986561843876181
1747959991.4898531,-0.8847163321946709,-1.3648859887881446,0.233426946596196,0.15186921039145856,0.6391190976361807,1.0284957813099367
1747959991.5050757,-0.9131329403286661,-1.3882008352171364,0.21277282561522348,0.23203824296009948,0.6987037680556694,0.9806486867520423
1747959991.5202894,-0.920521258443505,-1.3845195436757165,0.2176067688235362,0.3487331999151228,0.7072349065497349,0.8902452821306364
1747959991.5355043,-0.8773280140798321,-1.3599776000662518,0.2382608898045087,0.4138621459717238,0.7294958460576869,0.8012220821599388
1747959991.5507183,-0.89039965382147,-1.341571142359153,0.23606364289163934,0.50141693530967,0.7164325402386492,0.7161094620329155
1747959991.5659342,-0.9296145730463832,-1.342798239539626,0.20705998364176298,0.5654715894725539,0.7000367584453671,0.6132842155551331
1747959991.5811496,-0.9176795976301053,-1.3906550295780828,0.23254804783104827,0.6437606112271899,0.6603136448323746,0.48331494428008387
1747959991.5963929,-0.9216579227688648,-1.3922911591520473,0.25012602313400356,0.678540811286282,0.6040614503871304,0.3740487427656619
1747959991.611631,-0.8796013427305518,-1.3730666366579662,0.2474893268385603,0.6765265139855623,0.5199497567972036,0.2530508017202178
1747959991.6268778,-0.8534580632472764,-1.3824743817082614,0.23079025030075273,0.7203039086545354,0.49755551825028166,0.12377163277052278
1747959991.6421213,-0.8278831159266806,-1.4025169689893242,0.25056547251657746,0.6461777679880534,0.46636354313135475,-0.025520503614445245
1747959991.6573489,-0.8386814270175986,-1.4413750463709771,0.32439296878898993,0.6021318003456511,0.42157506603751094,-0.1428378989246668
1747959991.6726134,-0.790941525352487,-1.4565092449301473,0.30901224039890396,0.5622487137914025,0.40171350923101473,-0.2185191206051822
1747959991.687861,-0.7977615113046457,-1.4532369857822187,0.2800085811490277,0.5450600434919284,0.34786069748722637,-0.29374027406879477
1747959991.7031047,-0.8051498294194845,-1.4667350547674243,0.29846545521713075,0.5371371407757646,0.31666872236829946,-0.37195187094227566
1747959991.7231328,-0.8165164726730825,-1.4961853870987825,0.33450030458818925,0.5662773083928417,0.2672147789105136,-0.45131363835801375
1747959991.738389,-0.7443382880127349,-1.5211363631017387,0.3665801095160828,0.5720516273215713,0.24855291345474528,-0.4837484476496632
1747959991.7536426,-0.6624984565868288,-1.5354524968739267,0.37492964778498655,0.5893745841077601,0.26348240581935994,-0.5120426429891871
1747959991.7688975,-0.5891836076011214,-1.5023208730011488,0.3740507490198388,0.6015946543987924,0.3263995522130929,-0.5306754057737517
1747959991.7841432,-0.6448801595437521,-1.5092744236904974,0.3085727910163301,0.6737064977645549,0.30920397618599216,-0.5789825685485488
1747959991.7993815,-0.5829319538116424,-1.5722654122881243,0.28572142312248816,0.8177958980093649,0.3192014041087251,-0.6052064569120101
1747959991.8146105,-0.5323503913331311,-1.62748478540942,0.3147250823723645,0.8568732656433256,0.33266460704467227,-0.5930146491640851
1747959991.829835,-0.5630403281178458,-1.71051836128811,0.3652617613683611,0.8505618007677375,0.28947571841846576,-0.648452869300876
1747959991.8450627,-0.3311608057444454,-1.8307738849744886,0.32395351940641604,0.993039763171972,0.6039281513481606,-0.5230842801948552
1747959991.8602922,-0.46812885695030204,-1.8774035778324727,0.6025644279582583,0.5912545949217651,0.7742843231515307,-0.5267648259300777
1747959991.87552,-0.4596038745101034,-2.0369262112939954,0.48347364528073583,0.6825694058877212,0.6572477669360699,-0.5562091918118588
1747959991.8907795,-0.4402805809789868,-2.0790565478235767,0.558180040318296,0.8161844601687893,0.4814263345349391,-0.5536788166188931
1747959991.906034,-0.4249356125866294,-2.0950088111697287,0.6570561513974198,0.8218244926108043,0.39718134190604243,-0.5288351329061405
1747959991.921282,-0.5130270978020144,-2.193994650394571,0.7431882303819011,0.7823442655166997,0.5070197500171355,-0.20954779037557714
1747959991.936523,-0.34650577413680284,-2.1097339773354076,0.6122323143748837,0.6240204976801376,0.671244166027896,-0.10833278265695456
1747959991.9566684,-0.3936773436392348,-2.1804965814093653,0.6777102723783924,0.6173061733444055,0.594330620542337,-0.10304199816257198
1747959991.9719179,-0.6210102087111959,-2.0880552604803806,0.7453854772947704,0.5238427785910151,0.2944077828603473,-0.06715667724415142
1747959991.9871633,-0.4499422277445452,-2.158817864554338,0.7897698649347327,0.3026729349720009,0.7001700574843368,-0.047373743917329736
1747959992.0023978,-0.5755436356968036,-2.2009482010839196,0.6799075192912618,0.4938968920536501,0.5823337070350574,-0.07842834855827074
1747959992.017632,-0.5022287867110962,-2.1657714152436864,0.6843020131170007,0.45844525956098475,0.6715107641058357,0.05959211651257812
1747959992.0328653,-0.44482723828042603,-2.136730115305819,0.6245368970869525,0.4213821892277438,0.46369756235195925,0.06695320798302329
1747959992.0480971,-0.3857206933617161,-2.228353371447822,0.7111084254540075,0.3723676215768997,0.7129667652254351,0.13228289478322514
1747959992.0633256,-0.37662737875883767,-2.101144297072095,0.6232185489392308,0.3081786809273011,0.6767094266256568,0.14654500950721278
1747959992.0785537,-0.3896990185004754,-2.1518643138649893,0.6109139662271621,0.4620709947022801,0.48009334414524135,0.18565080794395328
1747959992.0937812,-0.46585552829958243,-2.1322307589774177,0.7884515167870111,0.2873642754865317,0.4337052785837603,0.23372793661029895
1747959992.1090374,-0.36980739280667885,-2.1326397913709085,0.6504644106588116,0.15160063741802932,0.4023800044258636,0.40441324508124865
1747959992.1242864,-0.40504398689283283,-2.1412294716342215,0.6240974477043786,0.22183246996978676,0.29174180208095185,0.49113610396743196
1747959992.139529,-0.3317291379071253,-2.0892823576608537,0.6627689933708804,0.21149241049275938,0.2473532221040174,0.5859101566494148
1747959992.1547723,-0.28171590759129383,-2.0496062154922186,0.6183846057309181,0.19497517262685848,0.21096258446526928,0.699777040332865
1747959992.1700084,-0.30331252977313017,-2.0393804056549416,0.6434332205376294,0.1305176590038306,0.23149063646661439,0.8019121844852931
1747959992.1900299,-0.2703492643376958,-2.011975235291039,0.6183846057309181,0.10688323734205368,0.314002741588904,0.9097981813490066
1747959992.2052684,-0.30729085491188957,-1.9845700649271363,0.6267341439998219,0.12353476169466926,0.329865327226307,1.0158439053451087
1747959992.2204895,-0.31581583735208807,-1.95961908892418,0.6021249785756844,0.13656055090598945,0.3485271926820752,1.1409824603426784
1747959992.235705,-0.38685735768707596,-1.9088990721312857,0.5656506798220521,0.16261212932862984,0.39678144478913313,1.2709517316177277
1747959992.2509196,-0.28171590759129383,-1.8544977637969717,0.5177506971214987,0.16476071311606416,0.6423182745714553,1.4101223672308334
1747959992.2661338,-0.33457079872052486,-1.8630874440602847,0.5076433613222994,0.004288361492067683,0.5084860394458031,1.3390418277193463
1747959992.2813492,-0.2953558794956116,-1.8479532455011145,0.4672140181255021,0.11614900492536395,0.7394932739804199,1.3498534308165628
1747959992.2965636,-0.30672252274920964,-1.798051293495202,0.5142351020609076,0.07049159944238592,0.7240305854599263,1.321099167260136
1747959992.3118036,-0.356735753065041,-1.8197300103502294,0.45403053664828563,0.04766289670089685,0.734161312421629,1.271181765726179
1747959992.3270485,-0.3976556687779941,-1.8246383990721227,0.4606222773868939,0.04256001020574052,0.8044099059586995,1.270031595183922
1747959992.3422995,-0.5386020451226101,-1.757966118933076,0.45403053664828563,-0.03626615749575396,0.7121669709916164,1.2778527548712701
1747959992.357541,-0.42891393772538877,-1.739150628832486,0.32043792434582496,0.06391156159336853,0.7730846318008028,1.2962554835473832
1747959992.3727758,-0.5891836076011214,-1.71051836128811,0.38064248975844706,0.049274334541472564,0.7081679998225232,1.367105988950419
1747959992.3880167,-0.6090752332949179,-1.7231983654863336,0.33537920335333704,0.08177166432641575,0.7201649133298028,1.3243196447784558
1747959992.4032602,-0.5334870556584907,-1.705200940172726,0.33186360829274597,0.09949748057274843,0.8791906668207422,1.2879742556431322
1747959992.4231408,-0.5709969783953646,-1.6732964134804216,0.3063755441034607,0.1291747941366842,0.8499981772863618,1.196190646371018
1747959992.4384234,-0.43914391665362695,-1.5722654122881243,0.36086726754262227,0.26601272409890375,1.1157964609920896,1.1490336541384778
1747959992.453739,-0.7915098575151669,-1.6143957488177056,0.32087737372839886,0.1141347076246444,0.8110748579071881,1.1400623239088725
1747959992.4689846,-0.6136218905963573,-1.6053970361609018,0.18376916636534718,0.14005199956057013,0.9984933066986892,1.1607653936695002
1747959992.4842253,-0.767071574519931,-1.5788099305839811,0.23957923795223035,0.24452688622456115,0.8553301388451529,1.1352316076313929
1747959992.4994967,-0.7210366693428589,-1.5632666996313205,0.21277282561522348,0.18194938341553824,0.9395751314740495,1.1354616417398442
1747959992.514716,-0.7363816377352164,-1.538724756021855,0.21057557870235405,0.1432748752417215,0.9459734853445985,1.140752426234227
1747959992.529935,-0.7449066201754149,-1.53299830251298,0.16794898859268736,0.1216547508806643,0.9123821275242157,1.1078575487256748
1747959992.5451477,-0.6977350506729829,-1.4646898927999692,0.1934370527819726,0.13454625360526984,0.95103884882545,1.0542596014564949
1747959992.5603673,-0.6948933898595833,-1.4012898718088511,0.21145447746750184,0.144214880648724,0.9621026690599411,1.0572500448663633
1747959992.5755928,-0.6914833968835039,-1.3984266450544136,0.157841652793488,0.11977474006665922,0.9458401863056287,0.9783483456675282
1747959992.590812,-0.7471799488261344,-1.4340124632881377,0.12048845527470792,0.16261212932862984,0.9131819217580344,0.9935305968253216
1747959992.6060576,-0.7113750225773006,-1.420514394302932,0.15432605773289693,0.18852942126455569,0.9748993768010392,0.9562650712561924
1747959992.6212993,-0.7125116869026604,-1.4225595562703874,0.14861321575943648,0.3225473350057677,0.9170475938881577,0.9141688294095834
1747959992.6365452,-0.7750282247974498,-1.4286950421727538,0.08445360590364942,0.37747050807205607,0.8913208793669916,0.8716125193460718
1747959992.6567545,-0.8801696748932317,-1.3971995478739403,0.08840865034681439,0.5222313407504394,0.8152071281152511,0.8198548449445036
1747959992.672003,-0.8926729824721897,-1.3984266450544136,0.1046682775020481,0.614486157123398,0.771218445255226,0.6809142434398491
1747959992.6872451,-0.9227945870942245,-1.4143789084005658,0.063360035540103,0.6857922815688726,0.7537562711501857,0.6116739767959732
1747959992.7025068,-0.9324562338597828,-1.459781504078076,0.09148479602483156,0.6757207950652745,0.6931052084189389,0.4881456605575636
1747959992.717719,-0.9273412443956637,-1.4994576462467113,0.07083067504385909,0.6660521680218203,0.6488499274809741,0.3356330466542757
1747959992.7329333,-0.8852846643573509,-1.5121376504449349,0.0343563762902267,0.6945209032053243,0.6312544543369641,0.19784261569187833
1747959992.7481441,-0.8432280843190381,-1.4704163463088442,0.002276571362333224,0.7746899357739652,0.6068607302054957,0.07868494751404553
1747959992.7633681,-0.8636880421755144,-1.5105015208709704,0.007549963953219829,0.8086644169127695,0.5330130626162413,-0.056115040038483555
1747959992.7785752,-0.7568415955916927,-1.5972163882910801,0.10115268244145703,0.7583069843947788,0.5170171779398685,-0.1775730493008304
1747959992.7937882,-0.7755965569601295,-1.6593893121017245,0.15081046267230586,0.7239296437958307,0.44743507959764695,-0.29857099034627455
1747959992.8090138,-0.797193179141966,-1.6655247980040908,0.1925581540168248,0.7049952491690663,0.3638565821635991,-0.4059969189930852
1747959992.8242562,-0.7880998645390873,-1.656526085347287,0.2277141046227355,0.7407154546351609,0.24588693267534983,-0.4510836042495624
1747959992.8394969,-0.7494532774768541,-1.6483454374774653,0.2931920626262442,0.7760328006411116,0.1213856302775817,-0.4478631267312425
1747959992.8547463,-0.7085333617639009,-1.6728873810869307,0.3138461836072167,0.7639470168367939,0.03167537705092438,-0.42278940891003847
1747959992.8699908,-0.6994400471610227,-1.6818860937437345,0.3718535021069693,0.7286296708308432,-0.03217486261559699,-0.4248597158861013
1747959992.8899722,-0.661361792261469,-1.737923531652013,0.3652617613683611,0.6677978923491106,-0.022310733731833787,-0.40530681666773094
1747959992.9052143,-0.6539734741466303,-1.7162448147969855,0.28044803053160156,0.6792122437198551,-0.0052484567437027785,-0.39012456550993746
1747959992.9204464,-0.5846369502996822,-1.6945660979419581,0.2870397712702098,0.7729442114466748,-0.07736323682635005,-0.3961054523296742
1747959992.935675,-0.5744069713714439,-1.7248344950602985,0.31252783545949503,0.6722293464106939,-0.04443837420081609,-0.36850135931550465
1747959992.9509037,-0.6460168238691117,-1.7383325640455038,0.3472443366828319,0.5921946003287676,-0.021377640459045222,-0.297190785695566
1747959992.9661324,-0.6011185830173995,-1.7465132119153255,0.35823057124717894,0.5344514110414718,-0.014446090432617131,-0.35653958567603095
1747959992.981365,-0.5283720661943716,-1.8598151849123559,0.3011021515125741,0.6570549734119393,-0.1609417342603977,-0.3521689376154541
1747959992.9965837,-0.34480077764876305,-1.708882231714146,0.4900653860193441,0.5767516543565838,0.4213084679595714,-0.2507238957883803
1747959993.0118213,-0.3652607355052395,-1.7559209569656207,0.40481220580001065,0.36941331886917755,0.4377042497528535,-0.2284105872685931
1747959993.0270662,-0.4527838885579446,-1.8144125892348457,0.28528197373991426,0.5678887462334175,0.44236971611679554,-0.2831587050800296
1747959993.0423162,-0.4550572172086643,-1.8459080835336588,0.4118433959211928,0.7021752329480588,0.3749204023980903,-0.3634406089295734
1747959993.0575519,-0.49995545806037667,-2.0021584578472527,0.5590589390834438,0.6582635517923711,0.6296548658693268,-0.2884494895744122
1747959993.07279,-0.41811562663447055,-2.077011385856121,0.4782002526898492,0.5869574273468965,0.7910800020617221,-0.23968225858271242
1747959993.088036,-0.38287903254831657,-2.022201045128316,0.5638928822917565,0.6198576165919837,0.547276059786007,-0.4105976011621135
1747959993.1032808,-0.3646924033425597,-2.0410165352289056,0.6574956007799937,0.6259005084941426,0.8080089800108834,-0.39196483837754903
1747959993.1232736,-0.3317291379071253,-2.108915912548426,0.6122323143748837,0.5974317733106386,0.7140331575371932,-0.3273252539027014
1747959993.138535,-0.18566777209839025,-2.1915404560336245,0.6447515686853511,0.7435354708561683,0.7838818539573544,-0.1481286834190494
1747959993.1537795,-0.16350281775387399,-2.1727249659330345,0.6214607514089353,0.7266153735301235,0.9115823332903972,-0.06554643848499142
1747959993.1690195,-0.4675605247876222,-2.3142501740809496,0.6214607514089353,0.7145295897258058,0.6780424170153545,0.009214646761718348
1747959993.1842568,-0.4715388499263814,-2.2942075867998866,0.6500249612762377,0.9001135143654402,0.8165401185049488,0.09547743743099879
1747959993.199529,-0.36185074252916016,-2.198084974329482,0.7027588871851038,0.69989236267391,0.794145879958027,0.2486801536596409
1747959993.2147574,-0.3442324454860831,-2.2009482010839196,0.6429937711550556,0.4854368433906277,0.7550892615398834,0.4400685318912179
1747959993.2299857,-0.2959242116582914,-2.2365340193176437,0.6034433267234061,0.4601909838882751,0.8650609686899462,0.5451941194535144
1747959993.2452154,-0.3590090817157606,-2.2042204602318485,0.6205818526437875,0.3851248378147906,0.8494649811304829,0.6050029876508822
1747959993.2604482,-0.2970608759836513,-2.1330488237644,0.5757580156212514,0.35410465938370844,0.8166734175439185,0.6857449597173287
1747959993.2756755,-0.4186839587971505,-2.1363210829123287,0.5151140008260554,0.3866019891686516,0.4401036324543094,0.7706275457359008
1747959993.2909,-0.33854912385928415,-2.135093985731855,0.558180040318296,0.33194738907579263,0.38158535434657903,0.8989865782517901
1747959993.3061411,-0.37037572496935867,-2.097872037924166,0.6104745168445882,0.23673826999511194,0.31960130122563446,1.0163039735620116
1747959993.3213856,-0.3436641133234033,-2.0774204182496123,0.5625745341440349,0.09278315623701638,0.3359970830189165,1.0680616479635798
1747959993.3366282,-0.2680759356869762,-2.035699114113522,0.5362075711896018,0.23163538349995552,0.21936042392036498,1.0630008975776488
1747959993.35654,-0.37605904659615774,-1.9755713522703324,0.588502047715894,0.23230681593352878,0.13898110342159176,1.069211818505837
1747959993.371792,-0.37378571794543825,-2.0275184662437002,0.5177506971214987,0.1509292049844561,0.1321828524341333,1.1327012324384274
1747959993.3870244,-0.48120049669193987,-1.9657545748265464,0.509401158852595,0.2437211673042733,0.037273936687654885,1.1791681223456132
1747959993.4022748,-0.4374389201655873,-1.9015364890484463,0.5406020650153407,0.1381719887465651,0.16030894965675546,1.262900537821928
1747959993.4175007,-0.5016604545484165,-1.9633003804655997,0.49841492428824785,0.058942961584926734,0.053403120402997384,1.311207700596725
1747959993.4327307,-0.18168944695963096,-1.9301687565928223,0.4346947638150347,0.12742906980939384,0.5078195442509542,1.4184035951350844
1747959993.447986,-0.47438051073978105,-1.822184204711176,0.6552983538671243,-0.13966675226602787,0.4167763006345991,1.3445626463221803
1747959993.4633062,-0.3357074630458846,-1.9461210199389747,0.34021314656164975,-0.15376683337106523,0.5032873769259819,1.3273100881883242
1747959993.4785423,-0.503365451036456,-1.8029596822170952,0.5199479440343682,0.09332030218387494,0.44983446229910284,1.3606650339137794
1747959993.4937766,-0.45335222072062464,-1.78209903014905,0.44392320084908626,-0.007931708798964598,0.5063532548222867,1.424844550171724
1747959993.5090344,-0.4675605247876222,-1.7902796780188717,0.3463654379176841,0.09748318327202882,0.5242153260442363,1.5069667268888791
1747959993.524274,-0.5232570767302525,-1.759193216113549,0.4162378897469316,0.14716918335644613,0.4907572672628232,1.536871160987563
1747959993.5395188,-0.49540880075893745,-1.7411957907999414,0.35867002062975284,0.13145766441083306,0.6011288715297954,1.5755168912074007
1747959993.5547626,-0.5528103491896077,-1.6798409317762792,0.31560398113751226,0.1759064915133794,0.6113928975304679,1.5890889036060343
1747959993.5700028,-0.7414966271993355,-1.6045789713739196,0.29890490459970465,0.24627261055185146,0.5124850106148963,1.5467626276509738
1747959993.5904036,-0.7369499698978961,-1.6368925304597153,0.33406085520561535,0.16368642122234695,0.8074757838550043,1.563095049351024
1747959993.6056757,-0.6454484917064318,-1.620122202326581,0.21892511697125783,0.12084903196037644,0.8778576764310444,1.53963157028898
1747959993.6208916,-0.7136483512280201,-1.5571312137289541,0.22112236388412726,0.18006937260153327,0.9349096651101074,1.4922445439479883
1747959993.6361115,-0.6914833968835039,-1.5039570025751128,0.18552696389564272,0.17442934015951833,0.9739662835282509,1.5108773067325532
1747959993.651328,-0.7068283652758613,-1.474097637850264,0.11960955650956012,0.1956466050604317,1.0266194039213112,1.5389414679636257
1747959993.6665463,-0.760819920730452,-1.5051840997555863,0.12532239848302063,0.18087509152182113,1.0418154943638656,1.4878738958874118
1747959993.6817634,-0.7954881826539262,-1.4090614872851817,0.09016644787710992,0.22156389699635745,1.0794058233533415,1.3602049656968764
1747959993.6969738,-0.8256097872759611,-1.3571143733118138,0.13850587996023717,0.22572677808451133,1.0743404598724902,1.213903272721777
1747959993.7122128,-0.8455014129697578,-1.3571143733118138,0.10598662564976974,0.22478677267750888,1.047280754961626,1.0954357068692981
1747959993.727447,-0.8153798083477228,-1.3452524339005725,0.060723339244659724,0.252449788940725,1.0380831212727117,1.0105531208507261
1747959993.7426906,-0.8329981053907998,-1.337071786030751,0.04753985776744324,0.26507271869190124,1.0576780800012684,0.8879449410461222
1747959993.7579286,-0.9091546151899068,-1.272853700252651,0.07258847257415463,0.31099869714830863,1.087270466652558,0.729681474431549
1747959993.7731671,-0.8665297029889141,-1.2360407848384531,0.01897564790014078,0.3108644106615939,1.0292853847007069,0.5817695426972893
1747959993.788411,-0.8432280843190381,-1.2303143313295781,-0.0034362706111273345,0.3733076269839022,0.9525051382541174,0.4207456667812991
1747959993.8036506,-0.8216314621372016,-1.2503569186106414,-0.013543606410326647,0.43628798925306894,0.9101160438617295,0.23809858467087586
1747959993.823622,-0.7983298434673258,-1.309257583273357,0.0339169269076528,0.49121116231935724,0.7932127866852385,0.006454237460301382
1747959993.8388746,-0.796624846979286,-1.3309363001283847,0.052373800975755946,0.5382114326694818,0.7649533904236466,-0.08141879196813906
1747959993.854114,-0.8148114761850429,-1.3317543649153667,0.052373800975755946,0.5990432111512143,0.6955045911203948,-0.15341946791343186
1747959993.8693626,-0.8153798083477228,-1.3673401831490912,0.05984444047951193,0.6767950869589916,0.6091268138679817,-0.22426997331646747
1747959993.8846111,-0.8267464516013208,-1.4074253577112172,0.07214902319158073,0.7400440222015876,0.4560995171306822,-0.3024815701899485
1747959993.899838,-0.7994665077926855,-1.4241956858443519,0.14905266514201032,0.7718699195529577,0.3391962599541911,-0.379773030629624
1747959993.9150693,-0.7449066201754149,-1.4708253787023353,0.19167925525167706,0.7568298330409178,0.2444206432466824,-0.4437225127791171
1747959993.930293,-0.7136483512280201,-1.5096834560839882,0.19431595154712034,0.7123810059383715,0.1531108015523877,-0.5221641437610496
1747959993.945518,-0.6869367395820647,-1.5837183193058744,0.1886031095736599,0.7587098438549228,0.06220085697500238,-0.624529322021929
1747959993.9607456,-0.573838639208764,-1.630348012163858,0.2228801614144228,0.8466674926530129,0.04553847710378078,-0.7501279452364014
1747959993.975973,-0.5601986673044463,-1.6610254416756893,0.3024204996602957,0.8239730763982385,0.009547736581941968,-0.8736562614748111
1747959993.9911993,-0.5295087305197315,-1.7174719119774586,0.29846545521713075,0.7315839735385653,-0.049370438642697634,-1.0006350893399918
1747959994.006424,-0.5937302649025606,-1.7898706456253803,0.3670195588986566,0.6635007247742422,-0.06483312716319134,-1.0512425931993032
1747959994.0216599,-0.4482372312565055,-1.826274528646087,0.3406525959442236,0.773212784420104,-0.04803744825299994,-1.094949073805072
1747959994.0368981,-0.4499422277445452,-1.86513260602774,0.36921680581152605,0.9309994063098077,-0.11815274275110066,-1.0712555606345762
1747959994.0569503,-0.47665383939050066,-1.9845700649271363,0.42370852925068764,0.8844019954198271,-0.40541217173096167,-1.0162774087146882
1747959994.0722046,-0.199307744002708,-2.055332669001094,0.48435254404588357,0.8970249251710034,0.00941443754297222,-0.9120719575861973
1747959994.0874536,-0.5215520802422129,-2.00093136066678,0.7401120847038839,0.4760367893206028,0.19723278345138268,-0.8094767452168665
1747959994.1026924,-0.39936066526603375,-2.0913275196283094,0.3516388305085707,0.5555343894556705,-0.00684804521133997,-0.7034310212207642
1747959994.1179178,-0.41413730149571126,-2.0880552604803806,0.437331460110478,0.8846705683932563,-0.04510486939566494,-0.5633402491738526
1747959994.1331499,-0.28569423273005323,-2.086828163299907,0.5792736106818425,0.7542783897933396,0.11405418313424415,-0.40507678255927937
1747959994.148381,-0.36412407117987977,-2.085601066119434,0.5946543390719283,0.3324845350226512,0.3883836053340374,-0.061635858641317376
1747959994.1636102,-0.45335222072062464,-2.0790565478235767,0.5533460971099833,0.4685167460645829,0.3080042848352642,-0.03173142454263356
1747959994.1788359,-0.10951126229928321,-2.0635133168709157,0.5239029884775331,0.5035655190971042,0.5706033916057174,0.017035806449066437
1747959994.1940637,-0.38003737173491714,-2.1138243012703186,0.5726818699432342,0.46247385416242404,0.385717624554642,0.0034637940504329556
1747959994.2093294,-0.17316446451943246,-2.1281404350425066,0.5761974650038253,0.34765890802140564,0.845732608039329,0.23349790250184754
1747959994.2245734,-0.3169525016774478,-2.0913275196283094,0.5898203958636157,0.4002992108135451,0.7610877182935232,0.28755591798793
1747959994.2398112,-0.26921260001233593,-2.1007352646786037,0.5278580329206981,0.35209036208298883,0.9067835678874853,0.35702621874025725
1747959994.2550554,-0.24193265620370064,-2.0369262112939954,0.4755635563944059,0.3647132918341651,0.9705005085150369,0.5302419024041725
1747959994.2702985,-0.33229747006980526,-2.0688307379863,0.4610617267694677,0.4189650324668802,0.9146482111867018,0.5776289287451639
1747959994.290216,-0.26921260001233593,-2.0148384620454767,0.47424520824668426,0.4322593946516297,0.990362065321533,0.625936091519961
1747959994.3055098,-0.20840105860558633,-1.9874332916815738,0.4575461317088767,0.41372785948500923,0.9190470794727044,0.6604412077876731
1747959994.3207493,-0.2555726281080183,-1.9718900607289127,0.48874703787162244,0.44958235143781844,0.9071834650043946,0.6661920604989585
1747959994.3359609,-0.23454433808886188,-1.9690268339744752,0.4307397193718698,0.44676233521681097,0.8535972513385457,0.6960964945976424
1747959994.3511844,-0.2453426491797801,-1.924033270690456,0.41491954159920996,0.4933597461067915,0.7185653248621655,0.7204801100934923
1747959994.3664124,-0.27148592866305554,-1.8753584158650174,0.4193140354249488,0.5012826488229554,0.6175246533230775,0.737502634118897
1747959994.381646,-0.26921260001233593,-1.8250474314656135,0.4136011934514883,0.4361537027663543,0.5768684464372966,0.706448029477956
1747959994.396882,-0.25898262108409775,-1.8315919497614712,0.36130671692519617,0.3856619837616492,0.5343460530059391,0.7881101379782083
1747959994.41211,-0.3055858584238499,-1.8160487188088097,0.34372874162224076,0.381230529700066,0.47849375567760405,0.7660268635668724
1747959994.4273508,-0.31297417653868853,-1.787825483657925,0.35823057124717894,0.32227876203233846,0.4883578845613673,0.7485442713245649
1747959994.4426003,-0.30672252274920964,-1.7587841837200582,0.3054966453383129,0.25943268624988636,0.5207495510310222,0.777988637206346
1747959994.4578671,-0.3607140782038004,-1.7174719119774586,0.3006627021300002,0.27500991870878466,0.5127516086928358,0.83066644804172
1747959994.47319,-0.34650577413680284,-1.679022866989297,0.33493975397076314,0.25889554030302775,0.5598061694491657,0.8854145658531567
1747959994.48844,-0.4272089412373491,-1.7371054668650308,0.2822058280618971,0.3500760647822692,0.4307726997264253,0.9141688294095834
1747959994.5036848,-0.3419591168353636,-1.7019286810247976,0.4122828453037667,0.328053080961068,0.6500496188317021,0.9293510805673768
1747959994.5238507,-0.3493474349502024,-1.7007015838443245,0.2953893095391136,0.3704876107628947,0.44770167767558644,0.8821940883348369
1747959994.5390983,-0.35105243143824205,-1.6679789923650379,0.34592598853511025,0.39895634594639867,0.5688705040991103,0.8559701999713756
1747959994.554334,-0.38231070038563675,-1.688021579646101,0.35383607742144013,0.38821342700922734,0.44130332380503734,0.7724678186035121
1747959994.5695717,-0.3771957109215176,-1.7043828753857437,0.2795691317664538,0.4936283190802208,0.41664300159562934,0.698626869790608
1747959994.5847702,-0.4175472944717906,-1.705200940172726,0.3472443366828319,0.5195456110161466,0.4059790784780475,0.6073033287353964
1747959994.6000187,-0.43687058800290735,-1.719517073944914,0.3375764502662064,0.48946543799206693,0.32546645894030446,0.5302419024041725
1747959994.6152484,-0.44369057395506617,-1.71788094437095,0.3134067342246428,0.5160541623615659,0.3100037704198108,0.493896513268849
1747959994.6304762,-0.44369057395506617,-1.7113364260750923,0.3287874626147288,0.45602810280012124,0.2849435510934934,0.4612316698687481
1747959994.6456978,-0.47040218560102165,-1.709291264107637,0.3384553490313542,0.43695942168664215,0.2629492096634808,0.4269565877094873
1747959994.660921,-0.4510788920699049,-1.7395596612259774,0.3490021342131274,0.4432708865622303,0.2865431395611307,0.3517354342458747
1747959994.6761613,-0.4755171750651408,-1.737923531652013,0.3375764502662064,0.42809651356347583,0.3173352175631483,0.40418321097279725
1747959994.6913915,-0.4755171750651408,-1.727697721814736,0.3415314947093714,0.4227250540948902,0.3567917330982012,0.41637501872072225
1747959994.7066135,-0.48688381831873895,-1.7596022485070404,0.3384553490313542,0.4131907135381506,0.4063789755949568,0.4476596574701146
1747959994.7218535,-0.4510788920699049,-1.7972332287082202,0.36042781816004843,0.4470309081902403,0.47902695183348315,0.481704705520924
