Time,AccX,AccY,AccZ
1748589999.3711803,0.1708984375,0.983154296875,-0.2080078125
1748589999.3812356,0.17236328125,0.962158203125,-0.19775390625
1748589999.391237,0.175048828125,0.9716796875,-0.2138671875
1748589999.4012399,0.166015625,0.9677734375,-0.203369140625
1748589999.4112532,0.16064453125,0.97119140625,-0.195556640625
1748589999.4212375,0.1591796875,0.967529296875,-0.200439453125
1748589999.431237,0.161376953125,0.95751953125,-0.18798828125
1748589999.4412365,0.15966796875,0.97509765625,-0.202880859375
1748589999.451239,0.158935546875,0.971435546875,-0.19921875
1748589999.4612362,0.1650390625,0.974853515625,-0.1953125
1748589999.4712358,0.164306640625,0.973388671875,-0.19921875
1748589999.4812353,0.167724609375,0.955810546875,-0.21337890625
1748589999.4912333,0.162841796875,0.97216796875,-0.189453125
1748589999.5012338,0.166259765625,0.971923828125,-0.203857421875
1748589999.5112376,0.173095703125,0.974365234375,-0.204833984375
1748589999.5212362,0.167236328125,0.97412109375,-0.206298828125
1748589999.5312352,0.169677734375,0.96484375,-0.209716796875
1748589999.5412352,0.1640625,0.968505859375,-0.203369140625
1748589999.551234,0.160888671875,0.965576171875,-0.215576171875
1748589999.5612338,0.166748046875,0.96533203125,-0.2099609375
1748589999.5712342,0.15966796875,0.966064453125,-0.196044921875
1748589999.5812345,0.17041015625,0.97265625,-0.19580078125
1748589999.591235,0.171630859375,0.970947265625,-0.193115234375
1748589999.601235,0.15673828125,0.982421875,-0.217529296875
1748589999.611239,0.157958984375,0.971923828125,-0.18994140625
1748589999.6212366,0.1591796875,0.975341796875,-0.19287109375
1748589999.6312358,0.16455078125,0.969970703125,-0.19775390625
1748589999.6412346,0.16259765625,0.972900390625,-0.20263671875
1748589999.6512349,0.166015625,0.971435546875,-0.201171875
1748589999.6612346,0.16455078125,0.959716796875,-0.203125
1748589999.6712356,0.173583984375,0.97021484375,-0.201904296875
1748589999.6812403,0.16650390625,0.96533203125,-0.208984375
1748589999.6912365,0.1650390625,0.966064453125,-0.214111328125
1748589999.7012355,0.155029296875,0.968994140625,-0.207275390625
1748589999.711237,0.15185546875,0.966064453125,-0.215087890625
1748589999.721237,0.15625,0.95458984375,-0.211181640625
1748589999.7312343,0.158447265625,0.9716796875,-0.211181640625
1748589999.7412348,0.16552734375,0.982666015625,-0.2021484375
1748589999.7512348,0.171142578125,0.973388671875,-0.20166015625
1748589999.7612348,0.182861328125,0.970947265625,-0.193603515625
1748589999.7712843,0.17041015625,0.9716796875,-0.1943359375
1748589999.7812366,0.1630859375,0.969970703125,-0.202392578125
1748589999.7912352,0.1630859375,0.974853515625,-0.193359375
1748589999.801237,0.15771484375,0.966552734375,-0.19970703125
1748589999.811237,0.15380859375,0.96875,-0.19921875
1748589999.821236,0.167236328125,0.969482421875,-0.178955078125
1748589999.8312373,0.1494140625,0.9560546875,-0.201904296875
1748589999.8412352,0.146240234375,0.96826171875,-0.20068359375
1748589999.8512347,0.15869140625,0.971923828125,-0.197998046875
1748589999.861235,0.156982421875,0.966552734375,-0.20361328125
1748589999.8712356,0.161376953125,0.96728515625,-0.20458984375
1748589999.8812354,0.167724609375,0.970947265625,-0.193603515625
1748589999.8912349,0.168701171875,0.9716796875,-0.207763671875
1748589999.9012346,0.16357421875,0.9716796875,-0.2080078125
1748589999.9112382,0.162841796875,0.97802734375,-0.204833984375
1748589999.921236,0.16845703125,0.979736328125,-0.210205078125
1748589999.9312356,0.16748046875,0.97314453125,-0.215087890625
1748589999.9412346,0.16357421875,0.984375,-0.2109375
1748589999.951236,0.16650390625,0.979736328125,-0.194580078125
1748589999.9612348,0.16015625,0.978271484375,-0.206298828125
1748589999.9712346,0.15380859375,0.951171875,-0.215087890625
1748589999.981235,0.169189453125,0.965087890625,-0.206298828125
1748589999.9912343,0.185302734375,0.9619140625,-0.20849609375
1748590000.001235,0.16162109375,0.96337890625,-0.205810546875
1748590000.011246,0.163330078125,0.9658203125,-0.20703125
1748590000.0212371,0.169677734375,0.974609375,-0.21044921875
1748590000.0312357,0.16796875,0.974853515625,-0.20361328125
1748590000.0412362,0.1650390625,0.974609375,-0.202880859375
1748590000.0512357,0.166015625,0.974609375,-0.203857421875
1748590000.0612342,0.16796875,0.97607421875,-0.21630859375
1748590000.0712364,0.163818359375,0.96826171875,-0.200439453125
1748590000.081236,0.167236328125,0.96533203125,-0.20703125
1748590000.0912354,0.158935546875,0.96240234375,-0.207763671875
1748590000.1012354,0.169189453125,0.96826171875,-0.207275390625
1748590000.1112354,0.14453125,0.965087890625,-0.195068359375
1748590000.1212347,0.16064453125,0.963134765625,-0.205322265625
1748590000.131235,0.15771484375,0.965576171875,-0.198974609375
1748590000.141234,0.160400390625,0.96435546875,-0.19091796875
1748590000.1512356,0.1552734375,0.968994140625,-0.197021484375
1748590000.1612382,0.15625,0.972412109375,-0.208251953125
1748590000.1712372,0.141357421875,0.970458984375,-0.19091796875
1748590000.1812341,0.16650390625,0.9736328125,-0.1962890625
1748590000.1912348,0.15576171875,0.97265625,-0.199462890625
1748590000.2012353,0.160400390625,0.969482421875,-0.20458984375
1748590000.2112353,0.162109375,0.96875,-0.206787109375
1748590000.2212362,0.145751953125,0.981689453125,-0.2041015625
1748590000.2312353,0.15673828125,0.957763671875,-0.193603515625
1748590000.241235,0.15283203125,0.96728515625,-0.21826171875
1748590000.2512345,0.14990234375,0.96728515625,-0.2080078125
1748590000.261235,0.1572265625,0.962646484375,-0.204345703125
1748590000.2712355,0.15283203125,0.961181640625,-0.200439453125
1748590000.2812355,0.157958984375,0.96240234375,-0.20166015625
1748590000.291237,0.14111328125,0.981689453125,-0.195556640625
1748590000.3012369,0.154296875,0.973388671875,-0.19873046875
1748590000.311239,0.15576171875,0.9658203125,-0.1962890625
1748590000.3212364,0.15625,0.962158203125,-0.197265625
1748590000.331237,0.15673828125,0.9677734375,-0.2041015625
1748590000.3412364,0.1591796875,0.969970703125,-0.206298828125
1748590000.351235,0.171630859375,0.953857421875,-0.1953125
1748590000.3612354,0.168701171875,0.964111328125,-0.20849609375
1748590000.3712351,0.177001953125,0.96630859375,-0.204345703125
1748590000.3812363,0.16357421875,0.968505859375,-0.202392578125
1748590000.3912356,0.165283203125,0.971435546875,-0.20849609375
1748590000.4012394,0.16748046875,0.968994140625,-0.209716796875
1748590000.4112563,0.1611328125,0.96875,-0.21875
1748590000.4212372,0.159423828125,0.9677734375,-0.197265625
1748590000.4312358,0.14697265625,0.960205078125,-0.1982421875
1748590000.4412348,0.14892578125,0.9599609375,-0.192138671875
1748590000.4512348,0.14892578125,0.97216796875,-0.204833984375
1748590000.4612358,0.150390625,0.9716796875,-0.1923828125
1748590000.4712367,0.1513671875,0.97509765625,-0.202880859375
1748590000.4812338,0.158447265625,0.973388671875,-0.198486328125
1748590000.4912353,0.163818359375,0.974609375,-0.20068359375
1748590000.5012345,0.163818359375,0.966552734375,-0.19384765625
1748590000.5112393,0.15625,0.965087890625,-0.197509765625
1748590000.521237,0.143310546875,0.98095703125,-0.20703125
1748590000.5312352,0.15380859375,0.96435546875,-0.21337890625
1748590000.5412347,0.153076171875,0.968994140625,-0.1962890625
1748590000.551235,0.146728515625,0.97265625,-0.197509765625
1748590000.5612347,0.153076171875,0.96826171875,-0.189697265625
1748590000.571235,0.16943359375,0.966064453125,-0.189697265625
1748590000.581237,0.15771484375,0.98193359375,-0.203857421875
1748590000.5912344,0.16162109375,0.96533203125,-0.187744140625
1748590000.601235,0.16455078125,0.97216796875,-0.190185546875
1748590000.6112378,0.1650390625,0.96533203125,-0.215087890625
1748590000.6212363,0.159423828125,0.96728515625,-0.20654296875
1748590000.6312356,0.158935546875,0.9716796875,-0.21044921875
1748590000.6412373,0.142578125,0.9697265625,-0.209228515625
1748590000.6512368,0.16015625,0.9580078125,-0.19970703125
1748590000.661236,0.16015625,0.966552734375,-0.198486328125
1748590000.671237,0.152587890625,0.968505859375,-0.20166015625
1748590000.6812353,0.159912109375,0.9716796875,-0.19921875
1748590000.6912348,0.1552734375,0.968994140625,-0.195556640625
1748590000.7012346,0.1474609375,0.969970703125,-0.1953125
1748590000.7112358,0.154541015625,0.97314453125,-0.188720703125
1748590000.7212346,0.160888671875,0.97021484375,-0.2021484375
1748590000.7312348,0.161865234375,0.968505859375,-0.19921875
1748590000.7412364,0.1611328125,0.969970703125,-0.201904296875
1748590000.7512352,0.16259765625,0.975830078125,-0.195556640625
1748590000.7612357,0.158203125,0.975341796875,-0.202392578125
1748590000.7712352,0.155517578125,0.979736328125,-0.201416015625
1748590000.7812352,0.1474609375,0.97021484375,-0.1982421875
1748590000.7912347,0.150390625,0.964599609375,-0.199462890625
1748590000.8012345,0.15087890625,0.9677734375,-0.195068359375
1748590000.8112347,0.15087890625,0.970458984375,-0.19921875
1748590000.8212352,0.156982421875,0.967529296875,-0.19580078125
1748590000.8312356,0.152099609375,0.977294921875,-0.189453125
1748590000.8412333,0.155517578125,0.978759765625,-0.197021484375
1748590000.8512375,0.15966796875,0.977783203125,-0.200927734375
1748590000.861235,0.155029296875,0.97314453125,-0.196533203125
1748590000.8712351,0.1552734375,0.95361328125,-0.18798828125
1748590000.8812354,0.1494140625,0.977783203125,-0.211669921875
1748590000.8912349,0.147705078125,0.969970703125,-0.198486328125
1748590000.901235,0.14892578125,0.9697265625,-0.204345703125
1748590000.9112377,0.151123046875,0.974609375,-0.20654296875
1748590000.9212387,0.14794921875,0.973876953125,-0.2001953125
1748590000.9312348,0.146728515625,0.956787109375,-0.190185546875
1748590000.941235,0.149658203125,0.955322265625,-0.1982421875
1748590000.9512348,0.151611328125,0.9658203125,-0.188232421875
1748590000.9612346,0.15380859375,0.970458984375,-0.19677734375
1748590000.9712353,0.158447265625,0.97314453125,-0.205078125
1748590000.9812343,0.141357421875,0.974853515625,-0.19189453125
1748590000.9912353,0.158447265625,0.984375,-0.20068359375
1748590001.0012348,0.1611328125,0.957763671875,-0.189208984375
1748590001.0112393,0.1689453125,0.973876953125,-0.19873046875
1748590001.0212367,0.1572265625,0.964599609375,-0.1962890625
1748590001.0312357,0.14794921875,0.969482421875,-0.194580078125
1748590001.0412357,0.1484375,0.958740234375,-0.198974609375
1748590001.051235,0.14794921875,0.97509765625,-0.189208984375
1748590001.0612352,0.149169921875,0.97412109375,-0.201416015625
1748590001.0712354,0.149658203125,0.9794921875,-0.1953125
1748590001.081234,0.153564453125,0.97216796875,-0.19482421875
1748590001.0912352,0.142822265625,0.975830078125,-0.19482421875
1748590001.1012356,0.1640625,0.977294921875,-0.192138671875
1748590001.1112382,0.16552734375,0.970703125,-0.1953125
1748590001.121236,0.162109375,0.97900390625,-0.19287109375
1748590001.131235,0.159423828125,0.97412109375,-0.193115234375
1748590001.141235,0.153564453125,0.968017578125,-0.19775390625
1748590001.1512346,0.14990234375,0.977294921875,-0.19580078125
1748590001.1612384,0.152099609375,0.978271484375,-0.198974609375
1748590001.171238,0.1494140625,0.970947265625,-0.19921875
1748590001.181235,0.154541015625,0.97216796875,-0.19482421875
1748590001.1912348,0.15185546875,0.965087890625,-0.195556640625
1748590001.2012343,0.148193359375,0.973388671875,-0.19970703125
1748590001.2112358,0.1572265625,0.97900390625,-0.199951171875
1748590001.221235,0.161865234375,0.97265625,-0.214599609375
1748590001.2312355,0.158935546875,0.97998046875,-0.213623046875
1748590001.2412353,0.162109375,0.971435546875,-0.189453125
1748590001.251236,0.157958984375,0.971923828125,-0.20458984375
1748590001.2612357,0.154296875,0.966552734375,-0.20947265625
1748590001.2712352,0.152587890625,0.96435546875,-0.207275390625
1748590001.2812347,0.147705078125,0.97119140625,-0.193115234375
1748590001.2912369,0.145263671875,0.975341796875,-0.195556640625
1748590001.3012362,0.15234375,0.976318359375,-0.177978515625
1748590001.311238,0.1484375,0.9736328125,-0.184326171875
1748590001.3212364,0.151611328125,0.978515625,-0.18505859375
1748590001.3312368,0.14990234375,0.97412109375,-0.190673828125
1748590001.3412352,0.152099609375,0.969482421875,-0.1865234375
1748590001.3512354,0.1552734375,0.97412109375,-0.203125
1748590001.3612351,0.156982421875,0.96728515625,-0.188232421875
1748590001.371236,0.15673828125,0.976806640625,-0.1943359375
1748590001.3812363,0.150390625,0.973388671875,-0.197021484375
1748590001.3912375,0.14697265625,0.970947265625,-0.1953125
1748590001.401237,0.15087890625,0.96728515625,-0.201416015625
1748590001.4113972,0.14892578125,0.96875,-0.20849609375
1748590001.4212363,0.15087890625,0.965576171875,-0.203125
1748590001.4312358,0.1533203125,0.970458984375,-0.194580078125
1748590001.441239,0.16259765625,0.973876953125,-0.199951171875
1748590001.4512393,0.161865234375,0.978515625,-0.191162109375
1748590001.4612403,0.15673828125,0.9775390625,-0.19970703125
1748590001.471237,0.156982421875,0.981689453125,-0.192626953125
1748590001.4812367,0.15869140625,0.9716796875,-0.1923828125
1748590001.491235,0.150634765625,0.973876953125,-0.207275390625
1748590001.5012352,0.150146484375,0.97216796875,-0.19677734375
1748590001.5112386,0.151611328125,0.97705078125,-0.190673828125
1748590001.5212362,0.1474609375,0.97705078125,-0.21484375
1748590001.5312347,0.151123046875,0.9775390625,-0.1962890625
1748590001.5412345,0.150634765625,0.97119140625,-0.203369140625
1748590001.5512345,0.159423828125,0.968505859375,-0.201416015625
1748590001.561234,0.148193359375,0.97216796875,-0.20068359375
1748590001.5712352,0.1650390625,0.974853515625,-0.194091796875
1748590001.5812345,0.171630859375,0.974365234375,-0.198974609375
1748590001.5912347,0.16015625,0.97265625,-0.1943359375
1748590001.6012344,0.15283203125,0.968994140625,-0.19921875
1748590001.6112375,0.1494140625,0.9716796875,-0.19580078125
1748590001.621236,0.15283203125,0.969970703125,-0.190185546875
1748590001.631235,0.1513671875,0.974853515625,-0.191650390625
1748590001.641235,0.164794921875,0.970947265625,-0.179931640625
1748590001.6512353,0.15185546875,0.9697265625,-0.174072265625
1748590001.6612349,0.155517578125,0.972900390625,-0.197021484375
1748590001.6712353,0.1572265625,0.97021484375,-0.192626953125
1748590001.6812367,0.171630859375,0.971923828125,-0.1865234375
1748590001.691236,0.1708984375,0.97900390625,-0.2021484375
1748590001.7012353,0.14208984375,0.9775390625,-0.19091796875
1748590001.7112372,0.1552734375,0.97265625,-0.203125
1748590001.7212365,0.158935546875,0.974365234375,-0.212646484375
1748590001.731235,0.1494140625,0.970458984375,-0.215087890625
1748590001.7412345,0.145751953125,0.964599609375,-0.20361328125
1748590001.751235,0.145751953125,0.97314453125,-0.208251953125
1748590001.761235,0.146240234375,0.9755859375,-0.214599609375
1748590001.7712352,0.15576171875,0.97607421875,-0.189697265625
1748590001.7812347,0.157958984375,0.9716796875,-0.1962890625
1748590001.7912352,0.15771484375,0.9658203125,-0.1865234375
1748590001.8012354,0.163330078125,0.979248046875,-0.18896484375
1748590001.8112369,0.156982421875,0.98095703125,-0.193603515625
1748590001.8212366,0.153564453125,0.9765625,-0.193115234375
1748590001.8312364,0.15478515625,0.97509765625,-0.193359375
1748590001.8412354,0.153564453125,0.967529296875,-0.196533203125
1748590001.8512344,0.15185546875,0.96533203125,-0.196044921875
1748590001.8612354,0.170166015625,0.978759765625,-0.19189453125
1748590001.8712344,0.17138671875,0.97021484375,-0.1953125
1748590001.8812354,0.164794921875,0.97265625,-0.19970703125
1748590001.8912356,0.162109375,0.977294921875,-0.184326171875
1748590001.9012353,0.15966796875,0.9697265625,-0.193603515625
1748590001.9112377,0.17041015625,0.97509765625,-0.185302734375
1748590001.9212358,0.156494140625,0.970703125,-0.1943359375
1748590001.9312365,0.142578125,0.9736328125,-0.20068359375
1748590001.9412348,0.145263671875,0.970458984375,-0.195556640625
1748590001.9512353,0.1484375,0.971435546875,-0.195068359375
1748590001.9612346,0.143798828125,0.969970703125,-0.197021484375
1748590001.9712346,0.170654296875,0.967529296875,-0.195556640625
1748590001.9812355,0.15283203125,0.980224609375,-0.192626953125
1748590001.9912345,0.171142578125,0.97216796875,-0.1904296875
1748590002.001235,0.15576171875,0.976806640625,-0.200927734375
1748590002.0112386,0.166748046875,0.9765625,-0.1865234375
1748590002.0212452,0.168701171875,0.97314453125,-0.18505859375
1748590002.0312357,0.166259765625,0.97119140625,-0.185791015625
1748590002.0412347,0.1630859375,0.96875,-0.18603515625
1748590002.0512352,0.15869140625,0.966064453125,-0.198974609375
1748590002.0612342,0.16064453125,0.967041015625,-0.199462890625
1748590002.0712357,0.15087890625,0.97265625,-0.195556640625
1748590002.0812354,0.15625,0.9716796875,-0.19921875
1748590002.0912344,0.154541015625,0.970947265625,-0.1953125
1748590002.1012352,0.15380859375,0.97216796875,-0.197509765625
1748590002.111238,0.16259765625,0.96240234375,-0.19140625
1748590002.1212356,0.17138671875,0.972412109375,-0.1923828125
1748590002.1312358,0.162109375,0.9775390625,-0.187255859375
1748590002.141235,0.166015625,0.973876953125,-0.19384765625
1748590002.1512349,0.156005859375,0.96923828125,-0.195556640625
1748590002.1612372,0.150390625,0.95703125,-0.1904296875
1748590002.1712372,0.151123046875,0.953857421875,-0.212158203125
1748590002.1812356,0.1484375,0.96923828125,-0.191650390625
1748590002.1912353,0.14501953125,0.97021484375,-0.198974609375
1748590002.2012353,0.149658203125,0.968505859375,-0.20166015625
1748590002.211208,0.15283203125,0.99267578125,-0.20166015625
1748590002.2212374,0.145751953125,0.975341796875,-0.201416015625
1748590002.2312336,0.164306640625,0.97412109375,-0.2021484375
1748590002.2412345,0.16943359375,0.970458984375,-0.195556640625
1748590002.2512352,0.17138671875,0.964599609375,-0.19775390625
1748590002.2612345,0.171875,0.97216796875,-0.19384765625
1748590002.271235,0.165283203125,0.95361328125,-0.19189453125
1748590002.2812347,0.156982421875,0.970947265625,-0.1904296875
1748590002.2912388,0.152587890625,0.974365234375,-0.197265625
1748590002.3012362,0.154296875,0.9755859375,-0.188720703125
1748590002.3112338,0.151123046875,0.971923828125,-0.1875
1748590002.3212364,0.15380859375,0.97802734375,-0.2021484375
1748590002.331235,0.162109375,0.982666015625,-0.199951171875
1748590002.3412323,0.163330078125,0.975341796875,-0.200927734375
1748590002.3512342,0.167724609375,0.954345703125,-0.21484375
1748590002.3612328,0.170654296875,0.967041015625,-0.2060546875
1748590002.3712342,0.158935546875,0.966552734375,-0.204345703125
1748590002.381233,0.15869140625,0.966796875,-0.21240234375
1748590002.3912325,0.171142578125,0.975830078125,-0.19921875
1748590002.4022655,0.158447265625,0.95361328125,-0.205322265625
1748590002.4112844,0.15673828125,0.97412109375,-0.197509765625
1748590002.421238,0.159423828125,0.971435546875,-0.195068359375
1748590002.4312358,0.163330078125,0.96630859375,-0.181884765625
1748590002.4412355,0.159912109375,0.96826171875,-0.1728515625
1748590002.451234,0.15283203125,0.971923828125,-0.1767578125
1748590002.4612339,0.154296875,0.9755859375,-0.176513671875
1748590002.4712343,0.1513671875,0.972900390625,-0.185546875
1748590002.4812346,0.15087890625,0.974853515625,-0.179443359375
1748590002.491234,0.15283203125,0.97265625,-0.18359375
1748590002.5012343,0.157470703125,0.974609375,-0.196533203125
1748590002.5112343,0.154052734375,0.974853515625,-0.201416015625
1748590002.5212343,0.155029296875,0.969970703125,-0.19384765625
1748590002.5312352,0.158447265625,0.97314453125,-0.2041015625
1748590002.5412347,0.161376953125,0.966796875,-0.206787109375
1748590002.5512354,0.157958984375,0.973388671875,-0.204345703125
1748590002.5612347,0.1533203125,0.973388671875,-0.203369140625
1748590002.5712347,0.154541015625,0.974609375,-0.205078125
1748590002.5812361,0.152099609375,0.975341796875,-0.204833984375
1748590002.591235,0.152099609375,0.973388671875,-0.207763671875
1748590002.6012352,0.146240234375,0.97119140625,-0.20166015625
1748590002.6112359,0.14892578125,0.97119140625,-0.197265625
1748590002.6212366,0.14208984375,0.982421875,-0.203857421875
1748590002.631235,0.170166015625,0.9765625,-0.1943359375
1748590002.6412346,0.158935546875,0.984130859375,-0.193603515625
1748590002.6512346,0.163330078125,0.9716796875,-0.1953125
1748590002.6612346,0.157958984375,0.972900390625,-0.19189453125
1748590002.6712356,0.1630859375,0.9755859375,-0.19189453125
1748590002.6812346,0.1708984375,0.97705078125,-0.1904296875
1748590002.6912348,0.150634765625,0.968994140625,-0.19677734375
1748590002.7012353,0.1533203125,0.973876953125,-0.189208984375
1748590002.711235,0.15234375,0.968994140625,-0.1982421875
1748590002.7212355,0.154296875,0.968017578125,-0.1865234375
1748590002.7312348,0.16064453125,0.973388671875,-0.1943359375
1748590002.7412348,0.158447265625,0.961669921875,-0.198486328125
1748590002.7512348,0.165283203125,0.954345703125,-0.193359375
1748590002.7612348,0.165283203125,0.96435546875,-0.198974609375
1748590002.7712367,0.1640625,0.9658203125,-0.198486328125
1748590002.7812345,0.163818359375,0.96875,-0.20068359375
1748590002.7912352,0.157470703125,0.97314453125,-0.19921875
1748590002.8012352,0.163330078125,0.97509765625,-0.2177734375
1748590002.8112354,0.160400390625,0.9775390625,-0.189208984375
1748590002.8212342,0.15478515625,0.984130859375,-0.19140625
1748590002.8312347,0.155517578125,0.981689453125,-0.19873046875
1748590002.841235,0.15185546875,0.9814453125,-0.2001953125
1748590002.8512344,0.1533203125,0.973876953125,-0.20849609375
1748590002.8612356,0.171630859375,0.970947265625,-0.197998046875
1748590002.8712342,0.145263671875,0.97119140625,-0.215087890625
1748590002.8812351,0.1494140625,0.970703125,-0.21630859375
1748590002.8912349,0.142578125,0.967041015625,-0.193603515625
1748590002.901235,0.142822265625,0.97607421875,-0.197998046875
1748590002.9112341,0.156005859375,0.974609375,-0.19287109375
1748590002.9212356,0.14599609375,0.97265625,-0.188232421875
1748590002.931235,0.147705078125,0.95849609375,-0.18310546875
1748590002.9412348,0.148193359375,0.963623046875,-0.17724609375
1748590002.951235,0.142578125,0.95654296875,-0.189208984375
1748590002.961237,0.14501953125,0.965576171875,-0.189453125
1748590002.9712346,0.144775390625,0.966552734375,-0.181396484375
1748590002.9812346,0.1416015625,0.969970703125,-0.1796875
1748590002.9912343,0.14794921875,0.97412109375,-0.184814453125
1748590003.0012357,0.144775390625,0.97705078125,-0.186279296875
1748590003.0112355,0.149169921875,0.978515625,-0.19384765625
1748590003.0212348,0.150634765625,0.973876953125,-0.213623046875
1748590003.031235,0.15283203125,0.975341796875,-0.202880859375
1748590003.0412343,0.150634765625,0.96240234375,-0.216796875
1748590003.051235,0.147216796875,0.966064453125,-0.190185546875
1748590003.0612357,0.144287109375,0.963134765625,-0.195556640625
1748590003.0712347,0.1484375,0.969970703125,-0.191650390625
1748590003.0812345,0.153564453125,0.965087890625,-0.1884765625
1748590003.0912344,0.140869140625,0.953369140625,-0.176513671875
1748590003.1012344,0.15185546875,0.9765625,-0.18359375
1748590003.111235,0.139892578125,0.98046875,-0.181396484375
1748590003.1212347,0.147216796875,0.97119140625,-0.183837890625
1748590003.131235,0.140625,0.97412109375,-0.181640625
1748590003.1412342,0.143798828125,0.97119140625,-0.18359375
1748590003.1512344,0.154296875,0.97900390625,-0.193115234375
1748590003.1612344,0.135009765625,0.978515625,-0.191162109375
1748590003.1712346,0.14111328125,0.976318359375,-0.190673828125
1748590003.1812346,0.14697265625,0.977783203125,-0.20068359375
1748590003.191234,0.15283203125,0.964111328125,-0.19580078125
1748590003.2012346,0.150634765625,0.96826171875,-0.197509765625
1748590003.2112348,0.15283203125,0.981201171875,-0.201171875
1748590003.2212348,0.162353515625,0.97119140625,-0.19287109375
1748590003.2312336,0.156982421875,0.968994140625,-0.1982421875
1748590003.2412345,0.148681640625,0.968994140625,-0.193115234375
1748590003.251235,0.14794921875,0.979736328125,-0.1982421875
1748590003.261235,0.14453125,0.977294921875,-0.1923828125
1748590003.2712355,0.14697265625,0.979248046875,-0.177490234375
1748590003.2812352,0.139892578125,0.98046875,-0.175048828125
1748590003.2912347,0.147216796875,0.97998046875,-0.189453125
1748590003.3012345,0.147705078125,0.972900390625,-0.18798828125
1748590003.3112345,0.146728515625,0.97216796875,-0.195068359375
1748590003.3212416,0.1474609375,0.98388671875,-0.190185546875
1748590003.331237,0.142578125,0.979248046875,-0.193603515625
1748590003.3412352,0.140869140625,0.97705078125,-0.1787109375
1748590003.3512344,0.13134765625,0.975830078125,-0.1943359375
1748590003.3612356,0.1328125,0.9765625,-0.189697265625
1748590003.3712406,0.142333984375,0.983642578125,-0.18359375
1748590003.3812435,0.14453125,0.97998046875,-0.17822265625
1748590003.3912363,0.151123046875,0.982177734375,-0.184814453125
1748590003.4012358,0.14990234375,0.9697265625,-0.18212890625
1748590003.4112487,0.15380859375,0.97607421875,-0.182861328125
1748590003.4212387,0.1484375,0.972900390625,-0.193359375
1748590003.4312353,0.146484375,0.97509765625,-0.194091796875
1748590003.4412355,0.14794921875,0.978271484375,-0.194580078125
1748590003.4512355,0.14404296875,0.95703125,-0.194091796875
1748590003.4612305,0.1513671875,0.97607421875,-0.194091796875
1748590003.4712386,0.151611328125,0.966552734375,-0.198974609375
1748590003.4812381,0.15087890625,0.973876953125,-0.186279296875
1748590003.491236,0.144287109375,0.981689453125,-0.18701171875
1748590003.5012338,0.147705078125,0.97998046875,-0.183349609375
1748590003.5112352,0.141845703125,0.98193359375,-0.1826171875
1748590003.5212367,0.14453125,0.98193359375,-0.179443359375
1748590003.531234,0.151123046875,0.980712890625,-0.179443359375
1748590003.541237,0.156005859375,0.9765625,-0.17431640625
1748590003.5512352,0.14990234375,0.9775390625,-0.1787109375
1748590003.5612347,0.152099609375,0.97998046875,-0.201171875
1748590003.5712347,0.1513671875,0.972412109375,-0.187744140625
1748590003.581237,0.152099609375,0.974853515625,-0.185302734375
1748590003.591235,0.141845703125,0.971923828125,-0.1865234375
1748590003.6012352,0.14404296875,0.969482421875,-0.1826171875
1748590003.611234,0.14453125,0.972900390625,-0.192138671875
1748590003.6212347,0.1455078125,0.97802734375,-0.19140625
1748590003.6312344,0.13916015625,0.973388671875,-0.178466796875
1748590003.6412354,0.138671875,0.974365234375,-0.189453125
1748590003.6512365,0.142822265625,0.97216796875,-0.18896484375
1748590003.6612353,0.1435546875,0.97216796875,-0.193359375
1748590003.6712353,0.155517578125,0.999267578125,-0.19384765625
1748590003.6812344,0.1533203125,0.9814453125,-0.192626953125
1748590003.691236,0.15185546875,0.97216796875,-0.196044921875
1748590003.7012365,0.154296875,0.973876953125,-0.185546875
1748590003.7112384,0.149169921875,0.968505859375,-0.181396484375
1748590003.721236,0.1494140625,0.96923828125,-0.171630859375
1748590003.731236,0.140869140625,0.972900390625,-0.166259765625
1748590003.7412353,0.14306640625,0.97412109375,-0.169189453125
1748590003.7512357,0.1416015625,0.974365234375,-0.17041015625
1748590003.761236,0.139892578125,0.983642578125,-0.182861328125
1748590003.7712348,0.139404296875,0.98486328125,-0.176513671875
1748590003.7812362,0.144287109375,0.9775390625,-0.193359375
1748590003.7912364,0.142578125,0.97314453125,-0.18701171875
1748590003.8012357,0.125732421875,0.964111328125,-0.19189453125
1748590003.8112395,0.14306640625,0.968505859375,-0.17919921875
1748590003.821236,0.13525390625,0.962158203125,-0.1884765625
1748590003.8312347,0.1376953125,0.968505859375,-0.1875
1748590003.8412366,0.132568359375,0.973876953125,-0.19873046875
1748590003.851236,0.13720703125,0.976806640625,-0.18798828125
1748590003.8612356,0.1494140625,0.98291015625,-0.1962890625
1748590003.8712358,0.14404296875,0.97705078125,-0.19384765625
1748590003.8812377,0.150390625,0.9765625,-0.193115234375
1748590003.8912356,0.15478515625,0.980712890625,-0.18701171875
1748590003.9012377,0.152099609375,0.98486328125,-0.19140625
1748590003.9112368,0.15185546875,0.979736328125,-0.185546875
1748590003.921236,0.15869140625,0.976318359375,-0.180419921875
1748590003.9312363,0.150146484375,0.978271484375,-0.176513671875
1748590003.9412353,0.141845703125,0.975341796875,-0.175048828125
1748590003.951235,0.135986328125,0.9755859375,-0.186279296875
1748590003.9612346,0.131103515625,0.971435546875,-0.187744140625
1748590003.9712348,0.128662109375,0.97265625,-0.201171875
1748590003.9812346,0.139892578125,0.977783203125,-0.1943359375
1748590003.9912379,0.135498046875,0.975830078125,-0.195556640625
1748590004.0012367,0.141845703125,0.96875,-0.199951171875
1748590004.011238,0.15576171875,0.974853515625,-0.201904296875
1748590004.0212371,0.150390625,0.97412109375,-0.184326171875
1748590004.031235,0.151611328125,0.968017578125,-0.183837890625
1748590004.0412347,0.14599609375,0.971435546875,-0.177978515625
1748590004.0512362,0.1455078125,0.980712890625,-0.177734375
1748590004.0612361,0.14111328125,0.98046875,-0.176025390625
1748590004.0712354,0.137939453125,0.977783203125,-0.16650390625
1748590004.0812361,0.155517578125,0.980712890625,-0.172607421875
1748590004.0912352,0.153076171875,0.982421875,-0.1748046875
1748590004.101236,0.1455078125,0.982666015625,-0.181884765625
1748590004.1112373,0.135498046875,0.97265625,-0.17578125
1748590004.1212366,0.135498046875,0.97021484375,-0.183349609375
1748590004.1312437,0.13623046875,0.973876953125,-0.19140625
1748590004.1412382,0.1318359375,0.978271484375,-0.195068359375
1748590004.1512358,0.13330078125,0.958251953125,-0.189208984375
1748590004.1612377,0.137451171875,0.97216796875,-0.19970703125
1748590004.1712365,0.1474609375,0.966552734375,-0.202880859375
1748590004.181235,0.1484375,0.967041015625,-0.195556640625
1748590004.1912372,0.1552734375,0.96826171875,-0.198486328125
1748590004.2012358,0.16943359375,0.97998046875,-0.1748046875
1748590004.2112358,0.159423828125,0.978271484375,-0.185302734375
1748590004.2212353,0.15087890625,0.983154296875,-0.1748046875
1748590004.2312343,0.1494140625,0.973388671875,-0.168212890625
1748590004.2412348,0.1435546875,0.97607421875,-0.175537109375
1748590004.251235,0.14697265625,0.97607421875,-0.1806640625
1748590004.2612355,0.128173828125,0.97900390625,-0.178955078125
1748590004.271236,0.14208984375,0.9716796875,-0.19775390625
1748590004.2812345,0.139892578125,0.977783203125,-0.192138671875
1748590004.2912443,0.138427734375,0.97412109375,-0.197021484375
1748590004.3012352,0.14501953125,0.98193359375,-0.195556640625
1748590004.3112361,0.127197265625,0.97314453125,-0.20166015625
1748590004.3212364,0.1484375,0.970458984375,-0.21728515625
1748590004.331235,0.1494140625,0.97265625,-0.19189453125
1748590004.3412368,0.14404296875,0.97705078125,-0.18896484375
1748590004.3512352,0.1513671875,0.97119140625,-0.186279296875
1748590004.3612351,0.12841796875,0.973388671875,-0.181640625
1748590004.3712335,0.1279296875,0.981689453125,-0.18603515625
1748590004.3812332,0.136962890625,0.97265625,-0.174560546875
1748590004.391233,0.14013671875,0.978759765625,-0.182373046875
1748590004.4012349,0.142333984375,0.981689453125,-0.190185546875
1748590004.411272,0.142333984375,0.97412109375,-0.185791015625
1748590004.4212384,0.148681640625,0.990234375,-0.189453125
1748590004.4312341,0.152587890625,0.981201171875,-0.185791015625
1748590004.4412358,0.152099609375,0.973388671875,-0.196044921875
1748590004.4512377,0.15576171875,0.974853515625,-0.19921875
1748590004.4612355,0.1552734375,0.971923828125,-0.197021484375
1748590004.4712386,0.155517578125,0.967041015625,-0.19482421875
1748590004.4812367,0.170166015625,0.96826171875,-0.194580078125
1748590004.4912355,0.170166015625,0.965087890625,-0.19140625
1748590004.5012362,0.169189453125,0.953369140625,-0.202880859375
1748590004.511234,0.1591796875,0.974853515625,-0.19775390625
1748590004.5212362,0.164794921875,0.975830078125,-0.196533203125
1748590004.5312347,0.169677734375,0.97607421875,-0.199462890625
1748590004.5412343,0.15771484375,0.98046875,-0.193115234375
1748590004.551236,0.159912109375,0.970703125,-0.197265625
1748590004.5612357,0.15869140625,0.97119140625,-0.214599609375
1748590004.5712354,0.159912109375,0.9716796875,-0.21484375
1748590004.5812352,0.151611328125,0.964599609375,-0.207763671875
1748590004.5912347,0.146728515625,0.972412109375,-0.205078125
1748590004.601235,0.151611328125,0.969970703125,-0.1962890625
1748590004.6112351,0.1572265625,0.97216796875,-0.197265625
1748590004.6212351,0.152587890625,0.971923828125,-0.19384765625
1748590004.6312342,0.1533203125,0.974365234375,-0.1796875
1748590004.6412358,0.15234375,0.979248046875,-0.189208984375
1748590004.6512356,0.154541015625,0.97900390625,-0.189697265625
1748590004.6612349,0.1416015625,0.977783203125,-0.199951171875
1748590004.6712356,0.153564453125,0.984130859375,-0.1904296875
1748590004.6812377,0.15087890625,0.969970703125,-0.195556640625
1748590004.691239,0.15185546875,0.973876953125,-0.20361328125
1748590004.7012348,0.146728515625,0.96435546875,-0.198486328125
1748590004.7112365,0.147216796875,0.972900390625,-0.194091796875
1748590004.721237,0.146484375,0.96630859375,-0.19482421875
1748590004.7312365,0.148193359375,0.978271484375,-0.199462890625
1748590004.7412343,0.151123046875,0.969482421875,-0.188232421875
1748590004.7512357,0.144775390625,0.968505859375,-0.209228515625
1748590004.7612376,0.1484375,0.970703125,-0.192138671875
1748590004.7712367,0.152587890625,0.9736328125,-0.19873046875
1748590004.7812355,0.159912109375,0.974609375,-0.19873046875
1748590004.7912347,0.16015625,0.973388671875,-0.18896484375
1748590004.8012362,0.156982421875,0.98095703125,-0.189208984375
1748590004.8112373,0.1591796875,0.96337890625,-0.183837890625
1748590004.8212366,0.165283203125,0.968994140625,-0.189697265625
1748590004.831236,0.168701171875,0.977294921875,-0.18994140625
1748590004.8412354,0.153564453125,0.984375,-0.195556640625
1748590004.8512356,0.142333984375,0.984375,-0.19287109375
1748590004.8612359,0.15966796875,0.96728515625,-0.201904296875
1748590004.8712347,0.164306640625,0.9677734375,-0.203125
1748590004.8812356,0.15869140625,0.96923828125,-0.19482421875
1748590004.8912356,0.165771484375,0.96923828125,-0.202392578125
1748590004.9012346,0.159423828125,0.9736328125,-0.201904296875
1748590004.9112377,0.147705078125,0.970458984375,-0.189697265625
1748590004.9212356,0.15966796875,0.9833984375,-0.208251953125
1748590004.9312353,0.16259765625,0.969970703125,-0.201171875
1748590004.9412348,0.153564453125,0.967041015625,-0.208984375
1748590004.9512339,0.1416015625,0.970458984375,-0.195068359375
1748590004.9612389,0.161376953125,0.9833984375,-0.203369140625
1748590004.9712355,0.158935546875,0.981689453125,-0.192138671875
1748590004.9812346,0.158935546875,0.95556640625,-0.19384765625
1748590004.9912343,0.158935546875,0.970947265625,-0.187744140625
1748590005.0012383,0.162353515625,0.96728515625,-0.18896484375
1748590005.0112376,0.154296875,0.974609375,-0.18798828125
1748590005.0212364,0.162109375,0.977783203125,-0.181640625
1748590005.031237,0.1416015625,0.9716796875,-0.195556640625
1748590005.0412357,0.15478515625,0.970947265625,-0.189208984375
1748590005.051235,0.16162109375,0.97412109375,-0.193603515625
1748590005.0612354,0.162353515625,0.970458984375,-0.189697265625
1748590005.0712364,0.156005859375,0.966796875,-0.2041015625
1748590005.0812345,0.150146484375,0.98388671875,-0.195556640625
1748590005.0912347,0.169921875,0.97265625,-0.196044921875
1748590005.1012354,0.163818359375,0.97119140625,-0.19140625
1748590005.1112366,0.166259765625,0.970947265625,-0.194580078125
1748590005.1212358,0.16455078125,0.966796875,-0.195556640625
1748590005.1312351,0.141357421875,0.9755859375,-0.18994140625
1748590005.141235,0.16943359375,0.973876953125,-0.197265625
1748590005.1512346,0.15673828125,0.97509765625,-0.190673828125
1748590005.1612346,0.155517578125,0.9765625,-0.19775390625
1748590005.1712353,0.157958984375,0.97119140625,-0.20556640625
1748590005.181235,0.15185546875,0.974853515625,-0.206787109375
1748590005.1912344,0.14990234375,0.972900390625,-0.1962890625
1748590005.201235,0.148193359375,0.971923828125,-0.18701171875
1748590005.2112494,0.156005859375,0.968505859375,-0.190185546875
1748590005.2212355,0.157470703125,0.973876953125,-0.185791015625
1748590005.231236,0.16015625,0.970947265625,-0.18994140625
1748590005.241235,0.16015625,0.973876953125,-0.1982421875
1748590005.2512357,0.158203125,0.975341796875,-0.192626953125
1748590005.2612348,0.162109375,0.98291015625,-0.1943359375
1748590005.2712386,0.1552734375,0.97119140625,-0.19384765625
1748590005.281236,0.15869140625,0.97509765625,-0.19580078125
1748590005.2912354,0.152587890625,0.97412109375,-0.194580078125
1748590005.3012397,0.15283203125,0.96630859375,-0.193115234375
1748590005.3112388,0.152099609375,0.971923828125,-0.193359375
1748590005.321242,0.153076171875,0.971435546875,-0.20166015625
1748590005.3312368,0.156494140625,0.98291015625,-0.201416015625
1748590005.341235,0.15869140625,0.974609375,-0.204345703125
1748590005.351235,0.15673828125,0.97265625,-0.19580078125
1748590005.3612356,0.1435546875,0.974853515625,-0.19580078125
1748590005.3712332,0.1435546875,0.970458984375,-0.202880859375
1748590005.381233,0.1591796875,0.984375,-0.197998046875
1748590005.3912315,0.160888671875,0.983642578125,-0.19921875
1748590005.4012344,0.159912109375,0.96630859375,-0.201171875
1748590005.4112496,0.147705078125,0.9716796875,-0.1943359375
1748590005.4212422,0.16796875,0.971923828125,-0.193359375
1748590005.4312394,0.14794921875,0.98291015625,-0.189697265625
1748590005.4412405,0.143798828125,0.972900390625,-0.172607421875
1748590005.4512367,0.158203125,0.970458984375,-0.192138671875
1748590005.4612367,0.149658203125,0.9755859375,-0.184814453125
1748590005.4712353,0.14599609375,0.982421875,-0.1884765625
1748590005.4812365,0.15380859375,0.974365234375,-0.183349609375
1748590005.4912403,0.149169921875,0.977783203125,-0.177490234375
1748590005.5012379,0.15234375,0.97265625,-0.19189453125
1748590005.5112362,0.150634765625,0.965576171875,-0.188720703125
1748590005.521236,0.154296875,0.970947265625,-0.19140625
1748590005.5312355,0.14599609375,0.974853515625,-0.1875
1748590005.5412343,0.150390625,0.974609375,-0.194091796875
1748590005.5512357,0.1328125,0.96044921875,-0.195068359375
1748590005.5612347,0.146728515625,0.97119140625,-0.19189453125
1748590005.5712347,0.14892578125,0.974609375,-0.196533203125
1748590005.5812345,0.160888671875,0.9677734375,-0.197265625
1748590005.5912354,0.153564453125,0.96826171875,-0.188720703125
1748590005.601236,0.1708984375,0.96875,-0.19140625
1748590005.611236,0.152099609375,0.97265625,-0.187255859375
1748590005.621235,0.143798828125,0.983642578125,-0.184326171875
1748590005.6312351,0.15283203125,0.976318359375,-0.189208984375
1748590005.641235,0.145751953125,0.975830078125,-0.191650390625
1748590005.6512358,0.14013671875,0.98046875,-0.17724609375
1748590005.6612353,0.128662109375,0.9765625,-0.1806640625
1748590005.6712353,0.139892578125,0.97998046875,-0.184326171875
1748590005.681235,0.1416015625,0.970703125,-0.181396484375
1748590005.6912355,0.142822265625,0.973388671875,-0.1875
1748590005.7012372,0.144287109375,0.977294921875,-0.191650390625
1748590005.7112336,0.148681640625,0.979736328125,-0.197509765625
1748590005.721233,0.150390625,0.974853515625,-0.1875
1748590005.731235,0.141357421875,0.977294921875,-0.20068359375
1748590005.7412338,0.15869140625,0.972412109375,-0.19677734375
1748590005.7512329,0.1630859375,0.9716796875,-0.2021484375
1748590005.7612326,0.16064453125,0.96630859375,-0.203369140625
1748590005.7712348,0.156982421875,0.971923828125,-0.20556640625
1748590005.7812324,0.15625,0.97021484375,-0.201904296875
1748590005.7912326,0.14892578125,0.964111328125,-0.190673828125
1748590005.8012328,0.156494140625,0.954833984375,-0.19482421875
1748590005.8112333,0.150634765625,0.97607421875,-0.195556640625
1748590005.8212323,0.153076171875,0.9765625,-0.1982421875
1748590005.8312323,0.152099609375,0.979248046875,-0.19677734375
1748590005.8412044,0.1669921875,0.9765625,-0.19677734375
1748590005.8512332,0.162109375,0.9736328125,-0.19580078125
1748590005.861233,0.163818359375,0.968505859375,-0.18994140625
1748590005.8712325,0.15966796875,0.96484375,-0.201904296875
1748590005.881232,0.152099609375,0.964599609375,-0.19775390625
1748590005.891233,0.141357421875,0.964599609375,-0.197509765625
1748590005.901232,0.148193359375,0.97216796875,-0.195556640625
1748590005.9112382,0.147705078125,0.976318359375,-0.19384765625
1748590005.9212334,0.146484375,0.981689453125,-0.1640625
1748590005.9312327,0.152587890625,0.978515625,-0.17578125
1748590005.941236,0.169921875,0.989990234375,-0.17431640625
1748590005.9512331,0.166748046875,0.975341796875,-0.16943359375
1748590005.9612322,0.165771484375,0.97998046875,-0.157958984375
1748590005.9712324,0.164306640625,0.978759765625,-0.177978515625
1748590005.9812398,0.1591796875,0.982421875,-0.19287109375
1748590005.991232,0.156005859375,0.984130859375,-0.202392578125
1748590006.0012326,0.142578125,0.9873046875,-0.2060546875
1748590006.0112345,0.139404296875,0.9833984375,-0.208984375
1748590006.021233,0.14013671875,0.973388671875,-0.218505859375
1748590006.0312326,0.134765625,0.966796875,-0.21240234375
1748590006.0412328,0.143310546875,0.9638671875,-0.208251953125
1748590006.0512342,0.1435546875,0.970703125,-0.19189453125
1748590006.061233,0.149169921875,0.973876953125,-0.193115234375
1748590006.071233,0.1552734375,0.976806640625,-0.186767578125
1748590006.0812323,0.155029296875,0.977783203125,-0.184326171875
1748590006.091233,0.156494140625,0.97314453125,-0.18701171875
1748590006.1012323,0.1533203125,0.97705078125,-0.183349609375
1748590006.111233,0.1513671875,0.98046875,-0.181884765625
1748590006.1212368,0.171142578125,0.974853515625,-0.180419921875
1748590006.131233,0.16162109375,0.970458984375,-0.1865234375
1748590006.1412327,0.157958984375,0.970703125,-0.17431640625
1748590006.1512325,0.161376953125,0.95703125,-0.183349609375
1748590006.161235,0.16064453125,0.968017578125,-0.190185546875
1748590006.1712327,0.1611328125,0.96435546875,-0.1845703125
1748590006.1812325,0.147705078125,0.9716796875,-0.187744140625
1748590006.1912358,0.14208984375,0.971435546875,-0.199462890625
1748590006.2012324,0.169189453125,0.9755859375,-0.194580078125
1748590006.2112358,0.15869140625,0.985595703125,-0.196044921875
1748590006.2212322,0.16259765625,0.9755859375,-0.191650390625
1748590006.2312331,0.1630859375,0.969482421875,-0.1865234375
1748590006.2412326,0.159423828125,0.9609375,-0.193603515625
1748590006.251232,0.14892578125,0.966796875,-0.19921875
1748590006.261236,0.148193359375,0.967041015625,-0.180419921875
1748590006.2712324,0.141845703125,0.96533203125,-0.18310546875
1748590006.281233,0.138671875,0.97119140625,-0.18212890625
1748590006.2912338,0.142578125,0.978759765625,-0.176025390625
1748590006.3012326,0.141357421875,0.98828125,-0.179931640625
1748590006.3112323,0.151123046875,0.99462890625,-0.1884765625
1748590006.3212361,0.1474609375,0.987060546875,-0.176513671875
1748590006.3312385,0.157958984375,0.982177734375,-0.201416015625
1748590006.3412385,0.14599609375,0.9794921875,-0.191162109375
1748590006.351235,0.142578125,0.974853515625,-0.197021484375
1748590006.3612363,0.14501953125,0.98388671875,-0.188232421875
1748590006.3712351,0.142822265625,0.966796875,-0.197265625
1748590006.3812742,0.142822265625,0.966796875,-0.19775390625
1748590006.3912363,0.14697265625,0.974853515625,-0.1826171875
1748590006.4012356,0.145263671875,0.972412109375,-0.195556640625
1748590006.4112556,0.147705078125,0.9775390625,-0.20751953125
1748590006.421237,0.1552734375,0.982421875,-0.1962890625
1748590006.4312363,0.156982421875,0.978759765625,-0.192138671875
1748590006.441238,0.156005859375,0.98291015625,-0.208251953125
1748590006.451235,0.154052734375,0.97607421875,-0.218994140625
1748590006.4612374,0.15625,0.972900390625,-0.208740234375
1748590006.4712346,0.15185546875,0.9638671875,-0.218017578125
1748590006.4812355,0.15673828125,0.95947265625,-0.20458984375
1748590006.491235,0.169921875,0.9599609375,-0.1923828125
1748590006.501241,0.15283203125,0.95849609375,-0.19775390625
1748590006.511236,0.152099609375,0.96875,-0.1826171875
1748590006.521237,0.153564453125,0.98291015625,-0.1796875
1748590006.5312352,0.170166015625,0.978759765625,-0.17822265625
1748590006.5412362,0.15234375,0.982421875,-0.177490234375
1748590006.5512352,0.1455078125,0.978515625,-0.1845703125
1748590006.561235,0.150390625,0.975341796875,-0.18115234375
1748590006.5712347,0.14697265625,0.96923828125,-0.18896484375
1748590006.5812345,0.14599609375,0.96533203125,-0.192626953125
1748590006.5912356,0.14208984375,0.970703125,-0.195556640625
1748590006.601235,0.1318359375,0.97021484375,-0.18994140625
1748590006.6112351,0.138671875,0.976318359375,-0.19140625
1748590006.6212344,0.151611328125,0.9775390625,-0.192626953125
1748590006.6312344,0.16357421875,0.978271484375,-0.18603515625
1748590006.6412363,0.163330078125,0.97412109375,-0.190673828125
1748590006.6512346,0.187255859375,0.974609375,-0.18212890625
1748590006.6612349,0.167724609375,0.9775390625,-0.20166015625
1748590006.6712344,0.16650390625,0.98095703125,-0.1943359375
1748590006.6812344,0.173095703125,0.976806640625,-0.197265625
1748590006.691235,0.162841796875,0.97412109375,-0.20361328125
1748590006.7012346,0.162841796875,0.97216796875,-0.20068359375
1748590006.7112339,0.166015625,0.970947265625,-0.208984375
1748590006.7212348,0.162353515625,0.96533203125,-0.196044921875
1748590006.7312357,0.16845703125,0.97216796875,-0.1982421875
1748590006.7412338,0.16357421875,0.979736328125,-0.18994140625
1748590006.751235,0.16015625,0.97314453125,-0.20068359375
1748590006.761235,0.1630859375,0.972900390625,-0.19384765625
1748590006.7712426,0.152099609375,0.9775390625,-0.2001953125
1748590006.7812352,0.171630859375,0.968994140625,-0.19189453125
1748590006.791235,0.15185546875,0.973876953125,-0.198486328125
1748590006.8012342,0.156005859375,0.97705078125,-0.178955078125
1748590006.8112361,0.151611328125,0.9697265625,-0.19384765625
1748590006.8212352,0.155517578125,0.977294921875,-0.197509765625
1748590006.8312356,0.154052734375,0.97607421875,-0.196533203125
1748590006.841234,0.145263671875,0.973388671875,-0.19873046875
1748590006.8512347,0.14892578125,0.971435546875,-0.189208984375
1748590006.8612354,0.148681640625,0.967529296875,-0.176513671875
1748590006.871235,0.145751953125,0.96923828125,-0.179931640625
1748590006.881253,0.141845703125,0.965576171875,-0.178955078125
1748590006.8912354,0.140625,0.96337890625,-0.191162109375
1748590006.9012344,0.165283203125,0.954833984375,-0.1953125
1748590006.911235,0.169677734375,0.974365234375,-0.19482421875
1748590006.9212346,0.173095703125,0.9677734375,-0.196533203125
1748590006.931237,0.173095703125,0.973876953125,-0.19921875
1748590006.9412348,0.167236328125,0.980712890625,-0.201416015625
1748590006.9512355,0.159423828125,0.97021484375,-0.1953125
1748590006.9612334,0.158447265625,0.971435546875,-0.19482421875
1748590006.9712348,0.15380859375,0.96826171875,-0.204833984375
1748590006.9812348,0.154541015625,0.9619140625,-0.20556640625
1748590006.9912345,0.154052734375,0.9638671875,-0.197998046875
1748590007.001234,0.151123046875,0.963134765625,-0.192138671875
1748590007.0112367,0.14990234375,0.98388671875,-0.195068359375
1748590007.0212348,0.150634765625,0.975341796875,-0.19580078125
1748590007.0312347,0.1494140625,0.9833984375,-0.1953125
1748590007.0412354,0.1533203125,0.9814453125,-0.192138671875
1748590007.0512352,0.15234375,0.97607421875,-0.189697265625
1748590007.061236,0.151611328125,0.974853515625,-0.19970703125
1748590007.0712352,0.14501953125,0.970458984375,-0.197509765625
1748590007.0812354,0.14697265625,0.964599609375,-0.19873046875
1748590007.091235,0.14697265625,0.965576171875,-0.193359375
1748590007.1012347,0.1484375,0.962646484375,-0.189453125
1748590007.1112351,0.15478515625,0.96533203125,-0.186767578125
1748590007.1212351,0.154052734375,0.966552734375,-0.193603515625
1748590007.1312344,0.154541015625,0.975341796875,-0.2021484375
1748590007.1412346,0.15185546875,0.97119140625,-0.1904296875
1748590007.1512358,0.15380859375,0.965576171875,-0.187744140625
1748590007.1612344,0.155029296875,0.962890625,-0.188720703125
1748590007.1712341,0.157958984375,0.956298828125,-0.191162109375
1748590007.1812341,0.153076171875,0.96484375,-0.196533203125
1748590007.1912344,0.154541015625,0.9736328125,-0.194580078125
1748590007.2012353,0.15625,0.97021484375,-0.172119140625
1748590007.211234,0.15869140625,0.97265625,-0.188232421875
1748590007.221236,0.150634765625,0.974365234375,-0.184326171875
1748590007.231235,0.142578125,0.96728515625,-0.18994140625
1748590007.241236,0.1484375,0.977783203125,-0.194091796875
1748590007.2512348,0.150634765625,0.970947265625,-0.200439453125
1748590007.2612348,0.15869140625,0.969970703125,-0.200927734375
1748590007.2712348,0.1650390625,0.974609375,-0.2041015625
1748590007.2812345,0.1611328125,0.97705078125,-0.194580078125
1748590007.2912354,0.1669921875,0.970458984375,-0.19775390625
1748590007.3012342,0.17724609375,0.9697265625,-0.198974609375
1748590007.3112357,0.16259765625,0.963134765625,-0.19677734375
1748590007.3212364,0.15869140625,0.9677734375,-0.193359375
1748590007.331254,0.158447265625,0.968505859375,-0.198974609375
1748590007.341235,0.155029296875,0.978271484375,-0.194091796875
1748590007.3512352,0.151123046875,0.973876953125,-0.18212890625
1748590007.3612337,0.142822265625,0.9775390625,-0.188720703125
1748590007.3712358,0.152587890625,0.972412109375,-0.218017578125
1748590007.3812363,0.15673828125,0.974853515625,-0.199951171875
1748590007.3912532,0.158447265625,0.96826171875,-0.1982421875
1748590007.4012365,0.16015625,0.980224609375,-0.19677734375
1748590007.4112325,0.1640625,0.97119140625,-0.195068359375
1748590007.4212368,0.170166015625,0.9765625,-0.197509765625
1748590007.4312356,0.143798828125,0.970947265625,-0.20263671875
1748590007.4412367,0.145263671875,0.97412109375,-0.2158203125
1748590007.4512355,0.15087890625,0.971923828125,-0.192626953125
1748590007.4612353,0.143798828125,0.97021484375,-0.195068359375
1748590007.4712346,0.148193359375,0.976318359375,-0.19482421875
1748590007.4812343,0.153076171875,0.974853515625,-0.1904296875
1748590007.491239,0.145263671875,0.97412109375,-0.187255859375
1748590007.5012367,0.1494140625,0.97314453125,-0.186279296875
1748590007.5112364,0.147216796875,0.981689453125,-0.1767578125
1748590007.521236,0.143310546875,0.9775390625,-0.1875
1748590007.5312355,0.154541015625,0.98193359375,-0.18212890625
1748590007.5412352,0.154296875,0.978271484375,-0.1884765625
1748590007.5512357,0.146728515625,0.978515625,-0.19482421875
1748590007.5612357,0.139404296875,0.97509765625,-0.1943359375
1748590007.5712354,0.145751953125,0.9765625,-0.1962890625
1748590007.5812352,0.1455078125,0.972412109375,-0.201416015625
1748590007.5912352,0.14111328125,0.97216796875,-0.1982421875
1748590007.6012347,0.156982421875,0.974853515625,-0.195556640625
1748590007.6112368,0.155517578125,0.97119140625,-0.197265625
1748590007.6212354,0.14990234375,0.9697265625,-0.201171875
1748590007.6312344,0.15234375,0.972412109375,-0.19140625
1748590007.6412346,0.14599609375,0.9677734375,-0.185546875
1748590007.6512396,0.146728515625,0.973876953125,-0.189453125
1748590007.661235,0.14013671875,0.967041015625,-0.19384765625
1748590007.671236,0.138916015625,0.975341796875,-0.181884765625
1748590007.681235,0.1455078125,0.9775390625,-0.1923828125
1748590007.691235,0.14501953125,0.982177734375,-0.187744140625
1748590007.7012358,0.14501953125,0.981201171875,-0.197021484375
1748590007.7112365,0.149658203125,0.9833984375,-0.198486328125
1748590007.7212353,0.156005859375,0.980224609375,-0.182373046875
1748590007.7312348,0.155517578125,0.971435546875,-0.172607421875
1748590007.7412343,0.15283203125,0.965087890625,-0.185546875
1748590007.7512422,0.15185546875,0.964599609375,-0.20361328125
1748590007.761235,0.168212890625,0.976318359375,-0.195068359375
1748590007.7712352,0.151123046875,0.974853515625,-0.18701171875
1748590007.7812352,0.159912109375,0.973876953125,-0.1962890625
1748590007.7912352,0.15283203125,0.9794921875,-0.19482421875
1748590007.801236,0.163818359375,0.975341796875,-0.199951171875
1748590007.8112378,0.159912109375,0.971435546875,-0.192626953125
1748590007.8212357,0.16064453125,0.975341796875,-0.193603515625
1748590007.8312342,0.151611328125,0.964599609375,-0.193359375
1748590007.841236,0.160400390625,0.974365234375,-0.18798828125
1748590007.8512342,0.1533203125,0.9716796875,-0.18701171875
1748590007.8612354,0.14697265625,0.97607421875,-0.1962890625
1748590007.8712358,0.152587890625,0.978271484375,-0.193603515625
1748590007.8812346,0.1416015625,0.983642578125,-0.1943359375
1748590007.891234,0.141845703125,0.9794921875,-0.19091796875
1748590007.901245,0.1513671875,0.972900390625,-0.173583984375
1748590007.911237,0.154296875,0.96875,-0.1923828125
1748590007.9212356,0.156005859375,0.97265625,-0.185546875
1748590007.9312525,0.1513671875,0.97265625,-0.190673828125
1748590007.9412355,0.1533203125,0.97998046875,-0.19287109375
1748590007.9512355,0.1484375,0.976806640625,-0.190185546875
1748590007.9612348,0.151123046875,0.97314453125,-0.203125
1748590007.971235,0.152587890625,0.97412109375,-0.186767578125
1748590007.9812393,0.147216796875,0.972900390625,-0.191650390625
1748590007.991236,0.154052734375,0.973876953125,-0.18603515625
1748590008.0012393,0.145751953125,0.971923828125,-0.185546875
1748590008.0112371,0.147216796875,0.97412109375,-0.195068359375
1748590008.0212348,0.13818359375,0.97216796875,-0.215087890625
1748590008.0312347,0.151123046875,0.966064453125,-0.200927734375
1748590008.041234,0.14794921875,0.974365234375,-0.197998046875
1748590008.051234,0.149658203125,0.974365234375,-0.18798828125
1748590008.061235,0.154052734375,0.98291015625,-0.185791015625
1748590008.0712373,0.152099609375,0.972900390625,-0.17626953125
1748590008.0812354,0.153076171875,0.978271484375,-0.18701171875
1748590008.0912352,0.146484375,0.974853515625,-0.185302734375
1748590008.1012352,0.15234375,0.97802734375,-0.18115234375
1748590008.1112363,0.146240234375,0.9755859375,-0.182861328125
1748590008.121236,0.14599609375,0.984375,-0.182861328125
1748590008.131245,0.1474609375,0.973388671875,-0.19677734375
1748590008.1412354,0.14404296875,0.978271484375,-0.195556640625
1748590008.1512349,0.141845703125,0.9697265625,-0.195068359375
1748590008.1612387,0.15185546875,0.97705078125,-0.196044921875
1748590008.1712368,0.153564453125,0.964111328125,-0.1953125
1748590008.1812358,0.15625,0.9765625,-0.197021484375
1748590008.1912353,0.166259765625,0.97314453125,-0.19970703125
1748590008.201234,0.15283203125,0.971435546875,-0.201171875
1748590008.2112381,0.149169921875,0.96142578125,-0.19287109375
1748590008.221236,0.146484375,0.97412109375,-0.191650390625
1748590008.2312343,0.14990234375,0.97509765625,-0.189208984375
1748590008.241236,0.143798828125,0.977783203125,-0.19482421875
1748590008.2512345,0.14404296875,0.9736328125,-0.19189453125
1748590008.2612345,0.1552734375,0.9755859375,-0.19677734375
1748590008.271235,0.156005859375,0.97412109375,-0.18798828125
1748590008.2812347,0.16357421875,0.971923828125,-0.181640625
1748590008.2912357,0.165283203125,0.978759765625,-0.184814453125
1748590008.3012357,0.151123046875,0.98388671875,-0.191162109375
1748590008.3112357,0.15087890625,0.97412109375,-0.190185546875
1748590008.3212357,0.152587890625,0.975830078125,-0.189208984375
1748590008.3312356,0.15283203125,0.971435546875,-0.18994140625
1748590008.341239,0.1484375,0.97509765625,-0.187744140625
1748590008.3512356,0.150634765625,0.97998046875,-0.192138671875
1748590008.3612366,0.15380859375,0.975341796875,-0.18603515625
1748590008.3712358,0.157958984375,0.97216796875,-0.19287109375
1748590008.381335,0.15234375,0.9755859375,-0.1884765625
1748590008.3912373,0.153076171875,0.97216796875,-0.185302734375
1748590008.4012332,0.152587890625,0.980224609375,-0.194091796875
1748590008.4112475,0.1513671875,0.978271484375,-0.173583984375
1748590008.421238,0.146240234375,0.972412109375,-0.18994140625
1748590008.4312344,0.152587890625,0.97900390625,-0.193603515625
1748590008.441236,0.150146484375,0.97607421875,-0.20068359375
1748590008.4512348,0.159912109375,0.974365234375,-0.190185546875
1748590008.4612348,0.1513671875,0.968994140625,-0.1884765625
1748590008.4711928,0.153564453125,0.983154296875,-0.186279296875
1748590008.4812367,0.15380859375,0.97265625,-0.18994140625
1748590008.491235,0.149169921875,0.9697265625,-0.180419921875
1748590008.5012357,0.148681640625,0.975341796875,-0.17529296875
1748590008.5112367,0.1494140625,0.97998046875,-0.1787109375
1748590008.5212357,0.146240234375,0.9814453125,-0.18408203125
1748590008.531235,0.14501953125,0.973388671875,-0.187744140625
1748590008.5412366,0.15283203125,0.972900390625,-0.180908203125
1748590008.5512345,0.14794921875,0.953369140625,-0.19970703125
1748590008.561235,0.1533203125,0.9755859375,-0.193359375
1748590008.5712347,0.150634765625,0.976318359375,-0.18505859375
1748590008.5812352,0.150146484375,0.98095703125,-0.195556640625
1748590008.5912347,0.14599609375,0.978271484375,-0.203857421875
1748590008.6012347,0.154052734375,0.97607421875,-0.207275390625
1748590008.6112363,0.1474609375,0.955322265625,-0.19140625
1748590008.6212354,0.146728515625,0.971435546875,-0.178466796875
1748590008.6312342,0.148193359375,0.969970703125,-0.189208984375
1748590008.6412344,0.1484375,0.978271484375,-0.17919921875
1748590008.6512346,0.147705078125,0.97314453125,-0.189453125
1748590008.6612349,0.142822265625,0.969482421875,-0.182373046875
1748590008.671234,0.14306640625,0.981689453125,-0.188232421875
1748590008.6812372,0.143798828125,0.98095703125,-0.1962890625
1748590008.6912344,0.146728515625,0.982421875,-0.19677734375
1748590008.7012343,0.152587890625,0.967041015625,-0.191162109375
1748590008.7112355,0.151611328125,0.97119140625,-0.19873046875
1748590008.7212353,0.154052734375,0.970703125,-0.191650390625
1748590008.731235,0.149658203125,0.97265625,-0.1728515625
1748590008.7412353,0.14501953125,0.97509765625,-0.17578125
1748590008.7512345,0.14599609375,0.978515625,-0.17236328125
1748590008.7612357,0.1484375,0.97998046875,-0.189208984375
1748590008.7712345,0.15185546875,0.970458984375,-0.19482421875
1748590008.7812355,0.148193359375,0.973876953125,-0.173095703125
1748590008.7912352,0.1494140625,0.972412109375,-0.189697265625
1748590008.801235,0.145751953125,0.97119140625,-0.203857421875
1748590008.8112361,0.14501953125,0.9775390625,-0.20068359375
1748590008.8212354,0.14697265625,0.97900390625,-0.201904296875
1748590008.831235,0.147216796875,0.980224609375,-0.207763671875
1748590008.8412347,0.148193359375,0.97900390625,-0.18994140625
1748590008.8512342,0.153076171875,0.975830078125,-0.194580078125
1748590008.8612347,0.15087890625,0.96875,-0.193359375
1748590008.8712342,0.154296875,0.968994140625,-0.19140625
1748590008.8812342,0.15185546875,0.973876953125,-0.1875
1748590008.891236,0.1494140625,0.97119140625,-0.201904296875
1748590008.9012341,0.146728515625,0.97705078125,-0.1796875
1748590008.9112365,0.1484375,0.97705078125,-0.181884765625
1748590008.9212346,0.1416015625,0.9716796875,-0.190673828125
1748590008.931235,0.143310546875,0.9755859375,-0.194580078125
1748590008.941235,0.14404296875,0.97802734375,-0.1962890625
1748590008.9512348,0.1533203125,0.972900390625,-0.19287109375
1748590008.9612346,0.16015625,0.974365234375,-0.190673828125
1748590008.971235,0.160400390625,0.979736328125,-0.1953125
1748590008.9812346,0.152099609375,0.979248046875,-0.19775390625
1748590008.9912336,0.150634765625,0.978271484375,-0.19921875
1748590009.0012348,0.145751953125,0.96826171875,-0.189697265625
1748590009.0112357,0.14208984375,0.970458984375,-0.192626953125
1748590009.0212362,0.141845703125,0.97412109375,-0.190185546875
1748590009.031235,0.146240234375,0.97607421875,-0.173583984375
1748590009.041237,0.15478515625,0.974365234375,-0.1953125
1748590009.051235,0.1513671875,0.972412109375,-0.185546875
1748590009.061235,0.155517578125,0.983642578125,-0.18798828125
1748590009.0712326,0.1611328125,0.980712890625,-0.188232421875
1748590009.081235,0.15380859375,0.980712890625,-0.17529296875
1748590009.0912344,0.160888671875,0.975830078125,-0.183349609375
1748590009.101235,0.153076171875,0.975341796875,-0.197021484375
1748590009.111236,0.15283203125,0.97314453125,-0.181396484375
1748590009.1212378,0.170166015625,0.975341796875,-0.19140625
1748590009.1312358,0.142822265625,0.970458984375,-0.1826171875
1748590009.141233,0.143798828125,0.975341796875,-0.187744140625
1748590009.1512356,0.14599609375,0.973388671875,-0.189697265625
1748590009.1612356,0.1513671875,0.976806640625,-0.193603515625
1748590009.1712353,0.15234375,0.97412109375,-0.201904296875
1748590009.1812336,0.155029296875,0.972900390625,-0.204833984375
1748590009.191235,0.16796875,0.98291015625,-0.189697265625
1748590009.2012346,0.156005859375,0.969970703125,-0.189208984375
1748590009.211236,0.151611328125,0.9736328125,-0.19873046875
1748590009.2212365,0.15576171875,0.97216796875,-0.1943359375
1748590009.231234,0.152587890625,0.97607421875,-0.19091796875
1748590009.2412345,0.153564453125,0.97509765625,-0.178466796875
1748590009.2512357,0.150390625,0.97265625,-0.185302734375
1748590009.2612348,0.149658203125,0.97265625,-0.190185546875
1748590009.2712345,0.147216796875,0.978515625,-0.185791015625
1748590009.281234,0.140869140625,0.979248046875,-0.179931640625
1748590009.291234,0.134521484375,0.975830078125,-0.177734375
1748590009.3012354,0.141357421875,0.971923828125,-0.19091796875
1748590009.3112366,0.149658203125,0.96875,-0.19970703125
1748590009.3212383,0.147705078125,0.96484375,-0.1962890625
1748590009.3312356,0.153564453125,0.969970703125,-0.198974609375
1748590009.3412366,0.1484375,0.9697265625,-0.20068359375
1748590009.3512354,0.14501953125,0.962890625,-0.19970703125
1748590009.3612351,0.136474609375,0.972412109375,-0.203857421875
1748590009.3712351,0.13818359375,0.978515625,-0.204345703125
1748590009.3812342,0.135986328125,0.971435546875,-0.207275390625
1748590009.391236,0.13525390625,0.9755859375,-0.216552734375
1748590009.4012365,0.1396484375,0.975830078125,-0.211181640625
1748590009.4112587,0.1455078125,0.984619140625,-0.2119140625
1748590009.4212341,0.146728515625,0.9873046875,-0.20751953125
1748590009.4312332,0.158447265625,0.989990234375,-0.229736328125
1748590009.4412353,0.142333984375,0.993896484375,-0.206787109375
1748590009.4512331,0.14501953125,0.990234375,-0.190185546875
1748590009.4612372,0.152099609375,0.99169921875,-0.1884765625
1748590009.4712331,0.158935546875,0.99560546875,-0.1943359375
1748590009.4812324,0.17041015625,0.994384765625,-0.19189453125
1748590009.4912329,0.17236328125,0.97998046875,-0.17578125
1748590009.5012338,0.1611328125,0.964599609375,-0.17431640625
1748590009.5112324,0.158935546875,0.952880859375,-0.179443359375
1748590009.5212336,0.144775390625,0.939453125,-0.170166015625
1748590009.5312326,0.171630859375,0.930908203125,-0.164794921875
1748590009.5412323,0.158935546875,0.923095703125,-0.163818359375
1748590009.5512319,0.159423828125,0.9306640625,-0.165283203125
1748590009.5612333,0.153076171875,0.95751953125,-0.175048828125
1748590009.5712333,0.142578125,0.96484375,-0.1796875
1748590009.581232,0.143798828125,0.9853515625,-0.19384765625
1748590009.5912323,0.1455078125,0.990966796875,-0.191162109375
1748590009.6012318,0.15185546875,0.98583984375,-0.19384765625
1748590009.6112328,0.16748046875,0.978271484375,-0.194580078125
1748590009.621235,0.16748046875,0.980224609375,-0.195556640625
1748590009.631232,0.174560546875,0.98681640625,-0.18408203125
1748590009.6412325,0.182861328125,0.991943359375,-0.194091796875
1748590009.6512327,0.195068359375,0.992919921875,-0.194091796875
1748590009.661239,0.19580078125,0.989501953125,-0.179443359375
1748590009.671233,0.194091796875,0.990234375,-0.174072265625
1748590009.6812332,0.179443359375,1.003173828125,-0.17919921875
1748590009.6912348,0.167724609375,1.0029296875,-0.183837890625
1748590009.701232,0.173828125,0.99462890625,-0.188232421875
1748590009.711232,0.18115234375,0.976806640625,-0.17626953125
1748590009.7212322,0.192626953125,0.97607421875,-0.2109375
1748590009.731233,0.18115234375,0.969970703125,-0.1923828125
1748590009.741232,0.1845703125,0.9609375,-0.192626953125
1748590009.751232,0.186767578125,0.976806640625,-0.18603515625
1748590009.761226,0.186279296875,0.971923828125,-0.1943359375
1748590009.7712328,0.200439453125,0.956298828125,-0.21875
1748590009.7812324,0.1845703125,0.95703125,-0.219970703125
1748590009.7912323,0.182373046875,0.951904296875,-0.23974609375
1748590009.8012319,0.179443359375,0.95068359375,-0.2392578125
1748590009.8112323,0.184814453125,0.958740234375,-0.23291015625
1748590009.8212328,0.197021484375,0.96826171875,-0.252197265625
1748590009.831238,0.18603515625,0.980224609375,-0.233642578125
1748590009.841234,0.17626953125,0.991943359375,-0.21484375
1748590009.851233,0.159423828125,1.008544921875,-0.198486328125
1748590009.861233,0.159423828125,1.013671875,-0.1865234375
1748590009.8712327,0.1474609375,1.015380859375,-0.162353515625
1748590009.8812318,0.1396484375,1.017822265625,-0.14794921875
1748590009.8912323,0.109375,1.017578125,-0.13134765625
1748590009.9012225,0.112060546875,1.034912109375,-0.12744140625
1748590009.9112327,0.088623046875,1.0380859375,-0.1357421875
1748590009.9212322,0.0712890625,1.036376953125,-0.129638671875
1748590009.9312322,0.08154296875,1.014892578125,-0.13818359375
1748590009.9412324,0.09375,0.98779296875,-0.138671875
1748590009.9512331,0.115234375,0.98291015625,-0.13427734375
1748590009.961232,0.14208984375,0.963134765625,-0.1455078125
1748590009.9712288,0.177490234375,0.96875,-0.149169921875
1748590009.9812315,0.20458984375,0.9892578125,-0.167236328125
1748590009.9912322,0.2158203125,1.010009765625,-0.177490234375
1748590010.0012317,0.20849609375,1.023681640625,-0.192138671875
1748590010.0112333,0.19384765625,1.01416015625,-0.197509765625
1748590010.0212324,0.1572265625,1.01123046875,-0.218505859375
1748590010.031232,0.12548828125,1.0380859375,-0.188232421875
1748590010.041227,0.10546875,0.98974609375,-0.169677734375
1748590010.0512352,0.0751953125,0.998291015625,-0.16845703125
1748590010.0612316,0.064697265625,0.98779296875,-0.181884765625
1748590010.0712323,0.072021484375,0.986083984375,-0.186279296875
1748590010.0812323,0.07470703125,1.0078125,-0.183837890625
1748590010.0912328,0.089599609375,1.012451171875,-0.177001953125
1748590010.1012323,0.09619140625,1.0205078125,-0.1787109375
1748590010.1112344,0.09423828125,1.02685546875,-0.1826171875
1748590010.1212327,0.116943359375,1.02392578125,-0.174072265625
1748590010.1312327,0.1240234375,1.00927734375,-0.160400390625
1748590010.141232,0.13330078125,1.018798828125,-0.155517578125
1748590010.151231,0.147216796875,1.021484375,-0.14892578125
1748590010.1612315,0.149169921875,1.020263671875,-0.1533203125
1748590010.171233,0.137451171875,1.029052734375,-0.138671875
1748590010.181232,0.1318359375,1.020751953125,-0.139404296875
1748590010.191232,0.124267578125,1.017822265625,-0.126220703125
1748590010.201233,0.124267578125,1.033447265625,-0.117919921875
1748590010.211232,0.133544921875,1.034912109375,-0.120849609375
1748590010.221236,0.113525390625,1.044677734375,-0.117919921875
1748590010.2312355,0.111328125,1.047607421875,-0.123291015625
1748590010.2412343,0.090087890625,1.06787109375,-0.111572265625
1748590010.2512348,0.06103515625,1.04296875,-0.096435546875
1748590010.2612343,0.058837890625,1.006103515625,-0.068359375
1748590010.271235,0.03662109375,0.9853515625,-0.04736328125
1748590010.2812343,0.0,0.976806640625,-0.028564453125
1748590010.2912335,0.002685546875,0.985595703125,-0.017822265625
1748590010.3012352,0.00341796875,1.013916015625,-0.01611328125
1748590010.3112342,0.00927734375,1.048583984375,-0.034912109375
1748590010.3212366,0.02099609375,1.0830078125,-0.04248046875
1748590010.3312356,0.021484375,1.076904296875,-0.0361328125
1748590010.3412356,0.00390625,1.072021484375,-0.014404296875
1748590010.3512344,0.0107421875,1.077880859375,-0.00830078125
1748590010.3612342,0.001220703125,1.068359375,0.027587890625
1748590010.3712347,0.0048828125,1.080322265625,0.041259765625
1748590010.3812368,0.015625,1.092529296875,0.05615234375
1748590010.3912346,0.02294921875,1.084228515625,0.061279296875
1748590010.4012353,0.033203125,1.075927734375,0.04736328125
1748590010.4112506,0.0654296875,1.04931640625,0.0263671875
1748590010.4212332,0.0849609375,1.066162109375,-0.0009765625
1748590010.4312327,0.089111328125,1.080322265625,-0.020263671875
1748590010.4412355,0.0888671875,1.087158203125,0.0078125
1748590010.451232,0.067138671875,1.07861328125,0.0703125
1748590010.4612412,0.032470703125,1.060302734375,0.1220703125
1748590010.4712367,0.030029296875,1.021728515625,0.168212890625
1748590010.481236,0.01123046875,1.02978515625,0.127197265625
1748590010.491235,0.025390625,1.010498046875,0.166259765625
1748590010.5012343,0.041015625,0.98095703125,0.14697265625
1748590010.511235,0.0185546875,0.971923828125,0.143310546875
1748590010.5212343,0.0302734375,0.980224609375,0.131591796875
1748590010.531235,0.0087890625,0.995849609375,0.122802734375
1748590010.5412366,-0.014892578125,0.989501953125,0.12548828125
1748590010.5512362,-0.0126953125,0.958251953125,0.15087890625
1748590010.5612352,-0.01416015625,0.94580078125,0.16845703125
1748590010.571235,-0.01513671875,0.9306640625,0.18408203125
1748590010.581235,-0.025634765625,0.9150390625,0.22314453125
1748590010.5912342,-0.0244140625,0.927001953125,0.253173828125
1748590010.6012342,-0.026123046875,0.946533203125,0.254150390625
1748590010.6112342,-0.021240234375,0.966796875,0.259765625
1748590010.6212347,-0.001953125,1.003173828125,0.27783203125
1748590010.631235,-0.01220703125,0.9970703125,0.291259765625
1748590010.6412354,-0.01171875,1.013671875,0.290771484375
1748590010.6512358,-0.0048828125,0.994384765625,0.289306640625
1748590010.6612341,-0.00146484375,0.97119140625,0.2705078125
1748590010.6712353,-0.013671875,0.947021484375,0.2861328125
1748590010.6812353,-0.025634765625,0.906005859375,0.286376953125
1748590010.6912348,-0.030029296875,0.894775390625,0.270751953125
1748590010.7012348,-0.042724609375,0.881103515625,0.276611328125
1748590010.7112353,-0.04345703125,0.865966796875,0.269775390625
1748590010.7212346,-0.048828125,0.88818359375,0.27001953125
1748590010.7312365,-0.043701171875,0.915771484375,0.2822265625
1748590010.7412343,-0.03564453125,0.906005859375,0.300537109375
1748590010.751235,-0.03173828125,0.907470703125,0.2939453125
1748590010.7612355,-0.022705078125,0.916015625,0.30419921875
1748590010.771235,-0.002685546875,0.932861328125,0.3271484375
1748590010.7812352,0.003662109375,0.9169921875,0.309814453125
1748590010.791235,0.0439453125,0.905517578125,0.319580078125
1748590010.801236,-0.003173828125,0.93603515625,0.2939453125
1748590010.8112347,0.007568359375,0.923095703125,0.2958984375
1748590010.8212347,-0.005126953125,0.929443359375,0.287353515625
1748590010.831235,-0.046875,0.9072265625,0.30908203125
1748590010.8412352,-0.03173828125,0.9384765625,0.30517578125
1748590010.851234,-0.033447265625,0.956298828125,0.313232421875
1748590010.8612344,-0.0107421875,0.966064453125,0.304931640625
1748590010.8712351,-0.045654296875,0.9609375,0.3076171875
1748590010.8812351,-0.0322265625,0.939208984375,0.282470703125
1748590010.8912349,-0.01611328125,0.91650390625,0.310546875
1748590010.9012344,-0.020751953125,0.8984375,0.268798828125
1748590010.9112356,-0.03125,0.901123046875,0.264892578125
1748590010.9212346,-0.025146484375,0.916015625,0.275146484375
1748590010.9312348,-0.01611328125,0.91845703125,0.27734375
1748590010.9412344,-0.03857421875,0.9267578125,0.277099609375
1748590010.9512348,-0.03515625,0.941650390625,0.26220703125
1748590010.9612353,-0.032470703125,0.94482421875,0.255615234375
1748590010.9712353,-0.027587890625,0.943603515625,0.26025390625
1748590010.9812346,-0.020263671875,0.93798828125,0.260009765625
1748590010.9912348,-0.029296875,0.9296875,0.27783203125
1748590011.0012343,-0.027587890625,0.913818359375,0.251708984375
1748590011.0112352,-0.03271484375,0.912353515625,0.2607421875
1748590011.0212345,-0.04296875,0.903564453125,0.26220703125
1748590011.0312355,-0.051513671875,0.916259765625,0.273681640625
1748590011.0412347,-0.060791015625,0.9169921875,0.28076171875
1748590011.051235,-0.068115234375,0.9326171875,0.29248046875
1748590011.061235,-0.07470703125,0.946044921875,0.2958984375
1748590011.071235,-0.081298828125,0.94970703125,0.312744140625
1748590011.0812356,-0.086181640625,0.951171875,0.3173828125
1748590011.0912352,-0.099609375,0.95849609375,0.3173828125
1748590011.1012347,-0.10595703125,0.9716796875,0.331298828125
1748590011.1112354,-0.106201171875,0.962890625,0.33154296875
1748590011.1212351,-0.10888671875,0.9990234375,0.35498046875
1748590011.1312344,-0.08203125,1.000244140625,0.34521484375
1748590011.141235,-0.067626953125,1.015625,0.37353515625
1748590011.1512344,-0.06640625,1.0302734375,0.350341796875
1748590011.161235,-0.076171875,1.02587890625,0.357666015625
1748590011.1712346,-0.102783203125,1.017578125,0.35546875
1748590011.1812348,-0.103271484375,1.003173828125,0.349365234375
1748590011.1912358,-0.0810546875,0.991455078125,0.33349609375
1748590011.2012348,-0.047607421875,0.96435546875,0.345947265625
1748590011.2112346,-0.021484375,0.934814453125,0.341552734375
1748590011.2212353,-0.003662109375,0.927001953125,0.34326171875
1748590011.2312355,0.007568359375,0.943603515625,0.32275390625
1748590011.2412353,0.005615234375,0.96923828125,0.329345703125
1748590011.2512355,-0.006103515625,1.014404296875,0.34423828125
1748590011.2612345,-0.01611328125,1.053466796875,0.366943359375
1748590011.2712348,-0.015869140625,1.070068359375,0.3681640625
1748590011.2812347,-0.00341796875,1.0703125,0.343505859375
1748590011.2912357,-0.004150390625,1.057861328125,0.327392578125
1748590011.3012362,-0.006591796875,1.04443359375,0.31103515625
1748590011.3112347,-0.001708984375,1.001220703125,0.299072265625
1748590011.3212354,0.021728515625,0.973876953125,0.294677734375
1748590011.331235,0.049072265625,0.950927734375,0.302734375
1748590011.3412347,0.0712890625,0.931884765625,0.312255859375
1748590011.351234,0.0927734375,0.934814453125,0.32373046875
1748590011.361235,0.063720703125,0.955810546875,0.338134765625
1748590011.3712423,0.036865234375,0.989501953125,0.329345703125
1748590011.3812366,0.002197265625,1.011474609375,0.33203125
1748590011.3912346,-0.007080078125,1.014892578125,0.32958984375
1748590011.4012382,0.011474609375,1.011962890625,0.3125
1748590011.4112387,0.031982421875,0.98046875,0.28955078125
1748590011.4212334,0.0791015625,0.95556640625,0.25244140625
1748590011.4312334,0.1220703125,0.97412109375,0.23681640625
1748590011.4412332,0.1220703125,0.975830078125,0.2548828125
1748590011.4512334,0.1259765625,0.991455078125,0.251708984375
1748590011.461233,0.111083984375,0.98046875,0.26806640625
1748590011.471233,0.118896484375,0.953369140625,0.267333984375
1748590011.4812243,0.097900390625,0.95654296875,0.270751953125
1748590011.4912384,0.0693359375,0.957275390625,0.276611328125
1748590011.501234,0.052001953125,0.972412109375,0.268310546875
1748590011.5112376,0.010009765625,0.98095703125,0.295654296875
1748590011.521238,-0.005126953125,0.99658203125,0.305908203125
1748590011.531235,-0.044921875,1.020751953125,0.315673828125
1748590011.5412369,-0.056640625,1.027099609375,0.330078125
1748590011.551238,-0.061279296875,1.0283203125,0.321044921875
1748590011.5612357,-0.07861328125,1.006103515625,0.310791015625
1748590011.5712342,-0.109619140625,0.9775390625,0.2919921875
1748590011.581235,-0.1318359375,0.960693359375,0.26806640625
1748590011.5912356,-0.140625,0.953857421875,0.255859375
1748590011.601235,-0.152099609375,0.97119140625,0.24072265625
1748590011.6112378,-0.161376953125,0.9609375,0.261474609375
1748590011.6212385,-0.14599609375,0.951171875,0.287109375
1748590011.6312416,-0.135009765625,0.94970703125,0.275390625
1748590011.6412635,-0.10400390625,0.942138671875,0.2939453125
1748590011.651237,-0.0810546875,0.929443359375,0.297119140625
1748590011.6612406,-0.05517578125,0.90966796875,0.267333984375
1748590011.671238,-0.045166015625,0.916748046875,0.2529296875
1748590011.6812367,-0.044677734375,0.927978515625,0.2607421875
1748590011.6912355,-0.034912109375,0.935302734375,0.278564453125
1748590011.701235,-0.025634765625,0.94384765625,0.271240234375
1748590011.711236,-0.043701171875,0.968017578125,0.281005859375
1748590011.721235,-0.0224609375,0.96630859375,0.2734375
1748590011.7312348,-0.04296875,0.990234375,0.271728515625
1748590011.7412336,-0.058837890625,1.002197265625,0.2822265625
1748590011.7512367,-0.077392578125,1.018310546875,0.257080078125
1748590011.7612355,-0.089599609375,1.036376953125,0.25634765625
1748590011.7712348,-0.086181640625,1.033447265625,0.251708984375
1748590011.7812347,-0.11279296875,1.02392578125,0.265625
1748590011.7912343,-0.119873046875,0.991943359375,0.270751953125
1748590011.8012345,-0.1201171875,0.971435546875,0.267578125
1748590011.8112373,-0.12841796875,0.960693359375,0.25830078125
1748590011.8212361,-0.1201171875,0.961181640625,0.27734375
1748590011.8312356,-0.09619140625,0.9599609375,0.25927734375
1748590011.8412263,-0.0654296875,0.946533203125,0.270751953125
1748590011.8512352,-0.06103515625,0.951416015625,0.2734375
1748590011.8612337,-0.059814453125,0.945556640625,0.26513671875
1748590011.8712347,-0.066650390625,0.99609375,0.252685546875
1748590011.8812358,-0.068359375,1.0517578125,0.261474609375
1748590011.8912377,-0.05029296875,1.035400390625,0.26806640625
1748590011.901236,-0.076171875,1.030029296875,0.265869140625
1748590011.9112399,-0.094970703125,1.005615234375,0.283935546875
1748590011.921236,-0.121337890625,0.9814453125,0.2763671875
1748590011.9312341,-0.13525390625,0.965087890625,0.27587890625
1748590011.9412358,-0.134765625,0.956787109375,0.279296875
1748590011.9512355,-0.101806640625,0.9541015625,0.2783203125
1748590011.961235,-0.08837890625,0.94482421875,0.265625
1748590011.9712353,-0.08447265625,0.9296875,0.267822265625
1748590011.9812343,-0.056396484375,0.943603515625,0.251953125
1748590011.9912357,-0.05419921875,0.939208984375,0.2373046875
1748590012.0012357,-0.068359375,0.938232421875,0.261474609375
1748590012.0112364,-0.090087890625,0.960693359375,0.265625
1748590012.0212362,-0.09228515625,0.98779296875,0.28076171875
1748590012.0312347,-0.078369140625,1.005615234375,0.281494140625
1748590012.0412357,-0.06884765625,1.0205078125,0.28125
1748590012.0512354,-0.06884765625,1.012939453125,0.302978515625
1748590012.0612361,-0.0830078125,0.99609375,0.282470703125
1748590012.0712345,-0.08935546875,0.983642578125,0.28515625
1748590012.0812352,-0.10595703125,0.982177734375,0.282958984375
1748590012.0912342,-0.12060546875,0.973876953125,0.290771484375
1748590012.1012356,-0.12060546875,0.98046875,0.309326171875
1748590012.1112368,-0.13232421875,0.99853515625,0.302490234375
1748590012.1212354,-0.121826171875,1.013427734375,0.326904296875
1748590012.1312351,-0.1337890625,0.998779296875,0.327880859375
1748590012.141234,-0.1435546875,0.983154296875,0.31689453125
1748590012.1512349,-0.135498046875,0.962158203125,0.302490234375
1748590012.1612377,-0.127197265625,0.93359375,0.291259765625
1748590012.1712396,-0.138916015625,0.92431640625,0.27392578125
1748590012.181236,-0.1552734375,0.927490234375,0.31201171875
1748590012.191235,-0.17529296875,0.956787109375,0.281982421875
1748590012.2012353,-0.2001953125,0.959716796875,0.296142578125
1748590012.211239,-0.218017578125,0.96875,0.28955078125
1748590012.2212355,-0.23193359375,0.968017578125,0.294189453125
1748590012.2312357,-0.205322265625,0.92724609375,0.297607421875
1748590012.241235,-0.160400390625,0.9208984375,0.342529296875
1748590012.251235,-0.1005859375,0.947509765625,0.371337890625
1748590012.2612345,-0.06640625,0.970703125,0.413818359375
1748590012.2712348,-0.04736328125,0.98193359375,0.4296875
1748590012.2812352,-0.056884765625,0.969482421875,0.4375
1748590012.2912357,-0.074951171875,0.9736328125,0.43701171875
1748590012.3012376,-0.047119140625,0.96630859375,0.392578125
1748590012.3112392,-0.015380859375,0.96240234375,0.36279296875
1748590012.3212361,0.040283203125,0.9921875,0.33251953125
1748590012.3312356,0.0654296875,0.999755859375,0.32080078125
1748590012.3412359,0.0869140625,0.987548828125,0.3251953125
1748590012.3512354,0.102783203125,0.996826171875,0.3427734375
1748590012.3612356,0.1201171875,1.005126953125,0.33203125
1748590012.3712356,0.080078125,0.996337890625,0.35888671875
1748590012.381236,0.02001953125,0.976318359375,0.3818359375
1748590012.3912354,-0.005615234375,0.975341796875,0.382568359375
1748590012.401235,-0.048583984375,0.975830078125,0.345458984375
1748590012.4112542,-0.05517578125,0.95458984375,0.357177734375
1748590012.4212375,-0.064697265625,0.929443359375,0.34814453125
1748590012.4312408,-0.07861328125,0.91943359375,0.3505859375
1748590012.44124,-0.072509765625,0.92626953125,0.33251953125
1748590012.4512386,-0.04833984375,0.937255859375,0.322509765625
1748590012.46124,-0.060546875,0.938232421875,0.310546875
1748590012.4712381,-0.038330078125,0.932861328125,0.2978515625
1748590012.4812384,-0.01953125,0.918701171875,0.2822265625
1748590012.4912362,0.002685546875,0.920166015625,0.277587890625
1748590012.501235,0.008544921875,0.91796875,0.279296875
1748590012.5112371,0.04638671875,0.953369140625,0.31201171875
1748590012.5212345,0.022216796875,0.9755859375,0.344482421875
1748590012.5312355,0.052978515625,1.001708984375,0.40283203125
1748590012.5412347,0.08056640625,1.017822265625,0.403564453125
1748590012.551235,0.1064453125,1.015869140625,0.4091796875
1748590012.561233,0.13232421875,1.0009765625,0.403564453125
1748590012.5712345,0.14111328125,1.001953125,0.387939453125
1748590012.5812354,0.12646484375,1.000732421875,0.377685546875
1748590012.5912347,0.07421875,0.997802734375,0.38134765625
1748590012.601235,0.04638671875,0.961181640625,0.378173828125
1748590012.6112351,0.032470703125,0.919921875,0.38916015625
1748590012.6212344,0.04296875,0.88916015625,0.395263671875
1748590012.631235,0.048828125,0.89013671875,0.399169921875
1748590012.6412344,0.08740234375,0.90771484375,0.408447265625
1748590012.6512344,0.107177734375,0.97021484375,0.430908203125
1748590012.6612353,0.09716796875,0.977783203125,0.4267578125
1748590012.671235,0.072509765625,0.9970703125,0.392822265625
1748590012.6812353,0.021484375,1.003662109375,0.378662109375
1748590012.6912355,0.000244140625,1.0,0.344970703125
1748590012.701237,-0.021728515625,0.978271484375,0.352783203125
1748590012.7112348,-0.030517578125,0.972900390625,0.367431640625
1748590012.7212346,-0.018310546875,0.976806640625,0.3603515625
1748590012.731235,0.017333984375,0.977783203125,0.372314453125
1748590012.7412343,0.0556640625,0.961669921875,0.382080078125
1748590012.7512352,0.10791015625,0.946044921875,0.410888671875
1748590012.761235,0.109619140625,0.9306640625,0.381103515625
1748590012.771235,0.099609375,0.94482421875,0.385498046875
1748590012.7812355,0.077392578125,0.963134765625,0.378173828125
1748590012.791237,0.035400390625,0.96728515625,0.364501953125
1748590012.8012352,0.0322265625,0.9736328125,0.365478515625
1748590012.8112352,0.041015625,0.946533203125,0.36083984375
1748590012.8212342,0.015625,0.935302734375,0.3798828125
1748590012.8312352,0.018310546875,0.931396484375,0.402099609375
1748590012.8412354,0.05126953125,0.913330078125,0.40087890625
1748590012.851235,0.052490234375,0.938720703125,0.413818359375
1748590012.8612347,0.086181640625,0.932373046875,0.425537109375
1748590012.8712356,0.098876953125,0.96826171875,0.4130859375
1748590012.8812366,0.073486328125,0.978759765625,0.39697265625
1748590012.891234,0.04931640625,1.002197265625,0.408447265625
1748590012.9012346,0.056396484375,0.91845703125,0.390869140625
1748590012.9112353,0.037841796875,0.922607421875,0.4033203125
1748590012.9212356,0.044189453125,0.9609375,0.413330078125
1748590012.931235,0.0185546875,0.944580078125,0.4365234375
1748590012.9412353,0.03564453125,0.9423828125,0.390869140625
1748590012.951235,0.05078125,0.94580078125,0.395751953125
1748590012.961234,0.05126953125,0.936279296875,0.400634765625
1748590012.9712367,0.046875,0.929443359375,0.40625
1748590012.9812348,0.076904296875,0.95263671875,0.41259765625
1748590012.991235,0.078125,0.948486328125,0.4248046875
1748590013.0012348,0.1005859375,0.936279296875,0.43310546875
1748590013.0112357,0.098876953125,0.91845703125,0.42822265625
1748590013.021235,0.092041015625,0.908447265625,0.4306640625
1748590013.0312343,0.073486328125,0.89794921875,0.41845703125
1748590013.0412347,0.048095703125,0.890869140625,0.41796875
1748590013.051235,0.036376953125,0.927490234375,0.421875
1748590013.0612366,0.02783203125,0.92724609375,0.43017578125
1748590013.0712347,0.022216796875,0.932373046875,0.444580078125
1748590013.0812352,0.015625,0.926025390625,0.443603515625
1748590013.0912352,0.03466796875,0.912841796875,0.45068359375
1748590013.1012352,0.060546875,0.885498046875,0.439208984375
1748590013.1112342,0.078125,0.91162109375,0.4521484375
1748590013.1212351,0.064453125,0.902587890625,0.459716796875
1748590013.1312351,0.04833984375,0.893798828125,0.45849609375
1748590013.1412349,0.0341796875,0.909423828125,0.450927734375
1748590013.1512344,0.0263671875,0.913818359375,0.4619140625
1748590013.1612344,0.01806640625,0.9111328125,0.453125
1748590013.1712341,0.02197265625,0.909912109375,0.44287109375
1748590013.1812432,0.03076171875,0.90673828125,0.4375
1748590013.191235,0.044189453125,0.905517578125,0.4482421875
1748590013.2012348,0.064208984375,0.90576171875,0.44775390625
1748590013.2112389,0.08056640625,0.922119140625,0.439208984375
1748590013.221236,0.07666015625,0.93603515625,0.465576171875
1748590013.231235,0.0771484375,0.9404296875,0.473388671875
1748590013.2412357,0.091796875,0.954833984375,0.48876953125
1748590013.2512357,0.09033203125,0.95751953125,0.50439453125
1748590013.2612357,0.106689453125,0.96044921875,0.5048828125
1748590013.2712357,0.0830078125,0.92919921875,0.47216796875
1748590013.2812343,0.04931640625,0.906982421875,0.44921875
1748590013.291235,0.04443359375,0.906005859375,0.41455078125
1748590013.3012364,0.036865234375,0.912109375,0.40869140625
1748590013.3112347,0.0087890625,0.927001953125,0.41796875
1748590013.3212395,-0.01123046875,0.935546875,0.446533203125
1748590013.3312376,-0.026123046875,0.951416015625,0.45849609375
1748590013.3412383,-0.006591796875,0.950439453125,0.472900390625
1748590013.3512354,0.0263671875,0.9580078125,0.46923828125
1748590013.3612335,0.045654296875,0.941162109375,0.442626953125
1748590013.3712356,0.043701171875,0.92919921875,0.44287109375
1748590013.381236,0.016357421875,0.940185546875,0.447998046875
1748590013.3912363,0.004150390625,0.9658203125,0.44287109375
1748590013.4012384,-0.0146484375,0.9853515625,0.443115234375
1748590013.4112563,-0.027099609375,0.99462890625,0.427001953125
1748590013.4212382,-0.0341796875,0.988525390625,0.417236328125
1748590013.431237,-0.043212890625,0.96240234375,0.406982421875
1748590013.4412372,-0.03857421875,0.942138671875,0.37841796875
1748590013.4512396,-0.01953125,0.95166015625,0.379638671875
1748590013.4612424,-0.05517578125,0.9326171875,0.36572265625
1748590013.4712417,-0.05908203125,0.947509765625,0.3681640625
1748590013.4812386,-0.064208984375,0.9638671875,0.34765625
1748590013.4912343,-0.0791015625,0.985107421875,0.345458984375
1748590013.5012357,-0.072265625,0.96923828125,0.3408203125
1748590013.5112357,-0.06298828125,0.9677734375,0.330078125
1748590013.5212357,-0.07177734375,0.945556640625,0.35888671875
1748590013.5312345,-0.065673828125,0.9365234375,0.339599609375
1748590013.5412343,-0.05029296875,0.93212890625,0.34326171875
1748590013.5512342,-0.03759765625,0.951904296875,0.33935546875
1748590013.561234,-0.021240234375,0.949462890625,0.323974609375
1748590013.5712342,-0.006103515625,0.96875,0.33251953125
1748590013.5812337,0.04931640625,0.960693359375,0.332275390625
1748590013.5912352,0.072509765625,0.950927734375,0.323486328125
1748590013.6012363,0.072021484375,0.9306640625,0.326171875
1748590013.6112385,0.072998046875,0.9296875,0.31298828125
1748590013.621236,0.049072265625,0.926025390625,0.29931640625
1748590013.6312351,0.024658203125,0.92919921875,0.2685546875
1748590013.641235,-0.00439453125,0.9267578125,0.3251953125
1748590013.6512349,-0.00634765625,0.923828125,0.322021484375
1748590013.6612349,0.005126953125,0.9111328125,0.31689453125
1748590013.671235,0.02392578125,0.92041015625,0.305908203125
1748590013.681237,0.046630859375,0.92919921875,0.302978515625
1748590013.691236,0.036865234375,0.933349609375,0.308349609375
1748590013.7012346,0.029541015625,0.953369140625,0.31884765625
1748590013.71124,0.013427734375,0.9560546875,0.31494140625
1748590013.7212367,0.0107421875,0.972412109375,0.322021484375
1748590013.7312348,-0.00634765625,0.96728515625,0.311279296875
1748590013.7412338,-0.037841796875,0.968505859375,0.28759765625
1748590013.751235,-0.070556640625,0.9453125,0.267333984375
1748590013.7612348,-0.06982421875,0.929443359375,0.23681640625
1748590013.771235,-0.0546875,0.931640625,0.23486328125
1748590013.7812345,-0.011474609375,0.93310546875,0.233642578125
1748590013.7912347,0.057861328125,0.962158203125,0.235595703125
1748590013.8012352,0.09228515625,0.99609375,0.26416015625
1748590013.8112383,0.084716796875,1.005859375,0.271728515625
1748590013.821236,0.060546875,0.980224609375,0.289306640625
1748590013.8312345,-0.000732421875,0.943359375,0.31494140625
1748590013.8412344,-0.03955078125,0.963134765625,0.344482421875
1748590013.8512354,-0.055419921875,1.000732421875,0.413818359375
1748590013.8612335,-0.04833984375,1.085205078125,0.468994140625
1748590013.871236,-0.0283203125,1.179443359375,0.55810546875
1748590013.8812342,0.001953125,1.244873046875,0.619140625
1748590013.8912344,-0.013427734375,1.23193359375,0.6376953125
1748590013.9012344,-0.07763671875,1.142578125,0.630126953125
1748590013.9112396,-0.106689453125,1.034912109375,0.600830078125
1748590013.9212575,-0.074462890625,0.91357421875,0.5576171875
1748590013.9312358,0.008544921875,0.806884765625,0.491943359375
1748590013.9412346,0.125,0.740966796875,0.45751953125
1748590013.9512353,0.24755859375,0.767333984375,0.457275390625
1748590013.961235,0.334228515625,0.868896484375,0.476318359375
1748590013.9712338,0.37744140625,0.9775390625,0.48681640625
1748590013.9812355,0.449951171875,1.09521484375,0.52685546875
1748590013.9912355,0.474365234375,1.154541015625,0.55029296875
1748590014.001235,0.415771484375,1.125244140625,0.494384765625
1748590014.011239,0.2138671875,1.054443359375,0.32861328125
1748590014.021235,0.06396484375,0.97265625,0.18701171875
1748590014.0312357,0.070556640625,0.881591796875,0.12158203125
1748590014.0412357,0.1083984375,0.762451171875,0.134033203125
1748590014.0512347,0.141357421875,0.682861328125,0.161376953125
1748590014.061235,0.188720703125,0.648193359375,0.206298828125
1748590014.071235,0.224853515625,0.665283203125,0.247314453125
1748590014.0812345,0.28271484375,0.729736328125,0.2900390625
1748590014.0912354,0.319580078125,0.838134765625,0.33837890625
1748590014.1012347,0.332275390625,0.919189453125,0.358642578125
1748590014.1112385,0.316162109375,0.9248046875,0.34716796875
1748590014.1212363,0.260498046875,0.887939453125,0.3369140625
1748590014.1312344,0.1845703125,0.84423828125,0.326171875
1748590014.1412349,0.1396484375,0.894287109375,0.29931640625
1748590014.1512353,0.056884765625,1.020263671875,0.316650390625
1748590014.161235,-0.00048828125,1.14306640625,0.3505859375
1748590014.1712406,-0.043701171875,1.246826171875,0.37939453125
1748590014.1812365,-0.103759765625,1.29736328125,0.422119140625
1748590014.1912353,-0.107421875,1.24853515625,0.44287109375
1748590014.2012343,-0.042236328125,1.130859375,0.3876953125
1748590014.2112381,0.025146484375,1.07275390625,0.322509765625
1748590014.221237,0.05224609375,1.074951171875,0.284912109375
1748590014.2312348,0.066162109375,1.077392578125,0.27978515625
1748590014.241235,0.072509765625,1.069580078125,0.291748046875
1748590014.251235,0.097412109375,1.046875,0.2900390625
1748590014.2612343,0.117431640625,0.974365234375,0.304443359375
1748590014.271235,0.135498046875,0.896728515625,0.275146484375
1748590014.2812338,0.12841796875,0.8564453125,0.249267578125
1748590014.291235,0.096923828125,0.850341796875,0.228759765625
1748590014.301239,0.0361328125,0.898193359375,0.2236328125
1748590014.3112385,0.018798828125,0.9619140625,0.24609375
1748590014.3212364,0.014404296875,1.01513671875,0.267822265625
1748590014.3312356,0.0224609375,1.012451171875,0.28076171875
1748590014.3412354,0.030029296875,0.99365234375,0.251953125
1748590014.3512352,-0.021728515625,0.9970703125,0.220703125
1748590014.361235,-0.06982421875,1.00439453125,0.192626953125
1748590014.3712358,-0.140380859375,1.03662109375,0.150146484375
1748590014.3812375,-0.158935546875,1.059814453125,0.136474609375
1748590014.3912373,-0.165771484375,1.0341796875,0.124755859375
1748590014.4012382,-0.1435546875,1.032470703125,0.1328125
1748590014.411268,-0.068115234375,1.0341796875,0.1611328125
1748590014.4212391,-0.02001953125,1.0302734375,0.174560546875
1748590014.4312384,-0.031494140625,1.031005859375,0.183349609375
1748590014.441239,-0.040283203125,1.022216796875,0.16259765625
1748590014.451236,-0.043212890625,1.0078125,0.1708984375
1748590014.4612355,-0.060302734375,0.991943359375,0.160888671875
1748590014.4712353,-0.081298828125,0.98291015625,0.173828125
1748590014.4812348,-0.12646484375,0.995361328125,0.166259765625
1748590014.491234,-0.141845703125,0.990966796875,0.18017578125
1748590014.5012348,-0.169921875,0.989501953125,0.1787109375
1748590014.5112343,-0.159912109375,0.991943359375,0.17578125
1748590014.521234,-0.12451171875,0.98486328125,0.164794921875
1748590014.5312343,-0.080078125,0.96875,0.15625
1748590014.5412347,-0.052734375,0.966064453125,0.1533203125
1748590014.5512345,-0.048095703125,0.95458984375,0.166748046875
1748590014.5612342,-0.04541015625,0.95361328125,0.172119140625
1748590014.5712342,-0.04833984375,0.95947265625,0.190185546875
1748590014.581235,-0.060546875,0.959228515625,0.19189453125
1748590014.5912352,-0.0673828125,0.9755859375,0.21044921875
1748590014.6012352,-0.072998046875,0.993896484375,0.218994140625
1748590014.6112354,-0.071533203125,1.004150390625,0.227294921875
1748590014.6212347,-0.02880859375,1.04638671875,0.2294921875
1748590014.6312346,0.015625,1.064697265625,0.22265625
1748590014.6412346,0.0087890625,1.068359375,0.2333984375
1748590014.6512356,-0.010009765625,1.055419921875,0.2578125
1748590014.661235,-0.005615234375,1.00341796875,0.27880859375
1748590014.671235,-0.012939453125,0.9248046875,0.2626953125
1748590014.681235,0.0068359375,0.9228515625,0.21484375
1748590014.6912358,0.004638671875,0.978271484375,0.22509765625
1748590014.701235,0.004150390625,1.003662109375,0.237060546875
1748590014.7112353,-0.023681640625,1.01123046875,0.22705078125
1748590014.7212346,-0.02587890625,1.0400390625,0.23388671875
1748590014.7312346,-0.0224609375,1.0146484375,0.252197265625
1748590014.7412345,-0.013427734375,0.977294921875,0.247314453125
1748590014.7512348,-0.00341796875,0.96240234375,0.23876953125
1748590014.7612345,0.012939453125,0.97998046875,0.23681640625
1748590014.7712343,0.039794921875,1.027587890625,0.2421875
1748590014.7812347,0.044677734375,1.030517578125,0.266845703125
1748590014.7912343,-0.022216796875,1.012939453125,0.240234375
1748590014.801235,-0.09228515625,0.955078125,0.193115234375
1748590014.8112352,-0.1318359375,0.91943359375,0.165283203125
1748590014.8212347,-0.153076171875,0.89111328125,0.140869140625
1748590014.831235,-0.15966796875,0.90283203125,0.1259765625
1748590014.841235,-0.1513671875,0.923583984375,0.14794921875
1748590014.8512375,-0.179931640625,0.968505859375,0.1904296875
1748590014.8612344,-0.16064453125,0.94970703125,0.25146484375
1748590014.8712356,-0.085693359375,0.951171875,0.28125
1748590014.881235,0.0419921875,1.002197265625,0.3193359375
1748590014.8912349,0.149658203125,1.0693359375,0.33935546875
1748590014.9012341,0.187744140625,1.154052734375,0.3564453125
1748590014.911235,0.22265625,1.17236328125,0.36279296875
1748590014.9212353,0.248779296875,1.1318359375,0.363037109375
1748590014.9312348,0.31787109375,1.042236328125,0.33544921875
1748590014.9412353,0.360107421875,0.955810546875,0.2958984375
1748590014.9512346,0.44970703125,0.9326171875,0.2548828125
1748590014.9612346,0.470947265625,0.908203125,0.21484375
1748590014.9712353,0.4453125,0.961181640625,0.160400390625
1748590014.981235,0.328125,1.022705078125,0.132080078125
1748590014.9912345,0.277587890625,1.085693359375,0.180419921875
1748590015.0012345,0.290771484375,1.179443359375,0.288818359375
1748590015.0112355,0.23486328125,1.279052734375,0.34521484375
1748590015.0212345,0.185791015625,1.298583984375,0.34375
1748590015.0312347,0.1552734375,1.282958984375,0.35302734375
1748590015.0412347,0.139404296875,1.209716796875,0.320556640625
1748590015.051234,0.14697265625,1.131591796875,0.284912109375
1748590015.0612354,0.16845703125,1.06591796875,0.25244140625
1748590015.0712354,0.1796875,1.02099609375,0.220458984375
1748590015.0812345,0.196533203125,0.996337890625,0.17236328125
1748590015.0912437,0.1865234375,0.962158203125,0.1640625
1748590015.1012344,0.18701171875,0.932861328125,0.1689453125
1748590015.1112351,0.197265625,0.90087890625,0.19775390625
1748590015.1212354,0.1728515625,0.888427734375,0.225341796875
1748590015.1312358,0.16650390625,0.863037109375,0.261474609375
1748590015.1412344,0.100341796875,0.84423828125,0.2763671875
1748590015.1512353,0.087646484375,0.838623046875,0.279052734375
1748590015.1612337,0.076171875,0.85546875,0.280029296875
1748590015.171235,0.064208984375,0.872314453125,0.28564453125
1748590015.1812346,0.015625,0.878173828125,0.294677734375
1748590015.1912344,0.050537109375,0.8935546875,0.28955078125
1748590015.2012346,0.04296875,0.870849609375,0.304443359375
1748590015.2112358,0.05517578125,0.863525390625,0.292236328125
1748590015.2212348,0.071044921875,0.849853515625,0.293212890625
1748590015.2312348,0.08349609375,0.851806640625,0.296142578125
1748590015.2412362,0.096923828125,0.868896484375,0.3212890625
1748590015.2512345,0.107666015625,0.87060546875,0.335205078125
1748590015.2612355,0.0859375,0.87646484375,0.351806640625
1748590015.2712352,0.1083984375,0.913818359375,0.38037109375
1748590015.2812352,0.143798828125,0.966552734375,0.40673828125
1748590015.2912352,0.165283203125,1.02734375,0.429931640625
1748590015.301235,0.172119140625,1.041015625,0.449951171875
1748590015.3112347,0.17578125,1.015380859375,0.423583984375
1748590015.3212352,0.15478515625,0.90673828125,0.37548828125
1748590015.3312352,0.119873046875,0.856689453125,0.30517578125
1748590015.3412354,0.072509765625,0.8310546875,0.24658203125
1748590015.3512352,0.0439453125,0.8115234375,0.212890625
1748590015.3612344,0.07666015625,0.791259765625,0.1943359375
1748590015.3712358,0.04345703125,0.79150390625,0.211669921875
1748590015.3812373,-0.031982421875,0.89013671875,0.197265625
1748590015.3912356,-0.111328125,0.97802734375,0.18017578125
1748590015.4012382,-0.188232421875,1.037109375,0.18310546875
1748590015.4112394,-0.245849609375,1.10546875,0.173583984375
1748590015.4212332,-0.238525390625,1.18603515625,0.16455078125
1748590015.4312332,-0.19775390625,1.234619140625,0.167236328125
1748590015.4412332,-0.15234375,1.227294921875,0.211181640625
1748590015.4512355,-0.069091796875,1.139892578125,0.238037109375
1748590015.4612322,-0.060546875,1.070556640625,0.2373046875
1748590015.4712327,-0.054443359375,1.061767578125,0.207763671875
1748590015.4812326,-0.057373046875,1.0927734375,0.192626953125
1748590015.4912329,-0.080322265625,1.1015625,0.202392578125
1748590015.5012326,-0.090087890625,1.08740234375,0.2216796875
1748590015.5112333,-0.1123046875,1.066162109375,0.23291015625
1748590015.5212333,-0.10498046875,1.017578125,0.228271484375
1748590015.531232,-0.11669921875,0.983642578125,0.21826171875
1748590015.5412323,-0.146240234375,0.958740234375,0.189208984375
1748590015.5512366,-0.137939453125,0.96142578125,0.1904296875
1748590015.5612326,-0.01708984375,0.95947265625,0.178466796875
1748590015.5712318,0.014892578125,0.945556640625,0.186279296875
1748590015.5812325,0.034912109375,0.94091796875,0.199462890625
1748590015.5912323,0.01025390625,0.946044921875,0.229736328125
1748590015.6012318,0.002685546875,0.939453125,0.2373046875
1748590015.6112344,-0.001220703125,0.963623046875,0.23828125
1748590015.621232,0.000732421875,0.971923828125,0.2705078125
1748590015.6312323,0.0,0.98095703125,0.2724609375
1748590015.6412323,-0.013916015625,0.976318359375,0.27392578125
1748590015.6512325,-0.060302734375,0.96875,0.262451171875
1748590015.6612325,-0.092529296875,0.946044921875,0.271484375
1748590015.6712327,-0.099365234375,0.934326171875,0.2802734375
1748590015.681232,-0.113037109375,0.91455078125,0.275634765625
1748590015.691232,-0.106689453125,0.919921875,0.26025390625
1748590015.7012343,-0.109130859375,0.948974609375,0.24169921875
1748590015.7112324,-0.059326171875,0.973876953125,0.243896484375
1748590015.721232,-0.07275390625,0.995361328125,0.2509765625
1748590015.731232,-0.03125,1.00537109375,0.2626953125
1748590015.7412324,-0.005126953125,1.035888671875,0.259765625
1748590015.7512324,0.001220703125,1.047119140625,0.24853515625
1748590015.7612326,0.010986328125,1.06103515625,0.24658203125
1748590015.7712324,-0.005126953125,1.042724609375,0.24462890625
1748590015.7812328,-0.023681640625,1.0341796875,0.246337890625
1748590015.7912333,-0.04638671875,1.01171875,0.249755859375
1748590015.8012328,-0.07177734375,1.000244140625,0.25390625
1748590015.811232,-0.079833984375,0.99560546875,0.26806640625
1748590015.821232,-0.073486328125,1.01025390625,0.254150390625
1748590015.8312328,-0.075439453125,1.0078125,0.263671875
1748590015.8412325,-0.060791015625,0.997314453125,0.292724609375
1748590015.851232,-0.07421875,0.98583984375,0.2822265625
1748590015.8612342,-0.07177734375,0.98876953125,0.2890625
1748590015.8712332,-0.06591796875,0.98681640625,0.290283203125
1748590015.8812325,-0.06787109375,0.9697265625,0.2939453125
1748590015.8912327,-0.07275390625,0.96240234375,0.289306640625
1748590015.9012322,-0.06298828125,0.960693359375,0.2734375
1748590015.9112325,-0.0537109375,0.952392578125,0.25
1748590015.9212322,-0.06298828125,0.939697265625,0.242431640625
1748590015.9312263,-0.072265625,0.951171875,0.231689453125
1748590015.941233,-0.072265625,0.95654296875,0.2373046875
1748590015.9512324,-0.07470703125,0.990478515625,0.26025390625
1748590015.9612322,-0.0810546875,1.00146484375,0.284423828125
1748590015.9712327,-0.078125,0.9873046875,0.27880859375
1748590015.9812317,-0.07666015625,0.981689453125,0.28466796875
1748590015.9912326,-0.0859375,0.960693359375,0.27783203125
1748590016.0012326,-0.092041015625,0.946044921875,0.25927734375
1748590016.0112321,-0.076171875,0.922607421875,0.258056640625
1748590016.0212333,-0.05859375,0.9462890625,0.26806640625
1748590016.0312328,-0.020751953125,0.966064453125,0.260498046875
1748590016.0412328,-0.01171875,0.98486328125,0.276123046875
1748590016.051232,0.0380859375,0.970703125,0.27197265625
1748590016.061233,0.061279296875,0.996337890625,0.29052734375
1748590016.0712326,0.07177734375,1.003662109375,0.303955078125
1748590016.0812333,0.0439453125,1.0087890625,0.3212890625
1748590016.0912352,0.05615234375,1.007080078125,0.294921875
1748590016.1012328,0.0478515625,0.993896484375,0.273681640625
1748590016.1112318,0.07763671875,0.989990234375,0.25927734375
1748590016.1212327,0.107177734375,0.970947265625,0.266845703125
1748590016.1312323,0.105712890625,0.993408203125,0.275634765625
1748590016.141232,0.05078125,0.99072265625,0.2802734375
1748590016.151233,0.03955078125,1.010986328125,0.314208984375
1748590016.1612234,0.05126953125,1.001220703125,0.35498046875
1748590016.1712327,0.076171875,1.017333984375,0.37060546875
1748590016.1812325,0.072265625,1.0078125,0.353759765625
1748590016.191232,0.0791015625,0.98486328125,0.29345703125
1748590016.2012331,0.046630859375,0.94970703125,0.248046875
1748590016.211233,-0.0029296875,0.947021484375,0.235107421875
1748590016.2212353,-0.033935546875,0.96923828125,0.25439453125
1748590016.2312362,-0.004638671875,1.055419921875,0.3583984375
1748590016.2412343,-0.080078125,1.17041015625,0.4775390625
1748590016.2512355,-0.1875,1.30908203125,0.60986328125
1748590016.261235,-0.220703125,1.3515625,0.66796875
1748590016.2712352,-0.199951171875,1.225830078125,0.68310546875
1748590016.2812355,-0.123046875,0.97998046875,0.5458984375
1748590016.2912343,0.013671875,0.67333984375,0.31640625
1748590016.3012352,0.138427734375,0.52490234375,0.147705078125
1748590016.3112354,0.2197265625,0.545166015625,0.000732421875
1748590016.3213964,0.268310546875,0.6357421875,-0.060791015625
1748590016.3320405,0.36865234375,0.778076171875,-0.022705078125
1748590016.341239,0.391357421875,0.9482421875,0.11767578125
1748590016.3512378,0.39990234375,1.134521484375,0.28955078125
1748590016.3612351,0.364990234375,1.334228515625,0.419189453125
1748590016.371236,0.299560546875,1.389404296875,0.497802734375
1748590016.3812366,0.129150390625,1.2421875,0.489013671875
1748590016.3912356,0.05810546875,1.07568359375,0.412841796875
1748590016.4012408,0.156494140625,0.976806640625,0.356201171875
1748590016.411234,0.281982421875,0.960693359375,0.33740234375
1748590016.4212327,0.294189453125,0.93505859375,0.385498046875
1748590016.431234,0.314697265625,0.929443359375,0.397216796875
1748590016.4412324,0.28564453125,0.91748046875,0.37158203125
1748590016.4511993,0.214111328125,0.900390625,0.30029296875
1748590016.461233,0.094482421875,0.869873046875,0.2236328125
1748590016.4712322,0.14794921875,0.859619140625,0.199951171875
1748590016.4812326,0.249267578125,0.907470703125,0.222412109375
1748590016.4912329,0.321533203125,0.935302734375,0.300048828125
1748590016.5012348,0.357666015625,0.9541015625,0.35400390625
1748590016.5112324,0.357666015625,0.932861328125,0.404296875
1748590016.5212326,0.389892578125,0.9375,0.410888671875
1748590016.5312328,0.3564453125,0.946533203125,0.391357421875
1748590016.5412323,0.37548828125,0.931640625,0.373291015625
1748590016.5512328,0.332763671875,0.92236328125,0.349853515625
1748590016.561232,0.294921875,0.904296875,0.31982421875
1748590016.5712323,0.296630859375,0.877197265625,0.3154296875
1748590016.5812323,0.24169921875,0.875,0.309814453125
1748590016.5912154,0.2060546875,0.87451171875,0.278564453125
1748590016.6012323,0.188232421875,0.8916015625,0.25439453125
1748590016.6112332,0.1572265625,0.88671875,0.239990234375
1748590016.6212325,0.136962890625,0.852783203125,0.27978515625
1748590016.631232,0.10693359375,0.814208984375,0.298583984375
1748590016.6412327,0.12109375,0.82275390625,0.35888671875
1748590016.6512327,0.1279296875,0.847900390625,0.352294921875
1748590016.6612186,0.148193359375,0.870849609375,0.3583984375
1748590016.6712327,0.127197265625,0.8759765625,0.337158203125
1748590016.6812332,0.09521484375,0.87548828125,0.344482421875
1748590016.691232,0.0537109375,0.87353515625,0.33642578125
1748590016.7012324,0.000732421875,0.883056640625,0.34326171875
1748590016.7112324,0.02001953125,0.87548828125,0.329345703125
1748590016.7212327,0.027099609375,0.883056640625,0.33447265625
1748590016.7312322,0.0458984375,0.894287109375,0.35888671875
1748590016.741232,0.087646484375,0.936767578125,0.3583984375
1748590016.7512243,0.142578125,1.00634765625,0.370849609375
1748590016.7612329,0.27392578125,1.147216796875,0.345458984375
1748590016.7712321,0.424072265625,1.2529296875,0.34228515625
1748590016.7812328,0.52783203125,1.24755859375,0.340087890625
1748590016.7912326,0.547607421875,1.15576171875,0.39208984375
1748590016.8012323,0.480224609375,1.06201171875,0.39208984375
1748590016.8112326,0.359619140625,1.02587890625,0.3671875
1748590016.821232,0.283203125,1.041259765625,0.262939453125
1748590016.831233,-0.10595703125,1.046875,0.18505859375
1748590016.8412344,-0.212158203125,1.10595703125,0.101318359375
1748590016.8512325,-0.185791015625,1.155517578125,0.07470703125
1748590016.8612328,-0.114501953125,1.19091796875,0.129638671875
1748590016.8712332,-0.119384765625,1.152099609375,0.176513671875
1748590016.881232,-0.07666015625,1.076416015625,0.181640625
1748590016.8912327,-0.084228515625,0.875,0.220458984375
1748590016.9012325,-0.0849609375,0.90087890625,0.183349609375
1748590016.911224,-0.055419921875,0.96337890625,0.179931640625
1748590016.9212348,-0.10888671875,0.994140625,0.176025390625
1748590016.931233,-0.136474609375,1.016357421875,0.1796875
1748590016.9412322,-0.173095703125,1.065185546875,0.1572265625
1748590016.9512331,-0.16064453125,1.08935546875,0.189697265625
1748590016.9612327,-0.134033203125,1.083251953125,0.210205078125
1748590016.9712324,0.032470703125,1.030517578125,0.21533203125
1748590016.9812243,-0.05908203125,0.962646484375,0.193359375
1748590016.9912322,-0.1484375,0.95556640625,0.123779296875
1748590017.001233,0.014404296875,0.989990234375,0.155029296875
1748590017.0112324,0.03759765625,0.918212890625,0.30859375
1748590017.0212324,0.0263671875,0.902099609375,0.335693359375
1748590017.0312328,0.049072265625,0.909912109375,0.248046875
1748590017.0412323,0.036376953125,0.96728515625,0.18310546875
1748590017.0512333,0.046142578125,1.058349609375,0.172607421875
1748590017.0612328,-0.03076171875,1.074462890625,0.196044921875
1748590017.0712352,-0.072509765625,1.06640625,0.184814453125
1748590017.0812325,-0.06689453125,1.038818359375,0.1728515625
1748590017.0912333,-0.060302734375,0.986572265625,0.18115234375
1748590017.101233,-0.046630859375,0.9462890625,0.201904296875
1748590017.1112332,-0.072509765625,0.950927734375,0.22509765625
1748590017.1212323,-0.06640625,0.9560546875,0.2314453125
1748590017.1312325,-0.075439453125,0.98291015625,0.26123046875
1748590017.1412206,-0.07861328125,1.006591796875,0.262939453125
1748590017.151233,-0.0888671875,1.007568359375,0.265869140625
1748590017.1612325,-0.099609375,1.01171875,0.2470703125
1748590017.1712327,-0.10498046875,0.993896484375,0.232177734375
1748590017.1812322,-0.103271484375,0.973876953125,0.201171875
1748590017.191233,-0.1181640625,0.962158203125,0.2001953125
1748590017.2012315,-0.093994140625,0.955322265625,0.209716796875
1748590017.211232,-0.08740234375,0.967529296875,0.230224609375
1748590017.221235,-0.09228515625,0.96484375,0.24853515625
1748590017.2312322,-0.103271484375,0.995849609375,0.245361328125
1748590017.241233,-0.12353515625,1.00732421875,0.235595703125
1748590017.2512329,-0.140625,0.99560546875,0.24658203125
1748590017.2612324,-0.145751953125,1.019775390625,0.26416015625
1748590017.2712324,-0.13037109375,1.02294921875,0.291015625
1748590017.2812326,-0.1044921875,1.015869140625,0.310791015625
1748590017.2912323,-0.121826171875,1.023193359375,0.301513671875
1748590017.3012328,-0.188720703125,0.99755859375,0.26953125
1748590017.311232,-0.18408203125,0.94970703125,0.255859375
1748590017.3212328,-0.1396484375,0.90673828125,0.24755859375
1748590017.331233,-0.10498046875,0.89892578125,0.253662109375
1748590017.3412328,-0.043212890625,0.898193359375,0.276611328125
1748590017.3512325,-0.011962890625,0.943603515625,0.298583984375
1748590017.3612328,0.002685546875,0.951171875,0.32666015625
1748590017.3712294,0.004150390625,0.9453125,0.33544921875
1748590017.3812327,0.01806640625,0.951171875,0.325439453125
1748590017.3912334,0.041015625,0.976806640625,0.343994140625
1748590017.4012759,0.061279296875,1.00537109375,0.37353515625
1748590017.4112668,0.06640625,1.044189453125,0.414306640625
1748590017.421237,0.091796875,1.08935546875,0.4111328125
1748590017.431235,0.115234375,1.151123046875,0.403076171875
1748590017.4412377,0.1630859375,1.1787109375,0.397216796875
1748590017.4512377,0.227294921875,1.199951171875,0.3818359375
1748590017.461239,0.36865234375,1.1884765625,0.362060546875
1748590017.471243,0.44482421875,1.1357421875,0.35400390625
1748590017.4812367,0.4794921875,1.073486328125,0.3828125
1748590017.4912386,0.444091796875,1.03662109375,0.411865234375
1748590017.501235,0.381103515625,1.0146484375,0.41845703125
1748590017.5112367,0.308349609375,0.98193359375,0.3837890625
1748590017.5212348,0.261962890625,0.915283203125,0.337890625
1748590017.5312357,0.233642578125,0.884033203125,0.287353515625
1748590017.5412352,0.220947265625,0.85986328125,0.24462890625
1748590017.5512345,0.2294921875,0.872314453125,0.232666015625
1748590017.5612342,0.2197265625,0.897216796875,0.224365234375
1748590017.5712345,0.26416015625,0.967529296875,0.213134765625
1748590017.5812352,0.296630859375,1.012451171875,0.2119140625
1748590017.5912344,0.326416015625,1.037109375,0.214599609375
1748590017.6012342,0.338134765625,1.027099609375,0.224365234375
1748590017.611236,0.324462890625,0.9853515625,0.255126953125
1748590017.621235,0.307861328125,0.93115234375,0.2734375
1748590017.631235,0.272216796875,0.873291015625,0.2666015625
1748590017.6412346,0.26123046875,0.8408203125,0.2509765625
1748590017.6512346,0.270263671875,0.833740234375,0.232421875
1748590017.6612346,0.2998046875,0.83642578125,0.229736328125
1748590017.6712344,0.306640625,0.857177734375,0.22900390625
1748590017.6812346,0.31689453125,0.875732421875,0.2236328125
1748590017.6912382,0.314208984375,0.913818359375,0.24560546875
1748590017.7012353,0.2919921875,0.91015625,0.2705078125
1748590017.711237,0.29248046875,0.8974609375,0.29052734375
1748590017.721235,0.288818359375,0.873779296875,0.299560546875
1748590017.731235,0.296630859375,0.87109375,0.287109375
1748590017.7412345,0.277099609375,0.870849609375,0.281982421875
1748590017.7512345,0.263427734375,0.89208984375,0.27685546875
1748590017.7612338,0.2333984375,0.8974609375,0.251708984375
1748590017.7712343,0.136474609375,0.867919921875,0.261474609375
1748590017.781233,0.097900390625,0.84033203125,0.26025390625
1748590017.7912347,0.1044921875,0.858642578125,0.271728515625
1748590017.8012354,0.0966796875,0.881591796875,0.2900390625
1748590017.8112378,0.098876953125,0.96337890625,0.3037109375
1748590017.8212357,0.110595703125,1.03857421875,0.35546875
1748590017.8312345,0.15283203125,1.123779296875,0.39892578125
1748590017.8412337,0.186279296875,1.15478515625,0.46826171875
1748590017.851236,0.20849609375,1.17724609375,0.50244140625
1748590017.8612344,0.252685546875,1.16455078125,0.511474609375
1748590017.8712347,0.237548828125,1.118408203125,0.49658203125
1748590017.8812346,0.207763671875,1.062744140625,0.45166015625
1748590017.8912334,0.167236328125,1.02587890625,0.37451171875
1748590017.9012346,0.127197265625,0.99169921875,0.33837890625
1748590017.9112363,0.0712890625,0.940673828125,0.32275390625
1748590017.921235,0.034912109375,0.91064453125,0.30126953125
1748590017.9312353,0.03564453125,0.88720703125,0.26953125
1748590017.9412382,0.052978515625,0.896728515625,0.245361328125
1748590017.951235,0.05908203125,0.90087890625,0.246826171875
1748590017.9612348,0.033203125,0.907958984375,0.249267578125
1748590017.9712343,-0.024658203125,0.923583984375,0.2373046875
1748590017.9812346,-0.0869140625,0.925048828125,0.2265625
1748590017.991235,-0.20166015625,0.953125,0.1845703125
1748590018.0012343,-0.27001953125,1.01025390625,0.206298828125
1748590018.0112367,-0.294189453125,1.01513671875,0.2158203125
1748590018.0212355,-0.1708984375,1.09619140625,0.247802734375
1748590018.0312343,-0.001708984375,1.1630859375,0.249267578125
1748590018.041233,0.00732421875,1.140869140625,0.267578125
1748590018.051235,-0.020751953125,1.032958984375,0.325439453125
1748590018.0612352,-0.04931640625,0.956787109375,0.271484375
1748590018.0712345,-0.052001953125,0.962158203125,0.21142578125
1748590018.0812345,-0.0419921875,0.99658203125,0.183349609375
1748590018.0912347,-0.05126953125,1.000244140625,0.208251953125
1748590018.1012335,-0.0712890625,1.02001953125,0.232421875
1748590018.1112359,-0.093505859375,1.01904296875,0.2373046875
1748590018.1212347,-0.113525390625,1.0234375,0.244873046875
1748590018.1312351,-0.12109375,1.021240234375,0.26806640625
1748590018.1412344,-0.08154296875,0.995849609375,0.278076171875
1748590018.1512341,-0.0654296875,0.994140625,0.281982421875
1748590018.1612341,-0.03857421875,0.989013671875,0.294921875
1748590018.1712391,-0.026611328125,0.96923828125,0.298095703125
1748590018.181235,-0.0263671875,0.948486328125,0.30615234375
1748590018.191234,-0.02587890625,0.93701171875,0.292724609375
1748590018.2012339,-0.036376953125,0.931396484375,0.28369140625
1748590018.2112355,-0.052001953125,0.94970703125,0.27685546875
1748590018.2212346,-0.062255859375,0.95703125,0.28955078125
1748590018.231235,-0.06396484375,0.938232421875,0.2978515625
1748590018.241234,-0.068115234375,0.970458984375,0.28759765625
1748590018.251235,-0.0654296875,0.998046875,0.281494140625
1748590018.261235,-0.06298828125,0.996337890625,0.304443359375
1748590018.271235,-0.081787109375,0.973388671875,0.30078125
1748590018.2812343,-0.087890625,0.96142578125,0.2744140625
1748590018.291234,-0.08935546875,0.9404296875,0.2744140625
1748590018.301236,-0.08154296875,0.948486328125,0.27734375
1748590018.3112369,-0.070068359375,0.9775390625,0.2705078125
1748590018.321236,-0.070556640625,0.97705078125,0.30078125
1748590018.3312356,-0.054931640625,1.009765625,0.282470703125
1748590018.3412344,-0.063720703125,1.01416015625,0.290771484375
1748590018.3512354,-0.075927734375,1.007080078125,0.28076171875
1748590018.3612344,-0.0751953125,1.004638671875,0.274169921875
1748590018.3712382,-0.08642578125,1.011962890625,0.276123046875
1748590018.3812437,-0.086669921875,0.98681640625,0.284912109375
1748590018.3912344,-0.096923828125,0.984619140625,0.311279296875
1748590018.4011893,-0.08544921875,0.95556640625,0.287841796875
1748590018.4112444,-0.084228515625,0.944580078125,0.277099609375
1748590018.421241,-0.089599609375,0.95458984375,0.295654296875
1748590018.4312365,-0.107666015625,0.96240234375,0.3017578125
1748590018.4412374,-0.105224609375,0.95556640625,0.30126953125
1748590018.451235,-0.1005859375,0.930419921875,0.283935546875
1748590018.461235,-0.095703125,0.915771484375,0.2763671875
1748590018.4712353,-0.101806640625,0.92041015625,0.23974609375
1748590018.481237,-0.108154296875,0.916748046875,0.258544921875
1748590018.4912727,-0.11474609375,0.926025390625,0.2626953125
1748590018.5012362,-0.137451171875,0.929931640625,0.26025390625
1748590018.5112348,-0.13623046875,0.926025390625,0.25341796875
1748590018.521235,-0.11962890625,0.92626953125,0.2568359375
1748590018.5312345,-0.1015625,0.931884765625,0.261962890625
1748590018.5412352,-0.084228515625,0.95166015625,0.255859375
1748590018.5512345,-0.066650390625,0.986328125,0.26123046875
1748590018.5612342,-0.060546875,0.992919921875,0.277587890625
1748590018.5712345,-0.03271484375,0.98291015625,0.264404296875
1748590018.581235,-0.0146484375,0.9833984375,0.262451171875
1748590018.5912344,0.01611328125,0.975830078125,0.260009765625
1748590018.601235,0.05517578125,1.00341796875,0.292236328125
1748590018.6112347,0.07470703125,1.0419921875,0.333251953125
1748590018.6212351,0.0927734375,1.090087890625,0.34375
1748590018.6312346,0.07470703125,1.100830078125,0.387939453125
1748590018.6412356,0.071533203125,1.080322265625,0.385498046875
1748590018.6512353,0.056884765625,1.099609375,0.386962890625
1748590018.6612344,0.08642578125,1.0908203125,0.40771484375
1748590018.671235,0.092041015625,1.06591796875,0.433349609375
1748590018.6812344,0.061767578125,1.0234375,0.425537109375
1748590018.6912344,0.041748046875,0.982177734375,0.376708984375
1748590018.7012348,0.02490234375,0.966064453125,0.34765625
1748590018.7112367,0.050048828125,0.961181640625,0.345458984375
1748590018.7212346,0.08544921875,0.989501953125,0.3447265625
1748590018.7312346,0.138671875,0.995361328125,0.370849609375
1748590018.7412343,0.17236328125,0.98828125,0.36572265625
1748590018.7512355,0.200439453125,0.99853515625,0.360595703125
1748590018.761235,0.22607421875,1.007568359375,0.35400390625
1748590018.7712348,0.2705078125,0.99365234375,0.344970703125
1748590018.7812343,0.283203125,0.986328125,0.34228515625
1748590018.7912352,0.2919921875,0.979248046875,0.345458984375
1748590018.801237,0.294921875,0.96435546875,0.316162109375
1748590018.811235,0.299560546875,0.962646484375,0.310791015625
1748590018.8212347,0.327392578125,0.954833984375,0.30615234375
1748590018.8312347,0.31689453125,0.938232421875,0.30712890625
1748590018.8412347,0.317138671875,0.93212890625,0.3203125
1748590018.851234,0.3115234375,0.912353515625,0.32421875
