Time,AccX,AccY,AccZ,GyroX,GyroY,GyroZ
1748589374.5047748,0.093017578125,0.89794921875,0.41943359375,0.9236641221374046,16.129770992366414,2.900763358778626
1748589374.514831,0.1025390625,0.89794921875,0.417724609375,-0.7175572519083969,15.51908396946565,2.5877862595419847
1748589374.5248308,0.1123046875,0.9111328125,0.419921875,-1.2442748091603053,14.297709923664122,2.2977099236641223
1748589374.534835,0.116943359375,0.907470703125,0.425537109375,-1.5038167938931297,13.022900763358779,2.045801526717557
1748589374.5448296,0.122802734375,0.925537109375,0.448974609375,-1.8396946564885497,12.061068702290076,1.3435114503816794
1748589374.5548368,0.118408203125,0.923828125,0.427490234375,-2.015267175572519,11.381679389312977,1.0
1748589374.564834,0.1201171875,0.91748046875,0.428955078125,-2.7480916030534353,11.13740458015267,0.2824427480916031
1748589374.574836,0.115234375,0.9208984375,0.427001953125,-2.885496183206107,10.145038167938932,0.030534351145038167
1748589374.5848303,0.099365234375,0.919921875,0.42041015625,-3.5877862595419847,9.610687022900763,-0.7862595419847328
1748589374.5948298,0.11279296875,0.928955078125,0.416748046875,-3.6564885496183206,8.916030534351146,-1.3893129770992367
1748589374.6048293,0.099365234375,0.920166015625,0.435791015625,-4.068702290076335,8.641221374045802,-1.8473282442748091
1748589374.6148283,0.10546875,0.931396484375,0.43994140625,-4.083969465648855,9.763358778625955,-3.8702290076335877
1748589374.624828,0.10009765625,0.9501953125,0.44677734375,-4.412213740458015,7.580152671755725,-0.05343511450381679
1748589374.6348283,0.087890625,0.945068359375,0.4443359375,-3.564885496183206,7.877862595419847,-1.83206106870229
1748589374.6448286,0.089111328125,0.9462890625,0.456298828125,-2.6946564885496183,8.030534351145038,-1.4351145038167938
1748589374.6548293,0.087646484375,0.939208984375,0.44091796875,-2.5572519083969465,8.15267175572519,-1.297709923664122
1748589374.6648288,0.095947265625,0.931396484375,0.43310546875,-2.687022900763359,7.793893129770993,-0.9770992366412213
1748589374.6748295,0.0908203125,0.927001953125,0.43310546875,-2.33587786259542,7.541984732824427,-1.0381679389312977
1748589374.6848288,0.091064453125,0.935791015625,0.4326171875,-2.1755725190839694,7.366412213740458,-0.7709923664122137
1748589374.6948283,0.09033203125,0.94482421875,0.450439453125,-2.4580152671755724,6.8320610687022905,-0.5419847328244275
1748589374.7048297,0.0869140625,0.94384765625,0.44873046875,-1.5801526717557253,6.427480916030534,-0.08396946564885496
1748589374.7148294,0.087158203125,0.9501953125,0.442138671875,-1.1603053435114503,7.809160305343512,0.12213740458015267
1748589374.72483,0.0849609375,0.946044921875,0.450439453125,-1.3893129770992367,6.0534351145038165,0.3893129770992366
1748589374.7348292,0.09326171875,0.935302734375,0.4501953125,-0.7938931297709924,6.343511450381679,0.5419847328244275
1748589374.74483,0.09765625,0.927001953125,0.448974609375,-0.6412213740458015,6.519083969465649,0.29770992366412213
1748589374.7548313,0.10986328125,0.93603515625,0.445068359375,-0.7099236641221374,6.694656488549619,0.366412213740458
1748589374.7648296,0.10205078125,0.93408203125,0.44189453125,-0.44274809160305345,6.717557251908397,0.35877862595419846
1748589374.7748291,0.108154296875,0.927001953125,0.434814453125,0.2366412213740458,6.229007633587786,0.732824427480916
1748589374.7848294,0.099609375,0.94580078125,0.439208984375,0.916030534351145,5.32824427480916,0.9923664122137404
1748589374.7948294,0.085205078125,0.9482421875,0.466064453125,1.1755725190839694,4.549618320610687,1.4427480916030535
1748589374.8048296,0.091064453125,0.947998046875,0.451416015625,1.4045801526717556,4.106870229007634,2.0610687022900764
1748589374.8148296,0.0947265625,0.9443359375,0.442138671875,2.5572519083969465,3.9083969465648853,2.2977099236641223
1748589374.8248293,0.083251953125,0.937255859375,0.439208984375,3.0839694656488548,4.015267175572519,2.068702290076336
1748589374.8348286,0.105224609375,0.93212890625,0.439453125,2.4580152671755724,4.137404580152672,1.7251908396946565
1748589374.8448298,0.100341796875,0.93408203125,0.434326171875,1.7786259541984732,4.175572519083969,1.2671755725190839
1748589374.8548303,0.1015625,0.935546875,0.40869140625,1.8091603053435115,3.9618320610687023,0.8091603053435115
1748589374.8648295,0.106689453125,0.93310546875,0.432861328125,0.7251908396946565,3.3053435114503817,0.5801526717557252
1748589374.8748288,0.103515625,0.93896484375,0.431396484375,0.25190839694656486,2.66412213740458,0.183206106870229
1748589374.8848298,0.114013671875,0.94091796875,0.448974609375,-1.4351145038167938,1.3282442748091603,-0.08396946564885496
1748589374.89483,0.113037109375,0.94970703125,0.453125,-1.3969465648854962,0.48091603053435117,-0.15267175572519084
1748589374.9048297,0.09765625,0.96875,0.456298828125,-0.45038167938931295,0.4732824427480916,-0.183206106870229
1748589374.9148302,0.117431640625,0.942626953125,0.461669921875,0.2366412213740458,0.3282442748091603,-0.3435114503816794
1748589374.9248295,0.103515625,0.934326171875,0.452880859375,-0.7786259541984732,0.8473282442748091,-0.7251908396946565
1748589374.9348302,0.104736328125,0.93505859375,0.4326171875,-0.6335877862595419,0.7633587786259542,-0.9541984732824428
1748589374.9448297,0.099609375,0.931640625,0.434814453125,-0.7251908396946565,1.0,-1.0381679389312977
1748589374.9548283,0.096923828125,0.92578125,0.429443359375,0.06870229007633588,0.9236641221374046,-0.8015267175572519
1748589374.9648297,0.104736328125,0.920654296875,0.43017578125,-0.08396946564885496,1.3282442748091603,-0.7480916030534351
1748589374.9748304,0.096435546875,0.936279296875,0.4365234375,-0.030534351145038167,1.7938931297709924,-0.5114503816793893
1748589374.9848285,0.089111328125,0.927001953125,0.43115234375,-0.5801526717557252,2.0610687022900764,0.183206106870229
1748589374.994831,0.088134765625,0.929931640625,0.436767578125,-0.7862595419847328,1.916030534351145,0.35877862595419846
1748589375.0048294,0.085693359375,0.932861328125,0.435791015625,0.07633587786259542,2.5877862595419847,0.46564885496183206
1748589375.0148308,0.086181640625,0.930908203125,0.425537109375,-0.26717557251908397,3.282442748091603,0.8396946564885496
1748589375.0248294,0.08740234375,0.927734375,0.42431640625,-1.450381679389313,3.4198473282442747,0.6335877862595419
1748589375.034829,0.093994140625,0.93505859375,0.427978515625,-1.8854961832061068,3.7938931297709924,0.6946564885496184
1748589375.044829,0.091796875,0.93408203125,0.426025390625,-2.045801526717557,1.984732824427481,0.7175572519083969
1748589375.0548303,0.093017578125,0.94921875,0.42578125,-2.3969465648854964,4.1603053435114505,0.5801526717557252
1748589375.0648289,0.088134765625,0.92724609375,0.432373046875,-2.3893129770992365,4.633587786259542,0.44274809160305345
1748589375.0748303,0.079345703125,0.94091796875,0.431396484375,-3.045801526717557,5.145038167938932,0.29770992366412213
1748589375.08483,0.076171875,0.944580078125,0.419677734375,-2.885496183206107,5.412213740458015,0.6183206106870229
1748589375.0948288,0.086181640625,0.932373046875,0.42724609375,-3.2748091603053435,5.595419847328245,0.6717557251908397
1748589375.10483,0.086181640625,0.942626953125,0.434326171875,-3.2442748091603053,5.580152671755725,0.8625954198473282
1748589375.11483,0.088623046875,0.93896484375,0.443115234375,-2.984732824427481,5.99236641221374,0.8549618320610687
1748589375.1248295,0.0859375,0.93798828125,0.439697265625,-2.633587786259542,5.900763358778626,0.8549618320610687
1748589375.13483,0.089599609375,0.94091796875,0.44189453125,-2.3587786259541983,5.786259541984733,1.0381679389312977
1748589375.144829,0.094970703125,0.93359375,0.435791015625,-2.50381679389313,5.870229007633588,1.2061068702290076
1748589375.1548293,0.0927734375,0.93994140625,0.435302734375,-2.49618320610687,5.595419847328245,1.083969465648855
1748589375.1648293,0.07861328125,0.932861328125,0.4384765625,-2.2061068702290076,5.625954198473282,1.2900763358778626
1748589375.1748304,0.10888671875,0.93994140625,0.431884765625,-2.1068702290076335,5.282442748091603,1.2748091603053435
1748589375.1848297,0.10888671875,0.947509765625,0.451416015625,-1.8702290076335877,4.847328244274809,1.4732824427480915
1748589375.1948287,0.102294921875,0.95068359375,0.4423828125,-1.4427480916030535,4.732824427480916,1.4122137404580153
1748589375.2048297,0.100341796875,0.95263671875,0.43701171875,-0.6412213740458015,4.229007633587786,1.4732824427480915
1748589375.2148294,0.10009765625,0.96044921875,0.4365234375,0.11450381679389313,3.9236641221374047,1.4732824427480915
1748589375.2248292,0.099853515625,0.955810546875,0.44775390625,0.1984732824427481,3.49618320610687,0.8702290076335878
1748589375.2348297,0.123046875,0.937744140625,0.432373046875,0.7709923664122137,3.0839694656488548,0.4198473282442748
1748589375.2448297,0.1123046875,0.9384765625,0.44580078125,1.2671755725190839,2.282442748091603,0.0916030534351145
1748589375.2548306,0.114990234375,0.940185546875,0.427490234375,1.0076335877862594,2.045801526717557,-0.6030534351145038
1748589375.2648299,0.11328125,0.9453125,0.426513671875,1.0458015267175573,0.0916030534351145,-1.1145038167938932
1748589375.2748284,0.119873046875,0.9384765625,0.44287109375,1.1297709923664123,1.251908396946565,-1.3969465648854962
1748589375.2848296,0.121337890625,0.938232421875,0.433837890625,0.6793893129770993,0.2595419847328244,-1.9312977099236641
1748589375.2948306,0.098876953125,0.9375,0.434814453125,0.5114503816793893,-0.13740458015267176,-2.1526717557251906
1748589375.3048303,0.102783203125,0.9375,0.44384765625,0.3893129770992366,-0.6030534351145038,-2.1908396946564888
1748589375.314829,0.0791015625,0.9384765625,0.42431640625,0.7175572519083969,-0.9770992366412213,-2.1908396946564888
1748589375.324829,0.09765625,0.9609375,0.441650390625,0.6412213740458015,-1.717557251908397,-2.0381679389312977
1748589375.3348303,0.09716796875,0.958984375,0.440673828125,1.618320610687023,-2.0,-2.0916030534351147
1748589375.344829,0.10302734375,0.948486328125,0.439697265625,1.984732824427481,-2.0916030534351147,-2.16793893129771
1748589375.35483,0.107177734375,0.931396484375,0.43798828125,2.7709923664122136,-1.6946564885496183,-2.2290076335877864
1748589375.3648293,0.101318359375,0.91845703125,0.435791015625,2.198473282442748,-1.6259541984732824,-2.595419847328244
1748589375.37483,0.0986328125,0.934814453125,0.433349609375,0.7404580152671756,-2.4427480916030535,-3.267175572519084
1748589375.3848295,0.09521484375,0.940185546875,0.42919921875,0.6183206106870229,-2.8244274809160306,-3.4122137404580153
1748589375.3948305,0.092041015625,0.9462890625,0.424072265625,0.9465648854961832,-3.5267175572519083,-3.480916030534351
1748589375.4048297,0.092041015625,0.945556640625,0.439697265625,0.6870229007633588,-4.6183206106870225,-3.312977099236641
1748589375.4148307,0.08984375,0.960693359375,0.446533203125,1.2213740458015268,-5.290076335877862,-3.3206106870229006
1748589375.4248295,0.090576171875,0.947509765625,0.44482421875,1.83206106870229,-5.435114503816794,-3.480916030534351
1748589375.4348307,0.1015625,0.937744140625,0.442626953125,2.1297709923664123,-5.465648854961832,-3.6946564885496183
1748589375.4448292,0.1025390625,0.9296875,0.431884765625,1.984732824427481,-5.488549618320611,-3.9083969465648853
1748589375.4548311,0.08984375,0.935791015625,0.436767578125,1.7099236641221374,-6.114503816793893,-4.091603053435114
1748589375.4648306,0.09033203125,0.9375,0.427001953125,1.534351145038168,-6.633587786259542,-4.267175572519084
1748589375.4748292,0.089111328125,0.934814453125,0.437255859375,1.7633587786259541,-7.541984732824427,-4.435114503816794
1748589375.4848294,0.089599609375,0.939208984375,0.433837890625,2.122137404580153,-7.916030534351145,-4.541984732824427
1748589375.4948287,0.08935546875,0.940185546875,0.428955078125,3.885496183206107,-8.67175572519084,-4.8320610687022905
1748589375.504835,0.091552734375,0.94189453125,0.4296875,1.916030534351145,-9.320610687022901,-4.709923664122138
1748589375.5148368,0.08642578125,0.946044921875,0.42724609375,1.9618320610687023,-9.65648854961832,-4.6106870229007635
1748589375.5248365,0.0810546875,0.952392578125,0.4306640625,2.16793893129771,-10.17557251908397,-4.465648854961832
1748589375.534833,0.076904296875,0.95068359375,0.442626953125,2.50381679389313,-10.564885496183207,-3.9618320610687023
1748589375.544845,0.072265625,0.9501953125,0.4375,3.0763358778625953,-10.664122137404581,-3.7786259541984735
1748589375.5548327,0.07421875,0.944091796875,0.447021484375,3.519083969465649,-10.51908396946565,-3.7480916030534353
1748589375.5648303,0.06640625,0.9375,0.45703125,3.7404580152671754,-10.114503816793894,-4.0458015267175576
1748589375.5748324,0.066650390625,0.929443359375,0.44921875,3.9770992366412212,-9.893129770992367,-4.137404580152672
1748589375.5848324,0.07177734375,0.92578125,0.464599609375,3.5801526717557253,-9.305343511450381,-4.396946564885496
1748589375.5948339,0.0703125,0.92333984375,0.45654296875,3.5801526717557253,-8.816793893129772,-4.763358778625954
1748589375.6048281,0.067138671875,0.923095703125,0.444580078125,3.2900763358778624,-8.282442748091603,-4.3893129770992365
1748589375.6148286,0.068115234375,0.922119140625,0.448974609375,3.2213740458015265,-8.13740458015267,-4.2748091603053435
1748589375.6248286,0.06689453125,0.927978515625,0.45458984375,3.099236641221374,-8.0,-4.106870229007634
1748589375.6348274,0.065673828125,0.93017578125,0.445556640625,3.0229007633587788,-7.694656488549619,-3.3893129770992365
1748589375.644826,0.046875,0.935302734375,0.449951171875,2.6564885496183206,-7.6183206106870225,-2.732824427480916
1748589375.6548266,0.052734375,0.941650390625,0.45556640625,2.7404580152671754,-7.229007633587786,-2.1297709923664123
1748589375.6648266,0.059326171875,0.94140625,0.46728515625,2.8091603053435112,-7.114503816793893,-1.1221374045801527
1748589375.6748264,0.0537109375,0.939697265625,0.46044921875,3.732824427480916,-6.587786259541985,-0.29770992366412213
1748589375.6848264,0.05078125,0.93408203125,0.459716796875,4.702290076335878,-5.526717557251908,0.17557251908396945
1748589375.6948261,0.0546875,0.930419921875,0.467529296875,4.984732824427481,-4.526717557251908,0.7938931297709924
1748589375.7048278,0.05810546875,0.92626953125,0.468505859375,5.2748091603053435,-3.6946564885496183,1.297709923664122
1748589375.7148323,0.048828125,0.932861328125,0.45849609375,5.183206106870229,-2.8396946564885495,1.2595419847328244
1748589375.7248268,0.0654296875,0.930908203125,0.462890625,5.396946564885496,-2.1374045801526718,1.4045801526717556
1748589375.7348273,0.068115234375,0.935791015625,0.455810546875,5.3893129770992365,-2.1297709923664123,1.83206106870229
1748589375.7448268,0.06689453125,0.93359375,0.468994140625,5.473282442748092,-1.5725190839694656,2.0381679389312977
1748589375.7548294,0.06884765625,0.93701171875,0.469482421875,5.557251908396947,-1.083969465648855,2.2595419847328246
1748589375.7648299,0.067626953125,0.927734375,0.461181640625,5.9465648854961835,-0.31297709923664124,2.2748091603053435
1748589375.7748296,0.06396484375,0.91650390625,0.475830078125,5.969465648854962,0.15267175572519084,2.633587786259542
1748589375.7848287,0.072265625,0.91064453125,0.45751953125,5.694656488549619,0.6030534351145038,2.7022900763358777
1748589375.79483,0.071533203125,0.893310546875,0.463623046875,5.259541984732825,0.9541984732824428,3.045801526717557
1748589375.80483,0.060302734375,0.907958984375,0.477294921875,4.755725190839694,1.1374045801526718,3.2519083969465647
1748589375.8148308,0.066650390625,0.91259765625,0.47021484375,4.656488549618321,1.5038167938931297,3.5877862595419847
1748589375.8248296,0.0654296875,0.927978515625,0.486328125,4.4961832061068705,1.8015267175572518,4.1603053435114505
1748589375.8348296,0.068115234375,0.925048828125,0.486083984375,4.67175572519084,2.381679389312977,4.3893129770992365
1748589375.8448298,0.06103515625,0.925537109375,0.4853515625,5.015267175572519,3.633587786259542,4.572519083969466
1748589375.8548293,0.060791015625,0.908203125,0.48876953125,5.137404580152672,5.8396946564885495,4.732824427480916
1748589375.8648295,0.0556640625,0.91455078125,0.48974609375,5.083969465648855,4.66412213740458,5.030534351145038
1748589375.8748288,0.060302734375,0.921630859375,0.488525390625,4.8320610687022905,5.00763358778626,4.938931297709924
1748589375.8848293,0.06201171875,0.90478515625,0.4931640625,4.8396946564885495,4.984732824427481,4.931297709923665
1748589375.8948305,0.06005859375,0.9033203125,0.4873046875,4.343511450381679,5.32824427480916,4.687022900763359
1748589375.9048312,0.070068359375,0.903564453125,0.487060546875,3.6564885496183206,5.290076335877862,4.648854961832061
1748589375.914831,0.07275390625,0.905029296875,0.468994140625,3.5877862595419847,5.190839694656488,4.587786259541985
1748589375.9248295,0.055908203125,0.89794921875,0.48828125,3.519083969465649,4.198473282442748,4.984732824427481
1748589375.9348302,0.079345703125,0.91162109375,0.49609375,3.030534351145038,4.755725190839694,4.603053435114504
1748589375.94483,0.08349609375,0.907958984375,0.50244140625,2.8396946564885495,3.549618320610687,4.1679389312977095
1748589375.954829,0.07177734375,0.916748046875,0.5029296875,3.801526717557252,4.0458015267175576,4.374045801526718
1748589375.9648294,0.072509765625,0.899169921875,0.51416015625,3.9770992366412212,3.564885496183206,4.419847328244275
1748589375.9748313,0.076416015625,0.909912109375,0.50439453125,4.625954198473282,3.687022900763359,5.8396946564885495
1748589375.98483,0.058349609375,0.912841796875,0.500244140625,4.862595419847328,1.984732824427481,3.5343511450381677
1748589375.9948308,0.0517578125,0.90869140625,0.486328125,4.816793893129771,3.7709923664122136,3.404580152671756
1748589376.004831,0.0390625,0.91357421875,0.48779296875,4.786259541984733,2.9923664122137406,3.2442748091603053
1748589376.0148294,0.036865234375,0.906494140625,0.486083984375,4.083969465648855,1.549618320610687,2.66412213740458
1748589376.0248334,0.044921875,0.911376953125,0.475341796875,2.427480916030534,0.2366412213740458,3.801526717557252
1748589376.0348303,0.048095703125,0.91552734375,0.47216796875,0.4351145038167939,-0.8854961832061069,1.1297709923664123
1748589376.0448298,0.054443359375,0.9189453125,0.482666015625,-1.2900763358778626,-1.1603053435114503,0.1450381679389313
1748589376.0548344,0.05908203125,0.91943359375,0.484619140625,-1.6412213740458015,-1.2442748091603053,-0.648854961832061
1748589376.0648308,0.07177734375,0.92138671875,0.4873046875,-1.6412213740458015,-1.6030534351145038,-1.213740458015267
1748589376.0748308,0.058349609375,0.916259765625,0.4951171875,-0.8549618320610687,-2.1908396946564888,-1.3893129770992367
1748589376.0848296,0.05419921875,0.908935546875,0.491943359375,-0.1450381679389313,-2.5419847328244276,-1.4198473282442747
1748589376.0948303,0.04541015625,0.898193359375,0.494873046875,-0.05343511450381679,-2.6793893129770994,-1.3893129770992367
1748589376.104831,0.035888671875,0.899169921875,0.48779296875,-0.12213740458015267,-2.885496183206107,-0.8625954198473282
1748589376.1148305,0.0283203125,0.89892578125,0.480712890625,-0.5572519083969466,-2.6793893129770994,-0.7175572519083969
1748589376.1248288,0.023681640625,0.896240234375,0.490234375,-0.6870229007633588,-2.549618320610687,-0.3282442748091603
1748589376.1348307,0.025634765625,0.895751953125,0.488525390625,-1.099236641221374,-2.435114503816794,-0.061068702290076333
1748589376.1448305,0.03076171875,0.899169921875,0.486328125,-2.053435114503817,-2.595419847328244,0.4580152671755725
1748589376.1548328,0.02783203125,0.91455078125,0.480712890625,-2.6946564885496183,-2.2595419847328246,0.5648854961832062
1748589376.1648293,0.02978515625,0.918212890625,0.484375,-2.8473282442748094,-1.3969465648854962,0.5954198473282443
1748589376.1748307,0.0458984375,0.925537109375,0.492919921875,-3.0381679389312977,-1.1374045801526718,0.6030534351145038
1748589376.1848292,0.045166015625,0.92578125,0.509765625,-2.3282442748091605,-0.5343511450381679,0.5954198473282443
1748589376.194829,0.033447265625,0.929443359375,0.503173828125,-0.9083969465648855,-0.022900763358778626,0.7404580152671756
1748589376.2048306,0.034912109375,0.923828125,0.51025390625,0.48091603053435117,0.8015267175572519,0.8320610687022901
1748589376.214833,0.059814453125,0.91552734375,0.50439453125,0.26717557251908397,1.099236641221374,0.5725190839694656
1748589376.2248306,0.054443359375,0.91015625,0.500732421875,-0.4580152671755725,1.16793893129771,0.4122137404580153
1748589376.2348292,0.0654296875,0.892822265625,0.48583984375,-0.5954198473282443,1.465648854961832,0.7633587786259542
1748589376.2448294,0.030029296875,0.888671875,0.49951171875,-0.7938931297709924,1.7938931297709924,1.7251908396946565
1748589376.2548301,-0.038330078125,0.874267578125,0.486083984375,-0.4732824427480916,-0.5648854961832062,4.793893129770993
1748589376.2648296,-0.024169921875,0.881591796875,0.505615234375,3.0229007633587788,4.4961832061068705,6.0
1748589376.2748303,0.05859375,0.883056640625,0.52734375,0.20610687022900764,5.297709923664122,6.267175572519084
1748589376.284829,0.10693359375,0.933837890625,0.53369140625,-1.251908396946565,7.0,5.755725190839694
1748589376.294829,0.09375,0.94482421875,0.523193359375,-1.8854961832061068,5.893129770992366,4.221374045801527
1748589376.3048458,0.08642578125,0.95556640625,0.4873046875,0.32061068702290074,3.6259541984732824,2.1068702290076335
1748589376.3148313,0.093505859375,0.933349609375,0.468994140625,-0.45038167938931295,2.519083969465649,0.15267175572519084
1748589376.3248303,0.083740234375,0.90771484375,0.4970703125,-0.9770992366412213,1.816793893129771,-0.7786259541984732
1748589376.334831,0.054443359375,0.903076171875,0.515869140625,-1.1526717557251909,1.4580152671755726,-0.8625954198473282
1748589376.3448298,0.0439453125,0.911865234375,0.51220703125,0.12213740458015267,1.0687022900763359,-0.09923664122137404
1748589376.3548293,0.036376953125,0.87890625,0.51025390625,1.4122137404580153,1.9312977099236641,1.83206106870229
1748589376.3648293,0.079833984375,0.847412109375,0.5126953125,0.8778625954198473,1.1145038167938932,2.5343511450381677
1748589376.3748293,0.07470703125,0.87158203125,0.494384765625,-2.8473282442748094,-0.549618320610687,2.564885496183206
1748589376.3848305,0.0341796875,0.931640625,0.4716796875,-4.267175572519084,-2.045801526717557,1.1221374045801527
1748589376.3948307,0.083251953125,0.95654296875,0.495361328125,-3.7709923664122136,0.31297709923664124,-0.8244274809160306
1748589376.4048297,0.064208984375,0.929443359375,0.54296875,-3.1908396946564888,0.33587786259541985,-1.8625954198473282
1748589376.4148295,0.061279296875,0.91845703125,0.532470703125,0.2366412213740458,1.465648854961832,-2.4580152671755724
1748589376.4248292,0.06494140625,0.9169921875,0.5029296875,1.9083969465648856,0.8702290076335878,-2.5572519083969465
1748589376.434831,0.0830078125,0.92822265625,0.477294921875,3.3282442748091605,0.366412213740458,-3.068702290076336
1748589376.4448297,0.0732421875,0.91796875,0.45458984375,2.2900763358778624,-1.0381679389312977,-2.9236641221374047
1748589376.4548304,0.045166015625,0.899169921875,0.459228515625,-0.06870229007633588,-3.4885496183206106,-2.4580152671755724
1748589376.4648297,0.01416015625,0.885009765625,0.476806640625,-3.3053435114503817,-3.9389312977099236,-1.618320610687023
1748589376.4748344,0.017822265625,0.901611328125,0.494384765625,-4.32824427480916,-2.7022900763358777,-0.6564885496183206
1748589376.4848309,0.033935546875,0.924072265625,0.51904296875,-3.854961832061069,-0.4961832061068702,0.35877862595419846
1748589376.4948313,0.038818359375,0.926513671875,0.53369140625,0.21374045801526717,0.6412213740458015,0.7633587786259542
1748589376.5048306,0.030517578125,0.919921875,0.506591796875,0.16030534351145037,0.5801526717557252,0.7251908396946565
1748589376.5148323,0.021484375,0.913330078125,0.478515625,-0.9541984732824428,0.45038167938931295,-0.16030534351145037
1748589376.524837,0.02392578125,0.907470703125,0.46240234375,-2.2061068702290076,0.6946564885496184,-0.16793893129770993
1748589376.5348372,0.00830078125,0.909912109375,0.487060546875,-1.5419847328244274,2.015267175572519,-0.04580152671755725
1748589376.5448432,0.01513671875,0.912109375,0.51318359375,0.12213740458015267,3.3206106870229006,0.1297709923664122
1748589376.5548341,0.017333984375,0.89990234375,0.49658203125,0.6259541984732825,4.076335877862595,0.5725190839694656
1748589376.564834,0.004638671875,0.8955078125,0.487060546875,-1.9083969465648856,4.534351145038168,0.6335877862595419
1748589376.574831,0.01708984375,0.892333984375,0.477783203125,-1.8549618320610688,5.183206106870229,1.9083969465648856
1748589376.584832,0.0263671875,0.908203125,0.4755859375,-4.083969465648855,5.3893129770992365,-0.19083969465648856
1748589376.59483,0.03662109375,0.921875,0.472412109375,-4.938931297709924,5.816793893129771,-0.42748091603053434
1748589376.6048322,0.03759765625,0.931884765625,0.49658203125,-4.465648854961832,6.374045801526718,-0.4732824427480916
1748589376.6148295,0.037841796875,0.937255859375,0.501220703125,-3.5343511450381677,6.3893129770992365,-0.2748091603053435
1748589376.6248295,0.04541015625,0.930908203125,0.50732421875,-2.183206106870229,6.984732824427481,0.0916030534351145
1748589376.634829,0.043212890625,0.917236328125,0.48876953125,-1.6488549618320612,6.931297709923665,0.6030534351145038
1748589376.6448295,0.0361328125,0.913330078125,0.493408203125,-1.1297709923664123,7.137404580152672,0.9389312977099237
1748589376.6548295,0.03369140625,0.908203125,0.484375,-1.1297709923664123,7.625954198473282,1.3282442748091603
1748589376.664829,0.02734375,0.9111328125,0.51171875,-0.5572519083969466,7.122137404580153,1.1374045801526718
1748589376.6748283,0.0322265625,0.921142578125,0.484130859375,-0.9618320610687023,6.396946564885496,0.35877862595419846
1748589376.684829,0.040283203125,0.918212890625,0.49169921875,-1.7709923664122138,5.786259541984733,-0.1297709923664122
1748589376.6948297,0.036376953125,0.922607421875,0.48291015625,-1.8015267175572518,5.114503816793893,-0.33587786259541985
1748589376.7048287,0.041259765625,0.925537109375,0.485107421875,-1.4732824427480915,4.061068702290076,-0.9847328244274809
1748589376.7148297,0.047607421875,0.93115234375,0.47900390625,-1.7786259541984732,3.717557251908397,-1.6641221374045803
1748589376.7248292,0.021240234375,0.915771484375,0.48095703125,-1.4580152671755726,3.015267175572519,-1.5954198473282444
1748589376.7348301,0.099853515625,0.9345703125,0.482421875,-2.2977099236641223,4.603053435114504,-3.404580152671756
1748589376.7448301,0.042724609375,0.888671875,0.503662109375,-3.015267175572519,4.129770992366412,-1.9694656488549618
1748589376.7548292,0.02294921875,0.900634765625,0.488525390625,-1.7786259541984732,3.366412213740458,-1.7328244274809161
1748589376.76483,0.052001953125,0.90966796875,0.494384765625,-1.183206106870229,2.8244274809160306,-1.0534351145038168
1748589376.7748294,0.02197265625,0.909423828125,0.47998046875,-1.2748091603053435,2.0229007633587788,-0.5572519083969466
1748589376.7848291,0.0302734375,0.90576171875,0.49365234375,-2.4885496183206106,1.8015267175572518,-0.5648854961832062
1748589376.7948294,0.02978515625,0.904296875,0.51318359375,-4.106870229007634,2.6946564885496183,-0.916030534351145
1748589376.8048291,0.0341796875,0.908935546875,0.504638671875,-3.16793893129771,3.5572519083969465,-1.0305343511450382
1748589376.81483,0.02978515625,0.923095703125,0.497314453125,-1.251908396946565,3.4885496183206106,-1.3282442748091603
1748589376.8248293,0.048583984375,0.9228515625,0.493896484375,-0.1450381679389313,3.6412213740458017,-1.1450381679389312
1748589376.8348286,0.049072265625,0.91552734375,0.48681640625,-0.6106870229007634,2.931297709923664,-0.7175572519083969
1748589376.844829,0.059326171875,0.9375,0.49169921875,-0.2900763358778626,2.931297709923664,-0.17557251908396945
1748589376.85483,0.0419921875,0.92822265625,0.506591796875,0.25190839694656486,1.9312977099236641,0.9847328244274809
1748589376.8648288,0.043212890625,0.9287109375,0.500732421875,1.4045801526717556,1.748091603053435,1.4274809160305344
1748589376.874831,0.055908203125,0.92529296875,0.499267578125,1.816793893129771,1.6106870229007633,1.1603053435114503
1748589376.8848295,0.048583984375,0.9150390625,0.497802734375,1.1526717557251909,2.1068702290076335,0.7557251908396947
1748589376.8948293,0.060546875,0.915283203125,0.491455078125,0.8015267175572519,3.0076335877862594,-0.5877862595419847
1748589376.9048297,0.080078125,0.9365234375,0.490234375,0.16793893129770993,3.114503816793893,-1.465648854961832
1748589376.9148304,0.068603515625,0.922607421875,0.478759765625,-1.9541984732824427,2.595419847328244,-2.2977099236641223
1748589376.9248302,0.05126953125,0.91845703125,0.475830078125,-0.19083969465648856,1.7709923664122138,-2.8396946564885495
1748589376.9348307,0.037109375,0.913330078125,0.491943359375,-0.6793893129770993,1.366412213740458,-3.2442748091603053
1748589376.944829,0.046630859375,0.90966796875,0.495849609375,-0.9847328244274809,1.0381679389312977,-2.854961832061069
1748589376.9548297,0.0322265625,0.915771484375,0.4931640625,-1.0,1.9541984732824427,-2.404580152671756
1748589376.9648287,0.02880859375,0.9072265625,0.48779296875,-1.9312977099236641,3.114503816793893,-1.7633587786259541
1748589376.9748292,0.029541015625,0.919921875,0.496337890625,0.1984732824427481,3.717557251908397,-0.7709923664122137
1748589376.9848301,0.020263671875,0.892578125,0.484619140625,0.6793893129770993,4.717557251908397,0.061068702290076333
1748589376.9948308,0.0087890625,0.899169921875,0.499755859375,0.9312977099236641,4.595419847328245,1.3206106870229009
1748589377.0048301,0.003173828125,0.89208984375,0.490478515625,1.1984732824427482,4.66412213740458,1.8625954198473282
1748589377.0148306,0.00537109375,0.900146484375,0.499755859375,1.0458015267175573,4.923664122137405,2.3587786259541983
1748589377.0248296,0.0244140625,0.901611328125,0.491455078125,0.16793893129770993,5.282442748091603,2.6030534351145036
1748589377.03483,0.033935546875,0.89892578125,0.49072265625,-1.0916030534351144,5.770992366412214,2.1526717557251906
1748589377.0448296,0.0419921875,0.90283203125,0.487060546875,-2.427480916030534,6.740458015267175,1.0916030534351144
1748589377.0548306,0.046142578125,0.915283203125,0.46875,-4.0534351145038165,7.404580152671755,0.5954198473282443
1748589377.0648289,0.04833984375,0.9052734375,0.481689453125,-5.022900763358779,7.9465648854961835,-1.9465648854961832
1748589377.07483,0.057861328125,0.917724609375,0.486083984375,-4.969465648854962,8.389312977099237,0.19083969465648856
1748589377.0848296,0.05078125,0.926025390625,0.498779296875,-4.366412213740458,8.404580152671755,0.8396946564885496
1748589377.0948303,0.046875,0.930419921875,0.50830078125,-3.786259541984733,8.687022900763358,1.2748091603053435
1748589377.1048298,0.056640625,0.927490234375,0.4921875,-3.427480916030534,9.114503816793894,1.3587786259541985
1748589377.11483,0.043212890625,0.90673828125,0.500244140625,-3.1908396946564888,9.603053435114504,1.6564885496183206
1748589377.1248295,0.022705078125,0.912353515625,0.511962890625,-2.549618320610687,10.267175572519085,2.282442748091603
1748589377.1348317,0.034423828125,0.917724609375,0.5126953125,-1.16793893129771,10.916030534351146,2.4122137404580153
1748589377.1448295,0.06005859375,0.916259765625,0.490966796875,-0.24427480916030533,10.748091603053435,2.435114503816794
1748589377.1548293,0.06787109375,0.921875,0.490966796875,-1.1068702290076335,9.725190839694656,2.183206106870229
1748589377.1648293,0.071533203125,0.9228515625,0.473388671875,-2.5343511450381677,8.885496183206106,1.6259541984732824
1748589377.1748302,0.075439453125,0.9365234375,0.49755859375,-3.1908396946564888,7.717557251908397,1.1450381679389312
1748589377.1848314,0.083740234375,0.93505859375,0.488525390625,-2.3740458015267176,6.633587786259542,0.7251908396946565
1748589377.194829,0.08154296875,0.932861328125,0.49365234375,-1.916030534351145,5.679389312977099,0.3511450381679389
1748589377.20483,0.076904296875,0.91943359375,0.4873046875,-2.3893129770992365,5.175572519083969,-0.3511450381679389
1748589377.214831,0.067626953125,0.908935546875,0.475341796875,-2.900763358778626,4.5038167938931295,-0.4961832061068702
1748589377.2248297,0.068359375,0.89599609375,0.478759765625,-4.374045801526718,3.3282442748091605,-1.083969465648855
1748589377.23483,0.09228515625,0.894287109375,0.480712890625,-5.984732824427481,1.8244274809160306,-1.816793893129771
1748589377.2448292,0.0986328125,0.898681640625,0.49951171875,-6.541984732824427,0.6717557251908397,-2.763358778625954
1748589377.2548306,0.0859375,0.919677734375,0.524169921875,-5.290076335877862,0.5801526717557252,-3.435114503816794
1748589377.2648292,0.05078125,0.934814453125,0.544189453125,-2.5343511450381677,0.4351145038167939,-3.5114503816793894
1748589377.2748303,0.048828125,0.93701171875,0.535888671875,0.31297709923664124,2.0763358778625953,-3.931297709923664
1748589377.2848296,0.085693359375,0.94140625,0.500732421875,0.6106870229007634,1.618320610687023,-4.351145038167939
1748589377.29483,0.076904296875,0.9287109375,0.469970703125,-0.061068702290076333,-0.09923664122137404,-4.603053435114504
1748589377.30483,0.073486328125,0.9130859375,0.466064453125,-0.648854961832061,-1.7633587786259541,-4.793893129770993
1748589377.31483,0.12939453125,0.923828125,0.450927734375,-2.2061068702290076,-4.633587786259542,-5.435114503816794
1748589377.3248293,0.077880859375,0.9140625,0.457763671875,-5.633587786259542,-5.427480916030534,-6.297709923664122
1748589377.3348281,0.091552734375,0.91259765625,0.46240234375,-6.290076335877862,-7.870229007633588,-6.519083969465649
1748589377.3448296,0.0791015625,0.912841796875,0.4697265625,-4.183206106870229,-10.007633587786259,-5.916030534351145
1748589377.3548298,0.00634765625,0.934814453125,0.46484375,-2.6564885496183206,-10.358778625954198,-4.961832061068702
1748589377.3648293,-0.04345703125,0.90673828125,0.453857421875,-1.3435114503816794,-9.694656488549619,-3.1297709923664123
1748589377.37483,-0.0283203125,0.91064453125,0.453369140625,-1.8549618320610688,-8.129770992366412,-1.3053435114503817
1748589377.3848295,0.0078125,0.935546875,0.49609375,0.7938931297709924,-4.6106870229007635,-0.1450381679389313
1748589377.3948298,0.030517578125,0.94140625,0.51416015625,0.3282442748091603,-0.648854961832061,-0.16793893129770993
1748589377.4048295,0.07177734375,0.95556640625,0.49755859375,-0.2824427480916031,2.6259541984732824,-1.1297709923664123
1748589377.4148314,0.070556640625,0.931640625,0.479248046875,-1.5419847328244274,2.053435114503817,-1.7099236641221374
1748589377.4248292,0.060302734375,0.92333984375,0.455322265625,-1.1526717557251909,6.091603053435114,-1.8854961832061068
1748589377.4348307,0.0498046875,0.901611328125,0.445068359375,-1.1145038167938932,6.267175572519084,-0.7480916030534351
1748589377.4448292,0.037109375,0.880615234375,0.41162109375,-1.1755725190839694,5.9541984732824424,0.8702290076335878
1748589377.4548297,0.0439453125,0.87060546875,0.460205078125,-1.0458015267175573,5.343511450381679,2.7099236641221376
1748589377.4648302,0.090576171875,0.875,0.497802734375,-1.6412213740458015,4.3816793893129775,3.381679389312977
1748589377.4748302,0.09375,0.90966796875,0.5244140625,-5.068702290076335,5.0458015267175576,2.2595419847328246
1748589377.48483,0.10888671875,0.96142578125,0.53173828125,-5.3816793893129775,6.786259541984733,0.015267175572519083
1748589377.4948294,0.11376953125,0.973876953125,0.532470703125,-2.015267175572519,8.82442748091603,-1.8931297709923665
1748589377.50483,0.0966796875,0.9638671875,0.5107421875,1.5725190839694656,8.679389312977099,-3.49618320610687
1748589377.5148327,0.053955078125,0.947021484375,0.47021484375,2.4198473282442747,6.99236641221374,-4.824427480916031
1748589377.5248337,0.045166015625,0.92724609375,0.43603515625,1.7557251908396947,3.6946564885496183,-4.541984732824427
1748589377.5348294,0.037109375,0.9052734375,0.42724609375,0.549618320610687,0.4961832061068702,-5.862595419847328
1748589377.5448403,0.0654296875,0.90673828125,0.43212890625,-2.732824427480916,-1.465648854961832,-4.190839694656488
1748589377.5548315,0.102783203125,0.907470703125,0.43896484375,-5.00763358778626,-3.8625954198473282,-4.236641221374046
1748589377.5648353,0.078369140625,0.91455078125,0.443603515625,-4.32824427480916,-5.488549618320611,-3.786259541984733
1748589377.5748308,0.035400390625,0.922119140625,0.466064453125,-2.0916030534351147,-5.893129770992366,-3.4198473282442747
1748589377.58483,0.01513671875,0.923828125,0.4833984375,-0.5954198473282443,-5.206106870229007,-3.3435114503816794
1748589377.5948362,0.0146484375,0.916748046875,0.483154296875,-0.6564885496183206,-4.404580152671755,-3.1526717557251906
1748589377.6048324,0.04296875,0.930419921875,0.487548828125,-0.061068702290076333,-2.9236641221374047,-2.5572519083969465
1748589377.6148245,0.0400390625,0.94091796875,0.484130859375,1.3358778625954197,-2.2900763358778624,-1.8625954198473282
1748589377.6248305,0.061767578125,0.95166015625,0.473388671875,2.66412213740458,-1.6641221374045803,-1.0076335877862594
1748589377.6348302,0.0654296875,0.918701171875,0.4736328125,1.7099236641221374,-2.0839694656488548,-0.6259541984732825
1748589377.6448305,0.06201171875,0.90673828125,0.459716796875,-0.7251908396946565,-2.2213740458015265,-0.5801526717557252
1748589377.6548297,0.047119140625,0.9052734375,0.466064453125,-2.564885496183206,-3.8244274809160306,-0.4961832061068702
1748589377.664828,0.036865234375,0.91015625,0.4716796875,-2.8702290076335877,-0.44274809160305345,-0.35877862595419846
1748589377.6748295,0.019287109375,0.90087890625,0.484130859375,-2.4198473282442747,1.4580152671755726,-0.03816793893129771
1748589377.6848283,0.0263671875,0.91650390625,0.498779296875,-1.8244274809160306,3.3282442748091605,0.8320610687022901
1748589377.6948318,0.024169921875,0.8935546875,0.49951171875,-1.1297709923664123,5.305343511450381,1.6488549618320612
1748589377.70483,0.024658203125,0.920166015625,0.4912109375,-0.8549618320610687,7.374045801526718,2.16793893129771
1748589377.71483,0.035400390625,0.907958984375,0.489990234375,-1.5038167938931297,7.8396946564885495,2.8473282442748094
1748589377.7248294,0.040771484375,0.9130859375,0.489501953125,-1.8702290076335877,8.938931297709924,3.66412213740458
1748589377.7348285,0.03662109375,0.921142578125,0.47607421875,-2.3587786259541983,9.610687022900763,2.0
1748589377.7448292,0.035400390625,0.911376953125,0.486328125,-2.4427480916030535,10.183206106870228,4.526717557251908
1748589377.7548308,0.052978515625,0.922607421875,0.482177734375,-2.5877862595419847,10.374045801526718,4.763358778625954
1748589377.7648296,0.069091796875,0.906982421875,0.489013671875,-2.9618320610687023,10.83969465648855,4.9465648854961835
1748589377.7748308,0.072021484375,0.9267578125,0.48681640625,-2.2595419847328246,11.969465648854962,4.961832061068702
1748589377.784829,0.07275390625,0.925048828125,0.494384765625,-1.5801526717557253,12.618320610687023,5.236641221374046
1748589377.7948296,0.068115234375,0.91845703125,0.509033203125,-1.0458015267175573,13.374045801526718,4.984732824427481
1748589377.8048303,0.0810546875,0.924072265625,0.50927734375,-0.5267175572519084,13.748091603053435,4.740458015267175
1748589377.8148296,0.062744140625,0.92724609375,0.51025390625,-0.4198473282442748,12.877862595419847,4.824427480916031
1748589377.824829,0.06640625,0.906494140625,0.5029296875,-0.20610687022900764,12.572519083969466,4.251908396946565
1748589377.8348286,0.081298828125,0.92578125,0.48681640625,-0.2900763358778626,11.938931297709924,3.9923664122137406
1748589377.8448293,0.078369140625,0.92333984375,0.48974609375,-0.3435114503816794,12.236641221374045,3.1068702290076335
1748589377.8548312,0.061767578125,0.920654296875,0.479736328125,-1.5954198473282444,10.641221374045802,3.3282442748091605
1748589377.8648295,0.121337890625,0.927001953125,0.482177734375,-1.6946564885496183,12.82442748091603,1.1374045801526718
1748589377.874828,0.23583984375,0.95654296875,0.50732421875,-3.648854961832061,15.17557251908397,-1.748091603053435
1748589377.8848293,0.162841796875,1.031982421875,0.428955078125,-3.3206106870229006,13.267175572519085,5.358778625954199
1748589377.8948295,-0.1650390625,0.8427734375,0.44921875,15.610687022900763,-1.251908396946565,8.259541984732824
1748589377.9048312,-0.136474609375,0.83056640625,0.474853515625,17.50381679389313,-1.5190839694656488,4.778625954198473
1748589377.9148302,0.05029296875,0.815185546875,0.534423828125,-0.8320610687022901,-1.8091603053435115,4.251908396946565
1748589377.92483,0.072998046875,0.884033203125,0.596435546875,-9.84732824427481,9.595419847328245,5.099236641221374
1748589377.9348316,0.1201171875,0.987060546875,0.587646484375,-8.694656488549619,13.885496183206106,4.267175572519084
1748589377.944829,0.115234375,1.031982421875,0.539306640625,2.4580152671755724,17.931297709923665,1.1374045801526718
1748589377.9548311,0.17578125,0.978759765625,0.453857421875,9.17557251908397,13.450381679389313,-0.6183206106870229
1748589377.9648306,0.142578125,0.869873046875,0.379150390625,2.114503816793893,2.2977099236641223,-1.3053435114503817
1748589377.974831,0.07568359375,0.84619140625,0.387451171875,-7.427480916030534,-1.8473282442748091,-2.0
1748589377.9848292,0.03662109375,0.8916015625,0.483154296875,-9.67175572519084,-0.916030534351145,-0.9389312977099237
1748589377.9948301,0.00048828125,0.91845703125,0.55029296875,-1.5190839694656488,3.519083969465649,0.8549618320610687
1748589378.0048316,0.018798828125,0.907470703125,0.568603515625,1.1450381679389312,6.793893129770993,1.9465648854961832
1748589378.0148292,0.062255859375,0.9013671875,0.492919921875,1.8854961832061068,6.763358778625954,1.8091603053435115
1748589378.0248291,0.08349609375,0.92529296875,0.426513671875,-2.366412213740458,3.648854961832061,1.0458015267175573
1748589378.0348315,0.099365234375,0.927978515625,0.425537109375,-4.435114503816794,0.44274809160305345,-0.2824427480916031
1748589378.044829,0.091064453125,0.937744140625,0.49951171875,-4.343511450381679,-0.6259541984732825,-1.3358778625954197
1748589378.054834,0.075439453125,0.947509765625,0.55029296875,-0.9923664122137404,-0.030534351145038167,-1.8702290076335877
1748589378.064832,0.069091796875,0.939208984375,0.56103515625,2.572519083969466,1.0076335877862594,-2.0381679389312977
1748589378.0748317,0.06787109375,0.9052734375,0.51220703125,2.015267175572519,1.9389312977099236,-2.0381679389312977
1748589378.084829,0.07080078125,0.890625,0.447509765625,-0.5725190839694656,1.916030534351145,-2.2213740458015265
1748589378.0948298,0.052001953125,0.894287109375,0.407470703125,-3.0610687022900764,1.2213740458015268,-2.2900763358778624
1748589378.1048298,0.06201171875,0.9072265625,0.44970703125,-3.7938931297709924,0.5572519083969466,-1.717557251908397
1748589378.1148317,0.0625,0.92333984375,0.49609375,-3.0763358778625953,0.17557251908396945,-1.1068702290076335
1748589378.124829,0.060302734375,0.92578125,0.517333984375,-1.6717557251908397,-1.9389312977099236,-0.9083969465648855
1748589378.1348293,0.05859375,0.927490234375,0.50537109375,-0.6030534351145038,-0.3893129770992366,-1.0076335877862594
1748589378.1448286,0.05908203125,0.927978515625,0.474853515625,-0.5725190839694656,-0.5190839694656488,-1.2213740458015268
1748589378.1548312,0.06591796875,0.9248046875,0.476806640625,-1.2213740458015268,-1.099236641221374,-1.5267175572519085
1748589378.16483,0.05615234375,0.917236328125,0.4755859375,-1.748091603053435,-1.0534351145038168,-1.6793893129770991
1748589378.17483,0.068359375,0.91943359375,0.4873046875,-1.6412213740458015,-0.9770992366412213,-0.04580152671755725
1748589378.1848292,0.0712890625,0.927001953125,0.49169921875,-0.6183206106870229,-0.9618320610687023,-2.0839694656488548
1748589378.1948292,0.068603515625,0.92333984375,0.49560546875,-0.12213740458015267,-0.4580152671755725,-2.366412213740458
1748589378.2048323,0.091796875,0.91259765625,0.4892578125,1.9389312977099236,0.061068702290076333,-2.1755725190839694
1748589378.2148302,0.068359375,0.9140625,0.474365234375,-0.7022900763358778,-0.022900763358778626,-2.198473282442748
1748589378.2248323,0.062744140625,0.915771484375,0.48291015625,-1.717557251908397,-0.19083969465648856,-2.099236641221374
1748589378.2348297,0.0634765625,0.91796875,0.474853515625,-2.2595419847328246,-1.0305343511450382,-1.9618320610687023
1748589378.2448294,0.063232421875,0.92138671875,0.483642578125,-1.8015267175572518,-0.8702290076335878,-1.6564885496183206
1748589378.2548301,0.056396484375,0.908203125,0.483154296875,-0.06870229007633588,-0.9847328244274809,-1.5267175572519085
1748589378.264831,0.05126953125,0.90625,0.491455078125,-2.1908396946564888,-0.5954198473282443,-1.6946564885496183
1748589378.2748287,0.07421875,0.91162109375,0.470947265625,-2.3435114503816794,-0.7099236641221374,-2.1603053435114505
1748589378.2848299,0.072998046875,0.908447265625,0.48193359375,-1.916030534351145,0.6870229007633588,-2.015267175572519
1748589378.2947931,0.071044921875,0.903564453125,0.495849609375,-2.1374045801526718,0.7786259541984732,-2.068702290076336
1748589378.3048322,0.063232421875,0.920166015625,0.47509765625,-2.381679389312977,0.183206106870229,-3.9083969465648853
1748589378.3148296,0.065185546875,0.9306640625,0.48193359375,-2.427480916030534,-0.22137404580152673,-1.9236641221374047
1748589378.32483,0.0771484375,0.933837890625,0.481689453125,-2.2213740458015265,-0.40458015267175573,-1.9083969465648856
1748589378.3348298,0.069580078125,0.9345703125,0.477783203125,-2.236641221374046,-0.7099236641221374,-1.9083969465648856
1748589378.3448298,0.06494140625,0.933837890625,0.47216796875,-2.3740458015267176,-0.4732824427480916,-1.984732824427481
1748589378.3548293,0.07568359375,0.930419921875,0.474365234375,-2.3587786259541983,-0.7633587786259542,-2.1603053435114505
1748589378.3648293,0.077392578125,0.916748046875,0.47265625,-2.351145038167939,-0.8854961832061069,-2.366412213740458
1748589378.3748307,0.070068359375,0.916015625,0.486083984375,-2.6793893129770994,-1.5190839694656488,-2.5419847328244276
1748589378.3848293,0.07275390625,0.910888671875,0.48046875,-3.045801526717557,-1.9389312977099236,-2.7099236641221376
1748589378.3948288,0.063232421875,0.91357421875,0.486572265625,-3.099236641221374,-2.9389312977099236,-2.900763358778626
1748589378.4048293,0.074462890625,0.91796875,0.4775390625,-3.366412213740458,-3.267175572519084,-3.030534351145038
1748589378.4148302,0.076416015625,0.919677734375,0.4931640625,-3.7251908396946565,-3.572519083969466,-2.931297709923664
1748589378.424829,0.073486328125,0.930908203125,0.49169921875,-3.6793893129770994,-3.49618320610687,-2.877862595419847
1748589378.434831,0.06689453125,0.92578125,0.4833984375,-3.015267175572519,-3.1755725190839694,-2.7938931297709924
1748589378.444829,0.0595703125,0.92724609375,0.488037109375,-1.6030534351145038,-2.595419847328244,-2.66412213740458
1748589378.4548328,0.066650390625,0.922119140625,0.499755859375,-0.3435114503816794,-2.572519083969466,-2.312977099236641
1748589378.4648302,0.07470703125,0.91357421875,0.484619140625,-0.31297709923664124,-2.7557251908396947,-2.183206106870229
1748589378.47483,0.065185546875,0.912109375,0.480224609375,-1.1145038167938932,-3.1526717557251906,-2.3282442748091605
1748589378.48483,0.07373046875,0.91015625,0.4775390625,-1.7938931297709924,-4.419847328244275,-2.3893129770992365
1748589378.494831,0.073974609375,0.90966796875,0.4814453125,-2.7022900763358777,-5.0534351145038165,-2.8244274809160306
1748589378.5048306,0.075927734375,0.918701171875,0.486083984375,-3.1374045801526718,-5.923664122137405,-2.854961832061069
1748589378.514833,0.07177734375,0.92333984375,0.49609375,-2.7557251908396947,-5.870229007633588,-2.969465648854962
1748589378.5248408,0.06494140625,0.921630859375,0.499267578125,-2.1526717557251906,-5.67175572519084,-3.0076335877862594
1748589378.5348303,0.070068359375,0.913818359375,0.498046875,-0.03816793893129771,-5.6183206106870225,-3.1526717557251906
1748589378.5448437,0.068359375,0.915283203125,0.48681640625,-2.0381679389312977,-5.282442748091603,-3.3893129770992365
1748589378.5548322,0.061279296875,0.910400390625,0.486083984375,-2.213740458015267,-5.076335877862595,-3.33587786259542
1748589378.56483,0.052001953125,0.918212890625,0.485107421875,-2.312977099236641,-5.190839694656488,-3.2900763358778624
1748589378.5748296,0.056640625,0.916015625,0.500244140625,-2.099236641221374,-4.961832061068702,-3.068702290076336
1748589378.5848353,0.056884765625,0.91748046875,0.50634765625,-2.0381679389312977,-4.7251908396946565,-2.8473282442748094
1748589378.5948308,0.0595703125,0.91162109375,0.4931640625,-1.3969465648854962,-4.0458015267175576,-2.7251908396946565
1748589378.6048317,0.05712890625,0.9140625,0.4853515625,-0.8549618320610687,-3.3587786259541983,-2.6106870229007635
1748589378.6148307,0.056640625,0.9072265625,0.486083984375,-0.9847328244274809,-2.7480916030534353,-2.381679389312977
1748589378.624834,0.06982421875,0.896728515625,0.485107421875,-1.5267175572519085,-2.198473282442748,-2.4732824427480917
1748589378.6348317,0.07421875,0.909912109375,0.474609375,-2.312977099236641,-2.366412213740458,-2.4198473282442747
1748589378.644831,0.06884765625,0.91259765625,0.4833984375,-2.717557251908397,-2.564885496183206,-2.1297709923664123
1748589378.65483,0.054443359375,0.923095703125,0.4873046875,-2.1603053435114505,-2.2061068702290076,-3.8702290076335877
1748589378.6648288,0.052490234375,0.9306640625,0.507568359375,-1.6641221374045803,-1.7786259541984732,-1.8778625954198473
1748589378.674831,0.05615234375,0.92529296875,0.524169921875,-0.8320610687022901,-0.9694656488549618,-1.3435114503816794
1748589378.684828,0.050537109375,0.91943359375,0.51123046875,-0.2824427480916031,-0.5114503816793893,-1.251908396946565
1748589378.6948278,0.05615234375,0.9130859375,0.4921875,-0.40458015267175573,-0.3435114503816794,-1.282442748091603
1748589378.7048275,0.056884765625,0.908935546875,0.47607421875,-0.9694656488549618,-0.4580152671755725,-1.4580152671755726
1748589378.7148504,0.07763671875,0.906005859375,0.477783203125,-1.6641221374045803,-0.9770992366412213,-1.4351145038167938
1748589378.7248304,0.067626953125,0.908935546875,0.48388671875,-2.282442748091603,-0.7251908396946565,-1.6412213740458015
1748589378.7348287,0.057373046875,0.916259765625,0.4951171875,-2.6030534351145036,-0.5267175572519084,-1.3358778625954197
1748589378.7448292,0.05615234375,0.9375,0.51318359375,-3.8931297709923665,0.29770992366412213,-1.1984732824427482
1748589378.754831,0.05322265625,0.9189453125,0.505126953125,-1.251908396946565,1.1297709923664123,-0.8854961832061069
1748589378.7648294,0.046630859375,0.91455078125,0.49365234375,-0.4732824427480916,1.786259541984733,-0.6793893129770993
1748589378.7748308,0.053466796875,0.919189453125,0.49365234375,-0.2824427480916031,1.8015267175572518,-0.4351145038167939
1748589378.7848303,0.047607421875,0.912841796875,0.47509765625,-0.4961832061068702,1.7938931297709924,-0.5572519083969466
1748589378.7948303,0.07763671875,0.906494140625,0.480224609375,-0.8549618320610687,1.7404580152671756,-0.5954198473282443
1748589378.8048286,0.067626953125,0.916259765625,0.480224609375,-1.717557251908397,1.3511450381679388,-0.8473282442748091
1748589378.8148296,0.069580078125,0.91796875,0.477294921875,-2.0839694656488548,0.8549618320610687,-0.7938931297709924
1748589378.8248293,0.06201171875,0.91943359375,0.489013671875,-2.236641221374046,0.2595419847328244,-0.8015267175572519
1748589378.8348305,0.0703125,0.921875,0.487060546875,-1.8244274809160306,-0.022900763358778626,-0.6946564885496184
1748589378.8448286,0.064697265625,0.92041015625,0.491455078125,-1.8244274809160306,-0.13740458015267176,-0.7557251908396947
1748589378.8548307,0.071044921875,0.9365234375,0.477783203125,-1.7938931297709924,-0.2824427480916031,-0.7557251908396947
1748589378.8648298,0.075439453125,0.91455078125,0.469482421875,-1.5114503816793894,-0.45038167938931295,-1.0610687022900764
1748589378.8748302,0.076416015625,0.912841796875,0.477294921875,-1.4732824427480915,-0.46564885496183206,-1.3129770992366412
1748589378.8848293,0.078857421875,0.91455078125,0.4755859375,-3.9083969465648853,-0.6641221374045801,-1.3206106870229009
1748589378.8948321,0.076904296875,0.9111328125,0.4736328125,-2.351145038167939,-0.6106870229007634,-1.4961832061068703
1748589378.904829,0.0703125,0.916259765625,0.478759765625,-2.7480916030534353,-0.8549618320610687,-1.2061068702290076
1748589378.9148314,0.0712890625,0.910888671875,0.482177734375,-3.0839694656488548,-1.1374045801526718,-1.4427480916030535
1748589378.924829,0.0654296875,0.9140625,0.478515625,-3.1603053435114505,-1.5954198473282444,-1.534351145038168
1748589378.9348304,0.066650390625,0.9130859375,0.46923828125,-3.2290076335877864,-2.0610687022900764,-1.5572519083969465
1748589378.94483,0.0703125,0.914794921875,0.48681640625,-3.2519083969465647,-2.198473282442748,-1.7328244274809161
1748589378.9548302,0.0703125,0.921142578125,0.4921875,-3.2748091603053435,-2.351145038167939,-2.0839694656488548
1748589378.96483,0.068115234375,0.925048828125,0.496337890625,-3.4732824427480917,-2.282442748091603,-2.1374045801526718
1748589378.974831,0.06640625,0.917724609375,0.4931640625,-3.3587786259541983,-3.8702290076335877,-2.6030534351145036
1748589378.9848297,0.070556640625,0.92626953125,0.483154296875,-3.3587786259541983,-1.916030534351145,-2.5572519083969465
1748589378.994829,0.069091796875,0.9189453125,0.487060546875,-3.0839694656488548,-1.5954198473282444,-2.49618320610687
1748589379.0048294,0.05810546875,0.92138671875,0.490234375,-2.7480916030534353,-1.4122137404580153,-2.4427480916030535
1748589379.0148296,0.0498046875,0.922607421875,0.49365234375,-2.595419847328244,-0.916030534351145,-2.4580152671755724
1748589379.0248291,0.052001953125,0.9189453125,0.487548828125,-2.3282442748091605,-0.732824427480916,-2.0763358778625953
1748589379.0348303,0.04931640625,0.918212890625,0.47802734375,-2.282442748091603,-0.5343511450381679,-1.9541984732824427
1748589379.0448291,0.04833984375,0.92822265625,0.47509765625,-2.0916030534351147,-0.4732824427480916,-1.6564885496183206
1748589379.0548303,0.052001953125,0.92822265625,0.484375,-1.9541984732824427,-0.2595419847328244,-1.3206106870229009
1748589379.0648293,0.0478515625,0.92822265625,0.49072265625,-1.5190839694656488,0.5267175572519084,-1.3969465648854962
1748589379.0748312,0.05224609375,0.9384765625,0.48193359375,-1.0229007633587786,1.0381679389312977,-1.3206106870229009
1748589379.0848296,0.056396484375,0.93017578125,0.482421875,-0.8015267175572519,0.9847328244274809,-1.183206106870229
1748589379.0948305,0.060546875,0.934326171875,0.47021484375,-0.29770992366412213,0.6870229007633588,-1.465648854961832
1748589379.104829,0.060791015625,0.937744140625,0.474609375,-0.4198473282442748,0.5114503816793893,-1.366412213740458
1748589379.1148305,0.060791015625,0.933837890625,0.474609375,-0.20610687022900764,0.25190839694656486,-1.3206106870229009
1748589379.1248295,0.065185546875,0.93408203125,0.4765625,-0.05343511450381679,0.549618320610687,-1.450381679389313
1748589379.1348298,0.06298828125,0.932373046875,0.474853515625,0.7022900763358778,0.5725190839694656,-1.7251908396946565
1748589379.1448298,0.06396484375,0.94140625,0.466796875,1.3282442748091603,0.816793893129771,-1.8244274809160306
1748589379.1548312,0.06298828125,0.938720703125,0.474365234375,1.7938931297709924,0.7786259541984732,-1.534351145038168
1748589379.16483,0.0615234375,0.936767578125,0.474365234375,2.1374045801526718,0.9541984732824428,-1.4580152671755726
1748589379.1748302,0.06005859375,0.93603515625,0.466064453125,2.6946564885496183,1.251908396946565,-1.5038167938931297
1748589379.18483,0.06103515625,0.9306640625,0.464111328125,3.053435114503817,1.7633587786259541,-1.2900763358778626
1748589379.1948287,0.046875,0.93408203125,0.469970703125,2.9236641221374047,1.6412213740458015,-1.1908396946564885
1748589379.2048297,0.070068359375,0.910888671875,0.467041015625,2.0,1.3282442748091603,-1.3740458015267176
1748589379.2148316,0.0673828125,0.909423828125,0.4482421875,0.7175572519083969,0.8473282442748091,-1.5190839694656488
1748589379.2248316,0.06591796875,0.89794921875,0.440185546875,-0.20610687022900764,0.7175572519083969,-1.8854961832061068
1748589379.2348297,0.050048828125,0.9013671875,0.452392578125,-0.9541984732824428,0.5725190839694656,-2.068702290076336
1748589379.24483,0.07177734375,0.909423828125,0.45751953125,-1.3587786259541985,0.21374045801526717,-2.1297709923664123
1748589379.2548313,0.0654296875,0.91796875,0.455078125,-1.5038167938931297,0.1297709923664122,-1.8931297709923665
1748589379.2648299,0.06005859375,0.91015625,0.475830078125,-1.6030534351145038,0.3969465648854962,-1.7633587786259541
1748589379.2748308,0.061767578125,0.929931640625,0.478271484375,-1.5114503816793894,0.6030534351145038,-1.8091603053435115
1748589379.2848294,0.050537109375,0.927734375,0.477294921875,-1.2442748091603053,0.8931297709923665,-1.8473282442748091
1748589379.2948287,0.054443359375,0.92529296875,0.470947265625,-1.4580152671755726,1.0229007633587786,-1.916030534351145
1748589379.3048334,0.052001953125,0.93505859375,0.480224609375,-1.366412213740458,1.4732824427480915,-1.900763358778626
1748589379.3148377,0.060791015625,0.916259765625,0.469970703125,-1.5572519083969465,1.83206106870229,-0.061068702290076333
1748589379.3248298,0.07470703125,0.9111328125,0.4833984375,-1.6106870229007633,1.900763358778626,-1.900763358778626
1748589379.3348293,0.064208984375,0.911865234375,0.470947265625,-1.748091603053435,2.1526717557251906,-2.0229007633587788
1748589379.344829,0.0625,0.908447265625,0.484375,-1.816793893129771,2.1908396946564888,-2.0381679389312977
1748589379.3548293,0.0615234375,0.909912109375,0.4892578125,-2.4427480916030535,1.9083969465648856,-1.9465648854961832
1748589379.3648298,0.06494140625,0.916015625,0.480224609375,-2.519083969465649,1.9083969465648856,-1.717557251908397
1748589379.37483,0.06005859375,0.916748046875,0.482421875,-2.854961832061069,1.465648854961832,-1.7633587786259541
1748589379.384829,0.051025390625,0.918701171875,0.486572265625,-2.6793893129770994,1.3282442748091603,-1.381679389312977
1748589379.3948298,0.05859375,0.92236328125,0.48193359375,-2.6564885496183206,1.5954198473282444,-1.4198473282442747
1748589379.4048293,0.064208984375,0.92529296875,0.4970703125,-2.427480916030534,1.8931297709923665,-1.4274809160305344
1748589379.414836,0.068115234375,0.925537109375,0.490478515625,-1.9694656488549618,2.3893129770992365,-1.4732824427480915
1748589379.4248314,0.06689453125,0.921142578125,0.474609375,-1.6946564885496183,2.49618320610687,-1.6488549618320612
1748589379.434831,0.07568359375,0.9365234375,0.489990234375,-1.282442748091603,2.572519083969466,-0.007633587786259542
1748589379.4448292,0.0625,0.908447265625,0.48095703125,-1.3740458015267176,2.633587786259542,-2.1526717557251906
1748589379.4548306,0.059326171875,0.925048828125,0.499755859375,-1.4198473282442747,2.7480916030534353,-2.3740458015267176
1748589379.4648287,0.068115234375,0.92822265625,0.49560546875,-1.6412213740458015,2.816793893129771,-2.4580152671755724
1748589379.4748304,0.06201171875,0.923095703125,0.486083984375,-1.1908396946564885,2.6946564885496183,-2.0839694656488548
1748589379.48483,0.065185546875,0.926513671875,0.48388671875,-1.0076335877862594,2.3587786259541983,-1.9694656488549618
1748589379.4948282,0.06787109375,0.926025390625,0.475830078125,-1.0305343511450382,2.183206106870229,-0.08396946564885496
1748589379.5048304,0.05908203125,0.920166015625,0.477294921875,-1.3282442748091603,1.9770992366412214,-1.6412213740458015
1748589379.5148325,0.066162109375,0.93115234375,0.479736328125,-1.2900763358778626,1.7404580152671756,-1.6259541984732824
1748589379.5248344,0.0595703125,0.9287109375,0.479248046875,-0.9770992366412213,2.1297709923664123,-1.618320610687023
1748589379.5348337,0.056396484375,0.91748046875,0.490966796875,-0.8091603053435115,2.1526717557251906,-0.11450381679389313
1748589379.5448399,0.057861328125,0.90966796875,0.48681640625,-1.1755725190839694,2.732824427480916,-2.312977099236641
1748589379.5548317,0.063720703125,0.916259765625,0.489013671875,-1.0610687022900764,2.8931297709923665,-2.6412213740458017
1748589379.5648305,0.046875,0.914794921875,0.493408203125,-1.6946564885496183,2.8931297709923665,-3.33587786259542
1748589379.5748298,0.052001953125,0.91455078125,0.49658203125,-2.450381679389313,2.8625954198473282,-3.6030534351145036
1748589379.58483,0.068603515625,0.91943359375,0.46875,-3.480916030534351,2.900763358778626,-3.6717557251908395
1748589379.5948303,0.07275390625,0.916015625,0.490234375,-3.969465648854962,2.6412213740458017,-3.6946564885496183
1748589379.6048362,0.06396484375,0.9072265625,0.489013671875,-4.229007633587786,2.7557251908396947,-3.4122137404580153
1748589379.614829,0.065185546875,0.90576171875,0.484375,-4.038167938931298,2.9083969465648853,-3.2519083969465647
1748589379.6248262,0.06787109375,0.895751953125,0.48583984375,-3.9770992366412212,2.931297709923664,-3.015267175572519
1748589379.6348264,0.070068359375,0.8974609375,0.486328125,-3.6259541984732824,3.213740458015267,-2.954198473282443
1748589379.6448271,0.06494140625,0.901123046875,0.484619140625,-3.7786259541984735,3.1374045801526718,-2.687022900763359
1748589379.6548266,0.070068359375,0.906005859375,0.5126953125,-3.648854961832061,3.213740458015267,-3.0381679389312977
1748589379.664826,0.064208984375,0.922119140625,0.498779296875,-3.6030534351145036,3.3587786259541983,-3.0839694656488548
1748589379.6748261,0.0693359375,0.91455078125,0.4970703125,-3.6412213740458017,3.6564885496183206,-3.2442748091603053
1748589379.6848254,0.0634765625,0.9228515625,0.49755859375,-3.3206106870229006,3.7251908396946565,-3.2290076335877864
1748589379.694811,0.075927734375,0.935546875,0.50439453125,-3.4122137404580153,4.022900763358779,-2.8396946564885495
1748589379.704826,0.06201171875,0.93505859375,0.498779296875,-3.595419847328244,4.114503816793893,-2.49618320610687
1748589379.7148278,0.06591796875,0.911376953125,0.5146484375,-3.427480916030534,4.435114503816794,-2.3435114503816794
1748589379.7248275,0.06298828125,0.906005859375,0.49853515625,-3.053435114503817,4.931297709923665,-1.900763358778626
1748589379.7348278,0.066162109375,0.900390625,0.510498046875,-3.1068702290076335,4.854961832061068,-1.366412213740458
1748589379.7448275,0.06640625,0.8974609375,0.498046875,-3.404580152671756,4.641221374045801,-1.183206106870229
1748589379.7548277,0.0556640625,0.91357421875,0.510986328125,-3.2748091603053435,4.480916030534351,-0.7633587786259542
1748589379.764826,0.058837890625,0.9130859375,0.500732421875,-2.7404580152671754,5.152671755725191,-0.8473282442748091
1748589379.7748277,0.05224609375,0.9248046875,0.5048828125,-2.351145038167939,6.068702290076335,-0.4961832061068702
1748589379.7848296,0.04931640625,0.9267578125,0.50244140625,-1.4885496183206106,7.3893129770992365,-0.48091603053435117
1748589379.7948275,0.05224609375,0.934326171875,0.506591796875,-1.1603053435114503,8.885496183206106,-0.32061068702290074
1748589379.8048275,0.052490234375,0.935302734375,0.50244140625,-0.6106870229007634,9.770992366412214,0.16793893129770993
1748589379.814828,0.0634765625,0.930419921875,0.509033203125,-0.31297709923664124,10.389312977099237,0.8091603053435115
1748589379.824828,0.063720703125,0.929931640625,0.50439453125,0.13740458015267176,10.954198473282442,0.9007633587786259
1748589379.8348272,0.0703125,0.92919921875,0.505126953125,0.9618320610687023,11.259541984732824,1.2366412213740459
1748589379.844827,0.064697265625,0.930419921875,0.507568359375,1.366412213740458,11.465648854961833,1.465648854961832
1748589379.8548248,0.067138671875,0.920166015625,0.496337890625,2.0381679389312977,11.969465648854962,1.7251908396946565
1748589379.8648267,0.066650390625,0.911865234375,0.495849609375,2.2290076335877864,12.541984732824428,1.7328244274809161
1748589379.8748279,0.072998046875,0.915771484375,0.48486328125,2.2595419847328246,12.969465648854962,1.6717557251908397
1748589379.8848264,0.074951171875,0.918212890625,0.49169921875,2.5343511450381677,13.587786259541986,1.9923664122137406
1748589379.894828,0.083251953125,0.908203125,0.498779296875,2.732824427480916,14.022900763358779,0.03816793893129771
1748589379.904827,0.08154296875,0.924560546875,0.513671875,2.404580152671756,14.297709923664122,2.145038167938931
1748589379.914829,0.088623046875,0.927001953125,0.51513671875,2.381679389312977,14.076335877862595,2.5801526717557253
1748589379.9248273,0.0810546875,0.931884765625,0.486572265625,1.8549618320610688,14.198473282442748,2.786259541984733
1748589379.934828,0.079345703125,0.92333984375,0.493408203125,2.053435114503817,14.625954198473282,2.885496183206107
1748589379.9448276,0.072509765625,0.919189453125,0.48681640625,1.6870229007633588,14.82442748091603,2.5572519083969465
1748589379.954827,0.083251953125,0.910400390625,0.488037109375,1.6717557251908397,15.48091603053435,2.3435114503816794
1748589379.964827,0.08251953125,0.9189453125,0.49169921875,2.427480916030534,15.854961832061068,1.816793893129771
1748589379.9748266,0.0830078125,0.917724609375,0.492431640625,2.7709923664122136,16.389312977099237,1.7099236641221374
1748589379.9848268,0.10302734375,0.92333984375,0.4921875,3.7099236641221376,16.763358778625953,1.7328244274809161
1748589379.9948292,0.1064453125,0.906982421875,0.491943359375,4.290076335877862,16.64885496183206,1.6946564885496183
1748589380.004827,0.10107421875,0.917236328125,0.484375,4.519083969465649,16.65648854961832,1.7786259541984732
1748589380.014828,0.096435546875,0.9130859375,0.476806640625,4.351145038167939,16.595419847328245,1.916030534351145
1748589380.0248275,0.11962890625,0.91845703125,0.471923828125,3.519083969465649,16.17557251908397,1.6259541984732824
1748589380.0348277,0.109130859375,0.926513671875,0.48291015625,3.0839694656488548,15.992366412213741,1.3740458015267176
1748589380.044827,0.10302734375,0.930908203125,0.475341796875,2.633587786259542,15.709923664122137,0.9083969465648855
1748589380.0548303,0.099853515625,0.94140625,0.4755859375,2.8931297709923665,15.900763358778626,0.6564885496183206
1748589380.0648284,0.08984375,0.934814453125,0.48193359375,2.5877862595419847,16.213740458015266,0.7099236641221374
1748589380.074828,0.088623046875,0.93896484375,0.472900390625,2.9770992366412212,16.374045801526716,0.7938931297709924
1748589380.0848286,0.1005859375,0.938720703125,0.46923828125,4.374045801526718,16.770992366412212,1.5572519083969465
1748589380.0948277,0.108154296875,0.938720703125,0.46728515625,4.9465648854961835,16.72519083969466,2.183206106870229
1748589380.1048305,0.10546875,0.93408203125,0.455810546875,5.366412213740458,17.358778625954198,2.6946564885496183
1748589380.1148293,0.126220703125,0.920654296875,0.45166015625,5.3893129770992365,16.893129770992367,2.7786259541984735
1748589380.1248307,0.128662109375,0.921142578125,0.4423828125,4.2748091603053435,16.977099236641223,3.0
1748589380.1348305,0.123779296875,0.9296875,0.42236328125,4.244274809160306,17.435114503816795,3.2900763358778624
1748589380.144831,0.122802734375,0.929931640625,0.424560546875,4.091603053435114,17.297709923664122,3.564885496183206
1748589380.1548302,0.12548828125,0.9365234375,0.4296875,3.0763358778625953,16.6793893129771,3.7786259541984735
1748589380.1648295,0.118896484375,0.933349609375,0.427734375,2.9236641221374047,16.068702290076335,4.32824427480916
1748589380.1748302,0.13330078125,0.91455078125,0.432373046875,2.4427480916030535,15.16030534351145,4.320610687022901
1748589380.1848297,0.133544921875,0.921142578125,0.429931640625,1.4427480916030535,15.282442748091603,4.0458015267175576
1748589380.1948295,0.1513671875,0.929931640625,0.42724609375,1.4351145038167938,14.770992366412214,3.7480916030534353
1748589380.2048311,0.14794921875,0.913818359375,0.4404296875,1.3969465648854962,14.15267175572519,3.816793893129771
1748589380.2148302,0.14208984375,0.921142578125,0.431640625,0.9007633587786259,13.320610687022901,4.068702290076335
1748589380.2248313,0.162353515625,0.91552734375,0.434814453125,0.2824427480916031,12.885496183206106,3.7709923664122136
1748589380.234829,0.164306640625,0.91455078125,0.434326171875,-0.06870229007633588,13.625954198473282,3.618320610687023
1748589380.244829,0.1552734375,0.916015625,0.43505859375,-0.366412213740458,11.01526717557252,3.2213740458015265
1748589380.2548308,0.151123046875,0.917236328125,0.433837890625,-0.7786259541984732,10.587786259541986,3.045801526717557
1748589380.2648292,0.151611328125,0.916748046875,0.4365234375,-2.0229007633587788,9.717557251908397,2.877862595419847
1748589380.2748284,0.155517578125,0.910888671875,0.44287109375,-3.114503816793893,8.717557251908397,2.717557251908397
1748589380.284829,0.15185546875,0.909423828125,0.42724609375,-4.114503816793893,8.290076335877863,2.66412213740458
1748589380.2948287,0.1474609375,0.916259765625,0.4521484375,-4.206106870229007,7.633587786259542,2.9236641221374047
1748589380.3048334,0.1552734375,0.91552734375,0.4453125,-4.312977099236641,7.2748091603053435,3.404580152671756
1748589380.3148313,0.1357421875,0.923828125,0.43408203125,-4.5038167938931295,7.320610687022901,3.954198473282443
1748589380.3248293,0.131103515625,0.925537109375,0.444091796875,-4.709923664122138,7.549618320610687,4.938931297709924
1748589380.33483,0.130859375,0.927978515625,0.444091796875,-5.190839694656488,7.435114503816794,5.67175572519084
1748589380.3448293,0.109375,0.919921875,0.44384765625,-4.702290076335878,7.541984732824427,6.5038167938931295
1748589380.354833,0.119140625,0.916748046875,0.4482421875,-4.091603053435114,7.396946564885496,7.190839694656488
1748589380.3648295,0.125,0.919189453125,0.447265625,-3.633587786259542,7.068702290076335,7.717557251908397
1748589380.374831,0.138671875,0.924072265625,0.450439453125,-3.030534351145038,6.312977099236641,8.465648854961833
1748589380.3848307,0.150390625,0.923828125,0.460693359375,-2.213740458015267,5.656488549618321,9.076335877862595
1748589380.3948305,0.1630859375,0.92138671875,0.44970703125,-1.4885496183206106,4.282442748091603,9.778625954198473
1748589380.4048312,0.1689453125,0.9208984375,0.44482421875,-1.1374045801526718,3.381679389312977,10.106870229007633
1748589380.4148312,0.162109375,0.91015625,0.445068359375,-1.282442748091603,2.7786259541984735,10.458015267175572
1748589380.4248302,0.165771484375,0.9052734375,0.449951171875,-1.8931297709923665,2.2977099236641223,10.16793893129771
1748589380.4348316,0.16845703125,0.9111328125,0.463623046875,-2.687022900763359,1.5954198473282444,10.076335877862595
1748589380.4448307,0.15625,0.91845703125,0.453857421875,-3.549618320610687,1.1221374045801527,9.557251908396946
1748589380.454829,0.142578125,0.918701171875,0.47216796875,-3.3740458015267176,0.5038167938931297,9.381679389312977
1748589380.4648287,0.128173828125,0.9365234375,0.4814453125,-3.213740458015267,0.2366412213740458,8.587786259541986
1748589380.4748473,0.11669921875,0.943115234375,0.488037109375,-2.8473282442748094,1.251908396946565,7.99236641221374
1748589380.484831,0.130859375,0.96142578125,0.51123046875,-3.2213740458015265,1.5877862595419847,7.1679389312977095
1748589380.4947994,0.129150390625,0.97265625,0.502685546875,-3.3206106870229006,2.1755725190839694,6.221374045801527
1748589380.504833,0.127685546875,0.96337890625,0.50830078125,-2.6793893129770994,2.83206106870229,5.442748091603053
1748589380.5148318,0.1328125,0.943603515625,0.50634765625,-1.702290076335878,5.8320610687022905,5.374045801526718
1748589380.5248408,0.154541015625,0.93115234375,0.51123046875,-0.6641221374045801,4.824427480916031,5.450381679389313
1748589380.5348327,0.138916015625,0.909423828125,0.528564453125,-0.09923664122137404,5.526717557251908,5.488549618320611
1748589380.5450866,0.1025390625,0.923095703125,0.509033203125,1.297709923664122,6.427480916030534,5.786259541984733
1748589380.5548317,0.112060546875,0.937255859375,0.48876953125,2.5267175572519083,5.8396946564885495,5.893129770992366
1748589380.5648293,0.121826171875,0.91748046875,0.470458984375,2.1068702290076335,3.6946564885496183,7.7251908396946565
1748589380.574835,0.130859375,0.91162109375,0.46142578125,1.16793893129771,0.35877862595419846,5.137404580152672
1748589380.5848324,0.12255859375,0.917236328125,0.455322265625,1.4885496183206106,-2.0763358778625953,4.061068702290076
1748589380.5948322,0.09619140625,0.9033203125,0.467529296875,3.0,-2.801526717557252,3.618320610687023
1748589380.6048298,0.081298828125,0.8974609375,0.472900390625,4.656488549618321,-2.427480916030534,3.2900763358778624
1748589380.6148279,0.1044921875,0.894287109375,0.470458984375,4.763358778625954,-2.9083969465648853,2.8396946564885495
1748589380.6248295,0.0986328125,0.89599609375,0.4580078125,3.099236641221374,-3.8702290076335877,3.183206106870229
1748589380.6348283,0.08642578125,0.907470703125,0.435302734375,0.5954198473282443,-5.488549618320611,3.618320610687023
1748589380.6448288,0.081787109375,0.924560546875,0.44677734375,-0.7709923664122137,-6.290076335877862,4.282442748091603
1748589380.6548295,0.071044921875,0.9599609375,0.483154296875,-0.6106870229007634,-6.374045801526718,4.038167938931298
1748589380.6648285,0.068115234375,0.98779296875,0.500732421875,0.33587786259541985,-6.358778625954199,3.786259541984733
1748589380.6748292,0.0498046875,1.0029296875,0.51904296875,2.5801526717557253,-5.534351145038168,3.2061068702290076
1748589380.684828,0.049072265625,1.00439453125,0.51953125,5.297709923664122,-4.244274809160306,2.8702290076335877
1748589380.6948292,0.057373046875,0.976318359375,0.5068359375,7.473282442748092,-4.458015267175573,2.6106870229007635
1748589380.7048287,0.06982421875,0.957275390625,0.489501953125,8.465648854961833,-6.1603053435114505,2.2061068702290076
1748589380.7148278,0.065673828125,0.9365234375,0.48291015625,9.641221374045802,-6.900763358778626,1.534351145038168
1748589380.7248468,0.061767578125,0.95263671875,0.4833984375,7.847328244274809,-6.679389312977099,0.1450381679389313
1748589380.73483,0.04736328125,0.92236328125,0.504150390625,9.473282442748092,-6.2748091603053435,-1.0610687022900764
1748589380.7448294,0.05908203125,0.93603515625,0.497314453125,9.610687022900763,-6.251908396946565,-2.2290076335877864
1748589380.7548301,0.056640625,0.89453125,0.48095703125,9.007633587786259,-7.259541984732825,-2.480916030534351
1748589380.7648292,0.044921875,0.880615234375,0.471435546875,8.717557251908397,-8.290076335877863,-2.1755725190839694
1748589380.7748306,0.043701171875,0.869140625,0.4638671875,7.984732824427481,-9.564885496183207,-3.8625954198473282
1748589380.7848294,0.057373046875,0.872802734375,0.474609375,6.625954198473282,-11.251908396946565,-1.549618320610687
1748589380.794829,0.076171875,0.88623046875,0.4990234375,5.3816793893129775,-12.50381679389313,-1.0229007633587786
1748589380.8048294,0.086181640625,0.89697265625,0.513671875,4.3816793893129775,-13.099236641221374,-0.8091603053435115
1748589380.8148305,0.08935546875,0.92431640625,0.51708984375,4.847328244274809,-13.19083969465649,-0.9541984732824428
1748589380.8248298,0.07861328125,0.93994140625,0.544189453125,5.33587786259542,-12.473282442748092,-1.6717557251908397
1748589380.83483,0.070556640625,0.914794921875,0.5283203125,5.916030534351145,-11.145038167938932,-1.7709923664122138
1748589380.844829,0.069091796875,0.90380859375,0.5078125,6.465648854961832,-11.022900763358779,-1.6870229007633588
1748589380.8548303,0.067626953125,0.8935546875,0.4794921875,6.091603053435114,-11.755725190839694,-1.3740458015267176
1748589380.8648298,0.07275390625,0.873046875,0.470703125,5.7251908396946565,-12.221374045801527,-1.5877862595419847
1748589380.8748298,0.079345703125,0.871337890625,0.454345703125,4.030534351145038,-12.969465648854962,-1.3282442748091603
1748589380.8848293,0.0859375,0.87548828125,0.48095703125,2.9236641221374047,-13.648854961832061,-1.6641221374045803
1748589380.89483,0.072265625,0.88623046875,0.4873046875,1.6412213740458015,-14.061068702290076,-2.4198473282442747
1748589380.9048293,0.072509765625,0.89501953125,0.505615234375,0.9236641221374046,-14.122137404580153,-3.4198473282442747
1748589380.9148297,0.07666015625,0.907958984375,0.50634765625,0.5343511450381679,-13.916030534351146,-4.175572519083969
1748589380.9248285,0.077880859375,0.9267578125,0.520751953125,1.900763358778626,-13.48091603053435,-4.2748091603053435
1748589380.9348288,0.076171875,0.933349609375,0.521484375,3.5343511450381677,-12.435114503816793,-4.282442748091603
1748589380.944829,0.049560546875,0.930419921875,0.541015625,4.061068702290076,-11.702290076335878,-4.541984732824427
1748589380.9548292,0.047119140625,0.918701171875,0.5400390625,4.717557251908397,-11.320610687022901,-3.8473282442748094
1748589380.9648294,0.048095703125,0.896484375,0.525634765625,6.0458015267175576,-10.931297709923664,-3.1526717557251906
1748589380.9748304,0.04345703125,0.87353515625,0.515625,6.152671755725191,-10.488549618320612,-2.519083969465649
1748589380.984829,0.037841796875,0.8525390625,0.505859375,4.702290076335878,-10.465648854961833,-2.0229007633587788
1748589380.994831,0.022216796875,0.845947265625,0.50341796875,2.5877862595419847,-10.351145038167939,-2.1526717557251906
1748589381.004829,0.03466796875,0.846435546875,0.507080078125,0.8015267175572519,-9.755725190839694,-2.053435114503817
1748589381.0148296,0.03369140625,0.848388671875,0.518798828125,-0.6183206106870229,-7.870229007633588,-2.3740458015267176
1748589381.0248291,0.037109375,0.870849609375,0.5234375,-3.4885496183206106,-9.80916030534351,-2.7480916030534353
1748589381.0348308,0.031005859375,0.8759765625,0.545654296875,-4.99236641221374,-9.351145038167939,-2.618320610687023
1748589381.0448291,0.034912109375,0.90625,0.564208984375,-5.519083969465649,-9.351145038167939,-2.8396946564885495
1748589381.0548298,0.021728515625,0.90478515625,0.5732421875,-4.931297709923665,-8.801526717557252,-2.5114503816793894
1748589381.0648298,0.005126953125,0.90966796875,0.58642578125,-3.0763358778625953,-7.938931297709924,-2.0916030534351147
1748589381.074831,-0.011474609375,0.9208984375,0.5927734375,-1.9083969465648856,-6.488549618320611,-1.5725190839694656
1748589381.0848293,0.00146484375,0.91748046875,0.5927734375,2.633587786259542,-6.625954198473282,-1.1068702290076335
1748589381.0948281,-0.006591796875,0.889892578125,0.574462890625,3.8396946564885495,-6.3816793893129775,-1.0076335877862594
1748589381.1048295,0.001220703125,0.88134765625,0.547607421875,3.427480916030534,-5.3893129770992365,-0.9694656488549618
1748589381.114831,0.026611328125,0.868408203125,0.533935546875,2.9923664122137406,-5.33587786259542,-1.083969465648855
1748589381.124829,0.036865234375,0.852783203125,0.535400390625,1.6259541984732824,-4.923664122137405,-1.8015267175572518
1748589381.134831,0.034423828125,0.853759765625,0.532470703125,0.03816793893129771,-3.946564885496183,-2.7938931297709924
1748589381.1448288,0.038330078125,0.84423828125,0.521240234375,-1.8854961832061068,-4.030534351145038,-3.5267175572519083
1748589381.1548305,0.03515625,0.848876953125,0.536376953125,-2.618320610687023,-4.213740458015267,-3.7099236641221376
1748589381.1648288,0.037841796875,0.86474609375,0.534912109375,-2.946564885496183,-4.129770992366412,-3.427480916030534
1748589381.1748302,0.037353515625,0.882568359375,0.529541015625,-4.114503816793893,-4.9465648854961835,-3.8702290076335877
1748589381.1848307,0.049072265625,0.88623046875,0.519287109375,-5.282442748091603,-6.2748091603053435,-3.732824427480916
1748589381.1948297,0.0498046875,0.8798828125,0.533447265625,-6.5038167938931295,-7.748091603053435,-3.3282442748091605
1748589381.2048295,0.0439453125,0.88330078125,0.5263671875,-7.755725190839694,-9.236641221374045,-2.984732824427481
1748589381.214831,0.03857421875,0.886474609375,0.524169921875,-8.045801526717558,-9.633587786259541,-2.9618320610687023
1748589381.2248304,0.036376953125,0.880615234375,0.5283203125,-7.709923664122138,-9.618320610687023,-3.0076335877862594
1748589381.234829,0.01611328125,0.884765625,0.53515625,-7.770992366412214,-9.580152671755725,-3.8473282442748094
1748589381.2448292,0.025634765625,0.90087890625,0.535888671875,-7.977099236641221,-9.282442748091603,-4.732824427480916
1748589381.2548292,0.04345703125,0.903564453125,0.516357421875,-7.00763358778626,-11.687022900763358,-5.549618320610687
1748589381.2648294,0.017333984375,0.900634765625,0.53759765625,-6.99236641221374,-8.587786259541986,-3.9236641221374047
1748589381.274829,0.044677734375,0.900146484375,0.536865234375,-7.374045801526718,-9.908396946564885,-6.343511450381679
1748589381.2848296,0.030517578125,0.910888671875,0.54345703125,-6.557251908396947,-10.381679389312977,-6.251908396946565
1748589381.2948287,0.046630859375,0.911865234375,0.5380859375,-6.435114503816794,-11.206106870229007,-5.99236641221374
1748589381.30483,0.027099609375,0.9130859375,0.54296875,-6.152671755725191,-11.106870229007633,-6.015267175572519
1748589381.3148296,0.016357421875,0.92138671875,0.552001953125,-5.374045801526718,-10.312977099236642,-5.290076335877862
1748589381.324829,0.00439453125,0.89453125,0.53564453125,-4.847328244274809,-9.465648854961833,-4.564885496183206
1748589381.3348289,-0.0009765625,0.890380859375,0.525634765625,-3.9618320610687023,-8.786259541984732,-3.969465648854962
1748589381.3448298,-0.007080078125,0.882080078125,0.510498046875,-4.137404580152672,-8.618320610687023,-2.015267175572519
1748589381.3548305,0.013916015625,0.860107421875,0.516357421875,-4.603053435114504,-8.564885496183207,-4.198473282442748
1748589381.3648295,-0.001708984375,0.89892578125,0.52783203125,-5.809160305343512,-9.625954198473282,-5.5038167938931295
1748589381.3748305,-0.00341796875,0.913818359375,0.530029296875,-4.900763358778626,-8.954198473282442,-5.679389312977099
1748589381.3848293,-0.024658203125,0.953125,0.5283203125,-3.9923664122137406,-6.748091603053435,-4.297709923664122
1748589381.394829,-0.01025390625,0.938232421875,0.51025390625,-2.4732824427480917,-5.977099236641221,-3.053435114503817
1748589381.4048285,-0.00927734375,0.9287109375,0.53173828125,-2.404580152671756,-6.198473282442748,-2.427480916030534
1748589381.4148302,-0.006591796875,0.91064453125,0.5322265625,-2.381679389312977,-4.595419847328245,-1.9083969465648856
1748589381.4248292,0.010498046875,0.906982421875,0.524169921875,-1.702290076335878,-2.8931297709923665,-1.4198473282442747
1748589381.4348297,0.01220703125,0.892822265625,0.5126953125,-0.9847328244274809,-3.099236641221374,-1.3358778625954197
1748589381.4448297,0.01904296875,0.9052734375,0.524658203125,-1.282442748091603,-2.9236641221374047,-1.4580152671755726
1748589381.4548297,0.02197265625,0.891845703125,0.531005859375,-2.7557251908396947,-2.717557251908397,-1.618320610687023
1748589381.46483,0.008056640625,0.9130859375,0.52099609375,-3.267175572519084,-2.1374045801526718,-1.4885496183206106
1748589381.4748387,-0.007568359375,0.92333984375,0.523193359375,-2.900763358778626,-0.42748091603053434,-0.9694656488549618
1748589381.484831,0.002197265625,0.90625,0.528564453125,-1.4122137404580153,-0.6030534351145038,-0.7862595419847328
1748589381.4948292,0.0126953125,0.9033203125,0.530029296875,0.46564885496183206,0.37404580152671757,-0.6946564885496184
1748589381.5048301,0.01708984375,0.889892578125,0.530517578125,0.40458015267175573,1.1450381679389312,-0.7709923664122137
1748589381.5148308,-0.010009765625,0.87841796875,0.507080078125,-0.6412213740458015,2.435114503816794,-0.17557251908396945
1748589381.5248353,0.01318359375,0.87451171875,0.4912109375,-2.7709923664122136,3.351145038167939,-0.12213740458015267
1748589381.5348377,0.0234375,0.88525390625,0.500732421875,-3.8473282442748094,2.3206106870229006,0.48091603053435117
1748589381.544856,0.01416015625,0.899169921875,0.49755859375,-2.1068702290076335,2.5572519083969465,0.7862595419847328
1748589381.55483,0.03662109375,0.90185546875,0.511474609375,-0.24427480916030533,2.099236641221374,1.1755725190839694
1748589381.564831,0.0390625,0.91064453125,0.52197265625,0.4351145038167939,2.015267175572519,1.381679389312977
1748589381.5748296,0.039306640625,0.90625,0.521484375,0.9465648854961832,2.7404580152671754,1.0458015267175573
1748589381.584829,0.028564453125,0.90771484375,0.5087890625,0.9541984732824428,2.9160305343511452,0.9923664122137404
1748589381.594812,0.02880859375,0.90234375,0.495849609375,0.11450381679389313,3.984732824427481,0.42748091603053434
1748589381.6048348,0.078125,0.896484375,0.51123046875,-1.4427480916030535,2.6793893129770994,-2.404580152671756
1748589381.6148312,0.131591796875,0.877197265625,0.5244140625,-2.1068702290076335,0.37404580152671757,-5.6183206106870225
1748589381.6248295,0.0185546875,0.894287109375,0.52685546875,-5.587786259541985,0.5572519083969466,-4.038167938931298
1748589381.6348276,-0.072265625,0.939453125,0.518798828125,-8.748091603053435,4.480916030534351,-0.9007633587786259
1748589381.6448293,-0.048828125,0.973876953125,0.498291015625,-2.9083969465648853,7.244274809160306,0.183206106870229
1748589381.654833,0.045166015625,0.94873046875,0.5068359375,3.66412213740458,5.8396946564885495,1.381679389312977
1748589381.6648288,0.024658203125,0.90771484375,0.503662109375,2.763358778625954,5.916030534351145,1.9312977099236641
1748589381.674831,0.00537109375,0.899169921875,0.497314453125,0.9923664122137404,7.259541984732825,2.4656488549618323
1748589381.6848297,-0.02685546875,0.907958984375,0.4951171875,1.297709923664122,7.3816793893129775,3.2900763358778624
1748589381.6948326,-0.0390625,0.919189453125,0.49267578125,1.9923664122137406,10.473282442748092,5.312977099236641
1748589381.7048295,0.0087890625,0.9365234375,0.47314453125,2.572519083969466,11.106870229007633,6.809160305343512
1748589381.71483,-0.017333984375,0.9638671875,0.4609375,4.526717557251908,10.98473282442748,9.404580152671755
1748589381.724828,0.00927734375,0.942138671875,0.48388671875,6.3893129770992365,10.16793893129771,10.061068702290076
1748589381.7348292,0.044677734375,0.94140625,0.513916015625,6.801526717557252,9.748091603053435,9.51908396946565
1748589381.7448294,0.0947265625,0.903564453125,0.52587890625,8.145038167938932,6.00763358778626,6.961832061068702
1748589381.7548287,0.0634765625,0.886474609375,0.5302734375,6.740458015267175,2.3893129770992365,5.648854961832061
1748589381.7648304,0.021484375,0.94873046875,0.521240234375,5.198473282442748,4.557251908396947,5.6183206106870225
1748589381.7748306,0.04150390625,0.96484375,0.502197265625,5.183206106870229,5.9541984732824424,4.969465648854962
1748589381.784831,0.072021484375,0.911865234375,0.45947265625,10.274809160305344,2.786259541984733,5.282442748091603
1748589381.7948303,0.0556640625,0.83544921875,0.49462890625,9.022900763358779,3.5419847328244276,2.8091603053435112
1748589381.8048294,0.065185546875,0.851318359375,0.4892578125,4.030534351145038,-0.3511450381679389,2.198473282442748
1748589381.81483,0.03759765625,0.86083984375,0.495849609375,2.282442748091603,0.6946564885496184,2.1526717557251906
1748589381.824829,0.076171875,0.85693359375,0.5048828125,1.3206106870229009,-1.6870229007633588,0.6641221374045801
1748589381.8348308,0.04443359375,0.814697265625,0.52783203125,-1.0458015267175573,-3.6412213740458017,-1.3511450381679388
1748589381.8448298,0.0400390625,0.8408203125,0.5458984375,-5.068702290076335,-5.00763358778626,-2.7099236641221376
1748589381.85483,0.033935546875,0.8525390625,0.544921875,-7.305343511450381,-5.679389312977099,-3.633587786259542
1748589381.86483,0.020751953125,0.851806640625,0.527099609375,-7.969465648854962,-6.1679389312977095,-4.106870229007634
1748589381.8748305,0.02880859375,0.85693359375,0.516845703125,-8.908396946564885,-5.938931297709924,-4.259541984732825
1748589381.8848298,0.020263671875,0.880126953125,0.5166015625,-9.770992366412214,-5.977099236641221,-4.786259541984733
1748589381.894831,0.046630859375,0.880859375,0.5107421875,-11.351145038167939,-8.885496183206106,-5.847328244274809
1748589381.9048305,0.03076171875,0.90576171875,0.51025390625,-15.305343511450381,-11.396946564885496,-4.862595419847328
1748589381.9148293,0.028564453125,0.907958984375,0.530029296875,-17.49618320610687,-11.916030534351146,-4.938931297709924
1748589381.9248292,0.066650390625,0.9765625,0.519287109375,-17.80916030534351,-16.763358778625953,-3.816793893129771
1748589381.9348302,-0.0849609375,1.02294921875,0.525390625,-12.748091603053435,-9.931297709923664,-2.33587786259542
1748589381.944829,0.021240234375,0.96435546875,0.513671875,-3.9770992366412212,-5.770992366412214,-2.1068702290076335
1748589381.9548292,0.00390625,0.92041015625,0.46044921875,-0.6946564885496184,-6.694656488549619,-3.366412213740458
1748589381.964831,0.04150390625,0.875244140625,0.494140625,-4.488549618320611,-8.84732824427481,-4.656488549618321
1748589381.9748325,0.02392578125,0.929443359375,0.498291015625,-11.473282442748092,-10.404580152671755,-2.7709923664122136
1748589381.9848306,0.04833984375,0.958251953125,0.491455078125,-8.870229007633588,-10.50381679389313,0.2900763358778626
1748589381.9948318,0.05615234375,0.931884765625,0.51806640625,-6.206106870229007,-10.67175572519084,0.6335877862595419
1748589382.004831,0.027587890625,0.9609375,0.476318359375,-6.473282442748092,-11.198473282442748,2.183206106870229
1748589382.0148306,0.04345703125,0.9580078125,0.5048828125,-8.129770992366412,-11.755725190839694,4.396946564885496
1748589382.0248294,-0.02685546875,0.992919921875,0.50927734375,-9.465648854961833,-10.816793893129772,8.412213740458014
1748589382.0348325,-0.066162109375,0.970458984375,0.52197265625,-8.770992366412214,-6.015267175572519,10.84732824427481
1748589382.0448296,-0.01708984375,0.923583984375,0.47900390625,-4.786259541984733,-5.251908396946565,10.396946564885496
1748589382.0548341,-0.044189453125,0.8896484375,0.4580078125,-1.8702290076335877,-2.9389312977099236,9.709923664122137
1748589382.0648308,0.003662109375,0.875244140625,0.464599609375,-6.290076335877862,-5.488549618320611,7.0458015267175576
1748589382.0748303,0.01171875,0.958984375,0.493896484375,-12.694656488549619,-6.32824427480916,8.465648854961833
1748589382.0848296,0.045654296875,0.970947265625,0.509521484375,-14.900763358778626,-9.099236641221374,9.351145038167939
1748589382.09483,0.0126953125,0.980712890625,0.517333984375,-13.458015267175572,-7.969465648854962,9.610687022900763
1748589382.1048293,0.028076171875,0.9140625,0.5009765625,-12.19083969465649,-9.244274809160306,7.549618320610687
1748589382.1148298,-0.0927734375,0.971435546875,0.53076171875,-17.564885496183205,-6.633587786259542,8.748091603053435
1748589382.1248283,-0.034912109375,0.9375,0.48583984375,-14.435114503816793,-6.198473282442748,5.0534351145038165
1748589382.1348307,-0.04150390625,0.94970703125,0.46630859375,-14.305343511450381,-3.9236641221374047,1.3282442748091603
1748589382.144832,0.0048828125,0.866455078125,0.477294921875,-14.541984732824428,-7.770992366412214,-3.4885496183206106
1748589382.1548295,-0.04833984375,0.919921875,0.4775390625,-15.992366412213741,-7.809160305343512,-4.801526717557252
1748589382.1648302,-0.01611328125,0.908935546875,0.491455078125,-15.106870229007633,-1.5190839694656488,-4.900763358778626
1748589382.1748302,-0.0048828125,0.893310546875,0.486083984375,-15.229007633587786,-0.7022900763358778,-5.984732824427481
1748589382.1848297,0.01318359375,0.92822265625,0.4677734375,-15.770992366412214,-1.6564885496183206,-8.526717557251908
1748589382.1948307,-0.050048828125,0.927001953125,0.462158203125,-20.0381679389313,-2.351145038167939,-8.969465648854962
1748589382.2048302,-0.040771484375,0.920166015625,0.459228515625,-19.46564885496183,-1.3053435114503817,-7.320610687022901
1748589382.21483,-0.021728515625,0.88525390625,0.4638671875,-17.50381679389313,-1.183206106870229,-6.969465648854962
1748589382.2248294,-0.009033203125,0.910400390625,0.462890625,-20.732824427480917,-0.916030534351145,-7.709923664122138
1748589382.2348297,-0.0283203125,0.93212890625,0.4248046875,-19.27480916030534,-1.4809160305343512,-5.0
1748589382.2448301,-0.00048828125,0.907470703125,0.4423828125,-12.381679389312977,3.0381679389312977,-0.29770992366412213
1748589382.2548306,0.007568359375,0.91943359375,0.44580078125,-14.106870229007633,4.816793893129771,3.885496183206107
1748589382.264829,0.028564453125,0.8759765625,0.447265625,-15.961832061068701,7.351145038167939,4.374045801526718
1748589382.2748291,0.01513671875,0.997802734375,0.453857421875,-22.404580152671755,7.076335877862595,1.916030534351145
1748589382.2848299,0.01806640625,0.989501953125,0.37841796875,-13.86259541984733,2.6030534351145036,-5.099236641221374
1748589382.2948284,0.017822265625,0.896240234375,0.426513671875,-12.854961832061068,-0.8854961832061069,-7.229007633587786
1748589382.304833,-0.0166015625,0.884033203125,0.4228515625,-16.15267175572519,-4.603053435114504,-8.580152671755725
1748589382.31483,-0.026611328125,0.84326171875,0.461181640625,-19.81679389312977,2.6106870229007635,-8.374045801526718
1748589382.3248296,0.068115234375,0.8486328125,0.474853515625,-31.702290076335878,1.8091603053435115,-11.282442748091603
1748589382.3348303,0.030029296875,0.933837890625,0.376220703125,-24.519083969465647,-2.8473282442748094,-9.458015267175572
1748589382.3448298,0.013671875,1.010986328125,0.367431640625,-22.236641221374047,-1.3282442748091603,-5.33587786259542
1748589382.35483,0.044677734375,1.037109375,0.4169921875,-29.69465648854962,-0.08396946564885496,-5.541984732824427
1748589382.3648288,0.053955078125,1.057373046875,0.432861328125,-33.55725190839695,0.5725190839694656,-7.679389312977099
1748589382.37483,0.054443359375,1.062744140625,0.43994140625,-29.389312977099237,-0.7633587786259542,-8.549618320610687
1748589382.3848293,0.0498046875,1.09716796875,0.38818359375,-17.610687022900763,-2.954198473282443,-9.213740458015268
1748589382.3948305,0.0712890625,1.10595703125,0.353271484375,-11.740458015267176,-0.16030534351145037,-9.534351145038167
1748589382.404829,0.082275390625,1.10205078125,0.328857421875,-20.69465648854962,-3.9236641221374047,-12.16030534351145
1748589382.4148304,0.080322265625,1.14453125,0.352294921875,-24.66412213740458,-7.801526717557252,-13.969465648854962
1748589382.4248283,0.054443359375,1.14892578125,0.35400390625,-18.80916030534351,-5.320610687022901,-12.458015267175572
1748589382.434831,0.01611328125,1.135986328125,0.415771484375,-10.86259541984733,-3.7251908396946565,-12.366412213740459
1748589382.44483,-0.04248046875,1.218505859375,0.435302734375,-9.900763358778626,1.1374045801526718,-16.931297709923665
1748589382.4548302,-0.0390625,1.29833984375,0.457763671875,-16.85496183206107,8.603053435114504,-21.83969465648855
1748589382.4648294,0.031494140625,1.2568359375,0.44482421875,-15.389312977099237,5.656488549618321,-22.793893129770993
1748589382.4748304,0.04296875,1.29736328125,0.417236328125,-3.6564885496183206,-2.2977099236641223,-21.96946564885496
1748589382.4848294,0.016845703125,1.298828125,0.38232421875,7.2748091603053435,-1.9923664122137406,-19.740458015267176
1748589382.4948292,-0.00048828125,1.177734375,0.3935546875,16.251908396946565,1.3129770992366412,-19.603053435114504
1748589382.5048304,-0.036376953125,1.01708984375,0.395263671875,20.740458015267176,5.0458015267175576,-17.633587786259543
1748589382.514833,-0.005126953125,0.800537109375,0.38916015625,19.603053435114504,9.427480916030534,-11.106870229007633
1748589382.5248346,0.04345703125,0.569580078125,0.3837890625,18.793893129770993,7.603053435114504,-4.763358778625954
1748589382.5348315,-0.029296875,0.465087890625,0.40478515625,-5.206106870229007,-0.816793893129771,-0.03816793893129771
1748589382.5448346,0.022705078125,0.51904296875,0.400634765625,-4.801526717557252,24.740458015267176,4.6183206106870225
1748589382.5548315,0.063720703125,0.490966796875,0.35986328125,1.7328244274809161,3.4427480916030535,12.114503816793894
1748589382.56483,-0.08544921875,0.488037109375,0.318603515625,8.122137404580153,7.770992366412214,14.01526717557252
1748589382.5748336,-0.055419921875,0.52294921875,0.357421875,10.358778625954198,10.992366412213741,16.47328244274809
1748589382.5848334,-0.18408203125,0.599609375,0.462158203125,4.00763358778626,20.64885496183206,15.236641221374045
1748589382.5948312,0.012939453125,0.808349609375,0.4765625,-9.801526717557252,15.702290076335878,11.938931297709924
1748589382.60483,0.010009765625,0.895263671875,0.44580078125,-8.244274809160306,14.038167938931299,11.17557251908397
1748589382.6148293,0.00927734375,0.949951171875,0.43798828125,-4.717557251908397,13.450381679389313,13.717557251908397
1748589382.624829,0.014404296875,0.895263671875,0.412353515625,-7.809160305343512,13.82442748091603,16.267175572519083
1748589382.634829,-0.013916015625,0.921630859375,0.4033203125,-12.84732824427481,14.595419847328245,18.297709923664122
1748589382.6448286,0.03955078125,0.9384765625,0.3984375,-11.610687022900763,15.221374045801527,14.778625954198473
1748589382.6548305,0.135009765625,1.0361328125,0.386962890625,0.732824427480916,14.931297709923664,10.450381679389313
1748589382.664829,0.166259765625,1.03173828125,0.330078125,9.938931297709924,13.274809160305344,8.259541984732824
1748589382.674831,0.123291015625,0.9951171875,0.33935546875,18.259541984732824,13.946564885496183,6.190839694656488
1748589382.6848302,0.099853515625,0.9794921875,0.340087890625,20.068702290076335,13.82442748091603,4.862595419847328
1748589382.6948295,0.07275390625,0.978271484375,0.366943359375,21.717557251908396,12.641221374045802,3.16793893129771
1748589382.7048306,0.034423828125,0.952880859375,0.379638671875,20.106870229007633,9.755725190839694,2.045801526717557
1748589382.7148294,0.10888671875,1.0009765625,0.39697265625,15.221374045801527,5.137404580152672,4.99236641221374
1748589382.7248306,0.0634765625,0.983154296875,0.430419921875,15.778625954198473,1.3587786259541985,4.229007633587786
1748589382.7348285,0.05615234375,0.95361328125,0.40185546875,17.61832061068702,0.7786259541984732,5.8320610687022905
1748589382.7448304,0.076416015625,0.91455078125,0.389892578125,13.290076335877863,-1.0458015267175573,3.7251908396946565
1748589382.7548294,0.017333984375,0.9150390625,0.390625,10.778625954198473,-1.4809160305343512,1.748091603053435
1748589382.7648296,0.02099609375,0.929443359375,0.406005859375,10.282442748091603,-2.030534351145038,2.282442748091603
1748589382.7748294,0.0224609375,0.952392578125,0.4140625,11.381679389312977,-1.8091603053435115,3.366412213740458
1748589382.7848306,0.014404296875,0.990478515625,0.418701171875,11.13740458015267,-1.0610687022900764,3.1755725190839694
1748589382.7948313,0.041748046875,1.0107421875,0.402099609375,14.419847328244275,-3.816793893129771,3.7786259541984735
1748589382.8048303,-0.0234375,0.98779296875,0.424072265625,18.65648854961832,-2.9083969465648853,5.412213740458015
1748589382.8148296,-0.0380859375,0.925048828125,0.440185546875,16.595419847328245,-2.7251908396946565,6.778625954198473
1748589382.8248293,0.017333984375,0.916259765625,0.457763671875,10.992366412213741,-3.0839694656488548,6.4961832061068705
1748589382.83483,0.00927734375,0.865966796875,0.473876953125,9.587786259541986,-2.9770992366412212,4.480916030534351
1748589382.8448284,0.02294921875,0.911865234375,0.466796875,5.549618320610687,-2.3206106870229006,3.6030534351145036
1748589382.854831,-0.01171875,0.91748046875,0.431640625,6.625954198473282,-1.5114503816793894,4.809160305343512
1748589382.8648293,-0.0205078125,0.9248046875,0.429931640625,7.061068702290076,1.2900763358778626,6.030534351145038
1748589382.8748307,0.001220703125,0.94140625,0.4443359375,7.145038167938932,1.7557251908396947,7.297709923664122
1748589382.8848293,0.001708984375,0.956298828125,0.448974609375,7.0534351145038165,1.5267175572519085,8.702290076335878
1748589382.8948305,-0.00732421875,0.93212890625,0.47705078125,7.198473282442748,3.6106870229007635,9.900763358778626
1748589382.904831,-0.05712890625,0.91748046875,0.49267578125,3.099236641221374,4.32824427480916,12.0
1748589382.9148297,-0.066162109375,0.91259765625,0.4697265625,-1.465648854961832,6.190839694656488,13.282442748091603
1748589382.9248292,-0.00341796875,0.928955078125,0.465576171875,-2.183206106870229,4.938931297709924,12.641221374045802
1748589382.9348388,0.066650390625,0.83154296875,0.4638671875,-0.5572519083969466,5.748091603053435,9.916030534351146
1748589382.9448297,0.001708984375,0.9345703125,0.4365234375,-7.183206106870229,4.908396946564886,9.633587786259541
1748589382.9548306,0.0234375,0.9521484375,0.441650390625,-4.32824427480916,7.656488549618321,7.267175572519084
1748589382.9648294,0.036865234375,0.910400390625,0.474365234375,0.42748091603053434,6.061068702290076,5.534351145038168
1748589382.9748309,-0.0390625,0.993408203125,0.454345703125,-1.5114503816793894,7.106870229007634,6.236641221374046
1748589382.9848294,-0.030029296875,0.956298828125,0.481689453125,0.16030534351145037,8.442748091603054,4.809160305343512
1748589382.99483,0.007080078125,0.967041015625,0.479248046875,4.351145038167939,3.946564885496183,5.106870229007634
1748589383.0048296,0.023193359375,0.878662109375,0.499755859375,4.99236641221374,8.13740458015267,3.2519083969465647
1748589383.0148282,0.004638671875,0.819091796875,0.478271484375,2.7404580152671754,6.213740458015267,1.8702290076335877
1748589383.0248268,0.045166015625,0.84619140625,0.4462890625,-1.1526717557251909,3.267175572519084,1.9694656488549618
1748589383.034828,-0.014404296875,0.8544921875,0.4482421875,-2.198473282442748,5.8396946564885495,1.1984732824427482
1748589383.0448277,0.0693359375,0.90625,0.455322265625,-2.213740458015267,-0.7557251908396947,0.33587786259541985
1748589383.0548265,0.049560546875,0.939453125,0.484375,-1.900763358778626,-0.6641221374045801,-1.6564885496183206
1748589383.0648282,-0.008056640625,0.91162109375,0.466796875,0.45038167938931295,-2.145038167938931,-2.351145038167939
1748589383.0748305,0.015380859375,0.96435546875,0.5,-2.267175572519084,-0.8549618320610687,-3.7938931297709924
1748589383.0848267,0.031005859375,0.95947265625,0.48095703125,3.122137404580153,-1.6106870229007633,-5.091603053435114
1748589383.094828,-0.0419921875,0.982666015625,0.470947265625,5.061068702290076,-5.702290076335878,-7.679389312977099
1748589383.1048276,-0.004150390625,0.9619140625,0.45703125,8.954198473282442,-2.8396946564885495,-7.0458015267175576
1748589383.1148303,-0.0224609375,0.990478515625,0.4775390625,12.305343511450381,1.7938931297709924,-4.366412213740458
1748589383.1248295,-0.02392578125,0.9140625,0.48388671875,11.900763358778626,-1.1526717557251909,-3.9618320610687023
1748589383.1348321,0.027099609375,0.8837890625,0.418212890625,8.030534351145038,-4.091603053435114,-3.1755725190839694
1748589383.1448293,-0.058837890625,0.971435546875,0.44970703125,4.6106870229007635,0.7175572519083969,-2.0916030534351147
1748589383.15483,0.027099609375,0.933349609375,0.427490234375,9.732824427480915,-1.7557251908396947,-2.2290076335877864
1748589383.164829,-0.00244140625,0.926025390625,0.469970703125,7.282442748091603,-2.2595419847328246,-2.9236641221374047
1748589383.1748304,-0.01171875,0.9443359375,0.47509765625,4.564885496183206,-3.1526717557251906,-3.404580152671756
1748589383.1848288,0.01806640625,0.932373046875,0.461669921875,7.221374045801527,-3.4427480916030535,-2.969465648854962
1748589383.1948316,0.000732421875,0.87939453125,0.470458984375,6.366412213740458,-4.580152671755725,-3.854961832061069
1748589383.2048316,-0.031494140625,0.946044921875,0.458984375,4.465648854961832,-0.7633587786259542,-0.9007633587786259
1748589383.214831,0.007568359375,0.89208984375,0.435791015625,9.740458015267176,-1.8396946564885497,-0.9618320610687023
1748589383.224833,0.007568359375,0.864501953125,0.4677734375,8.404580152671755,-3.8244274809160306,-1.8473282442748091
1748589383.23483,-0.00634765625,0.872802734375,0.48095703125,4.450381679389313,-0.7709923664122137,-2.8702290076335877
1748589383.24483,-0.0078125,0.9248046875,0.4736328125,4.190839694656488,-2.1603053435114505,-3.6412213740458017
1748589383.25483,0.001953125,0.939697265625,0.48193359375,5.580152671755725,-1.9083969465648856,-3.7022900763358777
1748589383.2648287,0.001220703125,0.944091796875,0.49267578125,5.030534351145038,-2.3893129770992365,-4.297709923664122
1748589383.2748282,0.00927734375,0.95068359375,0.498291015625,3.885496183206107,-2.732824427480916,-4.206106870229007
1748589383.28483,-0.002197265625,0.96630859375,0.4814453125,4.427480916030534,-3.3053435114503817,-3.9236641221374047
1748589383.2948303,0.0048828125,0.951904296875,0.48291015625,6.465648854961832,-3.3893129770992365,-4.0534351145038165
1748589383.3048308,0.019775390625,0.90185546875,0.476806640625,6.480916030534351,-4.244274809160306,-5.366412213740458
1748589383.31483,0.034423828125,0.878662109375,0.46142578125,5.7251908396946565,-5.030534351145038,-6.068702290076335
1748589383.3248296,0.06201171875,0.879638671875,0.47802734375,5.763358778625954,-6.3893129770992365,-7.282442748091603
1748589383.3348296,-0.043212890625,0.94189453125,0.4609375,1.3358778625954197,-5.625954198473282,-6.221374045801527
1748589383.3448298,-0.1015625,0.97412109375,0.474853515625,5.458015267175573,-2.3893129770992365,-4.305343511450381
1748589383.3548303,-0.004150390625,0.923095703125,0.49853515625,8.01526717557252,-3.045801526717557,-3.7480916030534353
1748589383.3648295,-0.024169921875,0.897216796875,0.492919921875,4.190839694656488,-3.66412213740458,-4.152671755725191
1748589383.3748293,0.01708984375,0.9052734375,0.489013671875,1.5190839694656488,-3.213740458015267,-5.1603053435114505
1748589383.3848298,-0.001220703125,0.881103515625,0.481201171875,2.8473282442748094,-3.931297709923664,-4.6106870229007635
1748589383.394829,0.00927734375,0.904296875,0.490234375,1.7786259541984732,-1.9541984732824427,-5.091603053435114
1748589383.4048293,0.01904296875,0.909423828125,0.48828125,1.4580152671755726,-4.549618320610687,-5.442748091603053
1748589383.4148357,0.01611328125,0.87158203125,0.493896484375,2.6946564885496183,-3.7786259541984735,-6.091603053435114
1748589383.4248316,-0.107177734375,0.956298828125,0.504638671875,-3.900763358778626,-5.824427480916031,-6.091603053435114
1748589383.4348314,0.06640625,0.911376953125,0.443603515625,1.9541984732824427,-6.458015267175573,-7.3893129770992365
1748589383.444851,0.029052734375,0.91259765625,0.4912109375,1.4427480916030535,-8.198473282442748,-7.244274809160306
1748589383.4548306,-0.015380859375,0.899169921875,0.475341796875,0.5877862595419847,-7.229007633587786,-6.145038167938932
1748589383.4648304,0.007568359375,0.918212890625,0.465576171875,1.4580152671755726,-8.549618320610687,-5.549618320610687
1748589383.47483,0.00927734375,0.8984375,0.4794921875,0.6030534351145038,-7.847328244274809,-5.366412213740458
1748589383.4848297,-0.011474609375,0.90234375,0.499267578125,-3.045801526717557,-8.404580152671755,-4.824427480916031
1748589383.4948301,0.0146484375,0.92041015625,0.49609375,-3.572519083969466,-8.251908396946565,-4.793893129770993
1748589383.5048301,-0.010009765625,0.904052734375,0.51171875,-3.2290076335877864,-7.603053435114504,-4.564885496183206
1748589383.5148299,-0.0068359375,0.908203125,0.49072265625,-3.8244274809160306,-8.366412213740459,-4.2748091603053435
1748589383.5248358,-0.018310546875,0.892333984375,0.513427734375,-4.267175572519084,-7.106870229007634,-4.251908396946565
1748589383.5349648,0.001220703125,0.91259765625,0.49267578125,-3.4656488549618323,-6.679389312977099,-3.7251908396946565
1748589383.5448425,-0.010986328125,0.908203125,0.483642578125,-2.4580152671755724,-5.435114503816794,-3.16793893129771
1748589383.5548291,-0.0244140625,0.909423828125,0.5,-3.50381679389313,-4.114503816793893,-2.9236641221374047
1748589383.5648296,-0.041015625,0.93310546875,0.495849609375,-3.3893129770992365,-3.717557251908397,-2.0839694656488548
1748589383.5748334,-0.021728515625,0.92138671875,0.48828125,-1.549618320610687,-1.816793893129771,-1.3435114503816794
1748589383.584829,-0.013916015625,0.918212890625,0.48583984375,-2.5343511450381677,-0.9847328244274809,-0.5419847328244275
1748589383.5948327,-0.01904296875,0.92236328125,0.48583984375,-3.145038167938931,-0.2900763358778626,-0.16793893129770993
1748589383.6048305,-0.005615234375,0.92431640625,0.472900390625,-2.4885496183206106,0.2595419847328244,0.45038167938931295
1748589383.6148212,0.002197265625,0.90966796875,0.4814453125,-2.3587786259541983,1.251908396946565,0.5725190839694656
1748589383.6248257,0.02294921875,0.893310546875,0.488525390625,-2.8625954198473282,1.0916030534351144,0.7557251908396947
1748589383.6348271,0.01416015625,0.8984375,0.494384765625,-3.969465648854962,1.9312977099236641,0.5419847328244275
1748589383.6448264,0.01025390625,0.895751953125,0.49951171875,-4.824427480916031,1.8473282442748091,0.3282442748091603
1748589383.6548276,0.00537109375,0.911376953125,0.489501953125,-5.442748091603053,1.8396946564885497,0.12213740458015267
1748589383.6648266,0.01171875,0.913330078125,0.484375,-5.419847328244275,1.5419847328244274,-0.16030534351145037
1748589383.674828,0.015380859375,0.93212890625,0.494873046875,-4.900763358778626,1.5114503816793894,-0.48091603053435117
1748589383.6848266,-0.009521484375,0.926513671875,0.47900390625,-3.8396946564885495,0.03816793893129771,-0.3816793893129771
1748589383.6948278,-0.005615234375,0.932861328125,0.498291015625,-3.4732824427480917,2.3282442748091605,0.03816793893129771
1748589383.704819,0.00537109375,0.926513671875,0.493896484375,-2.801526717557252,2.33587786259542,0.5267175572519084
1748589383.7148275,0.0029296875,0.921142578125,0.49267578125,-2.2442748091603053,2.50381679389313,0.5343511450381679
1748589383.7248263,0.010009765625,0.91943359375,0.49072265625,-2.6030534351145036,2.49618320610687,0.9694656488549618
1748589383.7348275,0.01806640625,0.90087890625,0.4775390625,-1.5267175572519085,1.2671755725190839,0.9312977099236641
1748589383.7448268,0.00927734375,0.9033203125,0.4853515625,-2.381679389312977,0.8778625954198473,0.2900763358778626
1748589383.7548275,0.01806640625,0.89794921875,0.49267578125,-2.6946564885496183,-0.08396946564885496,-0.5572519083969466
1748589383.764827,0.0107421875,0.895263671875,0.496826171875,-3.0229007633587788,-1.381679389312977,-1.0229007633587786
1748589383.7748272,0.0146484375,0.91357421875,0.4892578125,-3.2595419847328246,-2.0763358778625953,-1.8854961832061068
1748589383.7848277,0.033447265625,0.907958984375,0.48681640625,-2.145038167938931,-3.6717557251908395,-2.427480916030534
1748589383.7948275,0.02099609375,0.9072265625,0.488525390625,-2.053435114503817,-4.419847328244275,-3.351145038167939
1748589383.8048265,0.019775390625,0.906494140625,0.49169921875,-2.4885496183206106,-5.572519083969466,-4.572519083969466
1748589383.8148274,0.030029296875,0.904541015625,0.4951171875,-2.8702290076335877,-6.816793893129771,-6.297709923664122
1748589383.8248274,0.170166015625,0.84423828125,0.489990234375,-3.030534351145038,-12.557251908396946,-10.091603053435115
1748589383.8348274,-0.110595703125,0.936279296875,0.494873046875,-6.5038167938931295,-8.389312977099237,-8.694656488549619
1748589383.8448265,-0.009521484375,0.9365234375,0.4248046875,0.7938931297709924,-7.877862595419847,-10.526717557251908
1748589383.854827,0.099609375,0.887939453125,0.497314453125,-0.04580152671755725,-17.801526717557252,-13.625954198473282
1748589383.8648298,-0.123779296875,0.922119140625,0.480712890625,-9.908396946564885,-10.206106870229007,-11.358778625954198
1748589383.8748267,-0.011474609375,0.944580078125,0.413330078125,-2.1374045801526718,-14.221374045801527,-11.595419847328245
1748589383.8848271,-0.0595703125,0.93115234375,0.471435546875,-3.2213740458015265,-11.297709923664122,-8.50381679389313
1748589383.894827,-0.03369140625,0.94287109375,0.476806640625,-5.320610687022901,-11.274809160305344,-8.068702290076336
1748589383.904827,-0.0205078125,0.946533203125,0.470947265625,-5.770992366412214,-10.236641221374045,-7.404580152671755
1748589383.9148273,-0.046630859375,0.946533203125,0.468994140625,-3.4198473282442747,-8.98473282442748,-7.267175572519084
1748589383.924827,-0.017333984375,0.94970703125,0.458984375,-2.1068702290076335,-9.061068702290076,-7.320610687022901
1748589383.9348228,-0.002685546875,0.932861328125,0.45703125,-1.6259541984732824,-8.32824427480916,-7.358778625954199
1748589383.9448268,0.014404296875,0.92431640625,0.45361328125,-1.213740458015267,-8.51908396946565,-8.030534351145038
1748589383.9548273,-0.05908203125,0.922607421875,0.4619140625,-2.5267175572519083,-7.442748091603053,-6.916030534351145
1748589383.964827,-0.00634765625,0.95361328125,0.449462890625,-0.5419847328244275,-7.625954198473282,-5.572519083969466
1748589383.9748313,-0.05078125,0.958251953125,0.468017578125,0.7175572519083969,-4.290076335877862,-4.145038167938932
1748589383.9848297,-0.030029296875,0.896484375,0.456787109375,0.6793893129770993,-5.206106870229007,-3.4580152671755724
1748589383.9948308,0.023681640625,0.9658203125,0.4755859375,-1.4580152671755726,-6.129770992366412,-4.259541984732825
1748589384.0048294,0.0126953125,0.94482421875,0.483642578125,3.3053435114503817,-4.847328244274809,-4.763358778625954
1748589384.0148294,0.036865234375,0.916015625,0.47314453125,1.6641221374045803,-6.068702290076335,-5.99236641221374
1748589384.0248291,-0.021484375,0.905029296875,0.47412109375,1.8854961832061068,-5.2748091603053435,-7.00763358778626
1748589384.0348303,0.057861328125,0.931640625,0.45654296875,0.46564885496183206,-7.2748091603053435,-8.473282442748092
1748589384.0448291,0.01904296875,0.920654296875,0.465087890625,-0.4580152671755725,-7.687022900763359,-10.282442748091603
1748589384.05483,0.00439453125,0.9140625,0.464599609375,-1.2290076335877862,-7.748091603053435,-11.587786259541986
1748589384.0648293,-0.002685546875,0.90771484375,0.47900390625,-0.2748091603053435,-6.763358778625954,-12.618320610687023
1748589384.074829,0.0029296875,0.909423828125,0.482666015625,0.8244274809160306,-7.534351145038168,-12.595419847328245
1748589384.0848298,-0.018798828125,0.895751953125,0.485107421875,-0.5190839694656488,-6.442748091603053,-12.15267175572519
1748589384.0948293,-0.033447265625,0.927001953125,0.482421875,-1.1068702290076335,-6.3816793893129775,-10.49618320610687
1748589384.1048293,-0.07177734375,0.9326171875,0.478271484375,-2.0916030534351147,-4.9465648854961835,-9.732824427480915
1748589384.1148305,-0.078125,0.93408203125,0.472412109375,-1.015267175572519,-3.763358778625954,-5.320610687022901
1748589384.1248288,-0.017578125,0.9140625,0.481689453125,-0.816793893129771,-4.129770992366412,-4.847328244274809
1748589384.1348307,0.000732421875,0.911865234375,0.4775390625,-1.8702290076335877,-5.022900763358779,-4.923664122137405
1748589384.1448298,0.009765625,0.91796875,0.4755859375,-1.1526717557251909,-5.641221374045801,-5.106870229007634
1748589384.1548307,0.017822265625,0.907470703125,0.471923828125,-0.7404580152671756,-6.091603053435114,-3.9160305343511452
1748589384.1648293,0.017333984375,0.911865234375,0.472900390625,-1.6870229007633588,-6.015267175572519,-6.419847328244275
1748589384.1748307,0.03076171875,0.913330078125,0.47412109375,-1.8549618320610688,-6.076335877862595,-6.740458015267175
1748589384.1848288,0.016845703125,0.917236328125,0.479736328125,-1.786259541984733,-5.900763358778626,-6.717557251908397
1748589384.1948316,0.01611328125,0.914794921875,0.486328125,-0.7022900763358778,-6.099236641221374,-6.900763358778626
1748589384.20483,0.00634765625,0.90283203125,0.490478515625,-1.3893129770992367,-6.0,-7.236641221374046
1748589384.2148302,0.00439453125,0.90576171875,0.490478515625,-1.916030534351145,-6.4961832061068705,-7.122137404580153
1748589384.2248294,-0.005615234375,0.90283203125,0.4990234375,-0.015267175572519083,-6.66412213740458,-7.259541984732825
1748589384.2348287,-0.00244140625,0.897216796875,0.50634765625,-1.015267175572519,-6.290076335877862,-7.709923664122138
1748589384.2448294,0.02783203125,0.900634765625,0.503662109375,-3.8702290076335877,-6.648854961832061,-7.908396946564886
1748589384.25483,0.029296875,0.894775390625,0.628662109375,-12.564885496183207,-8.854961832061068,-8.32824427480916
1748589384.2648292,0.0029296875,0.93798828125,0.496337890625,-8.65648854961832,-8.580152671755725,-8.770992366412214
1748589384.2748294,0.03125,0.9013671875,0.422607421875,-1.5648854961832062,-6.33587786259542,-9.694656488549619
1748589384.2848299,0.030517578125,0.8916015625,0.479248046875,-10.435114503816793,-6.862595419847328,-11.244274809160306
1748589384.2948287,0.010986328125,0.89306640625,0.494384765625,-15.0,-6.267175572519084,-12.236641221374045
1748589384.3048322,0.006591796875,0.923828125,0.493896484375,-11.0,-5.320610687022901,-12.16793893129771
1748589384.3148298,-0.013671875,0.9072265625,0.542724609375,-15.534351145038167,-5.1679389312977095,-13.19083969465649
1748589384.3248298,-0.00146484375,0.91162109375,0.517822265625,-21.106870229007633,-3.5114503816793894,-14.374045801526718
1748589384.3348284,0.023193359375,0.90185546875,0.486328125,-20.18320610687023,-4.633587786259542,-15.106870229007633
1748589384.3448296,0.011962890625,0.910888671875,0.504638671875,-21.610687022900763,-4.351145038167939,-16.061068702290076
1748589384.3548303,0.00537109375,0.92041015625,0.4931640625,-24.458015267175572,-3.946564885496183,-17.12213740458015
1748589384.3648298,0.022216796875,0.93359375,0.480224609375,-22.755725190839694,-0.8625954198473282,-17.64885496183206
1748589384.3748305,0.02001953125,0.9482421875,0.474365234375,-24.213740458015266,-1.0381679389312977,-19.106870229007633
1748589384.3848293,0.0185546875,0.963623046875,0.4931640625,-28.47328244274809,-2.099236641221374,-20.27480916030534
1748589384.39483,0.032958984375,1.01220703125,0.470703125,-26.045801526717558,-4.549618320610687,-20.519083969465647
1748589384.4048302,0.07568359375,0.942138671875,0.338623046875,-8.908396946564885,-3.3053435114503817,-16.893129770992367
1748589384.41483,-0.009521484375,0.970947265625,0.60400390625,-33.7557251908397,-6.0458015267175576,-20.091603053435115
1748589384.42483,0.059326171875,0.971923828125,0.43310546875,-32.603053435114504,-4.480916030534351,-18.374045801526716
1748589384.4348304,0.0537109375,1.069580078125,0.437744140625,-25.076335877862597,-8.50381679389313,-16.83969465648855
1748589384.4448292,0.04638671875,0.99169921875,0.414794921875,-22.015267175572518,-2.236641221374046,-16.625954198473284
1748589384.4548311,0.066162109375,0.9521484375,0.39404296875,-15.450381679389313,-0.1984732824427481,-15.931297709923664
1748589384.4648297,0.055908203125,0.964599609375,0.422607421875,-11.778625954198473,1.1450381679389312,-14.664122137404581
1748589384.4748316,0.109619140625,0.93212890625,0.35888671875,-11.206106870229007,-1.702290076335878,-14.770992366412214
1748589384.4848306,0.08642578125,0.9580078125,0.3837890625,-10.641221374045802,-2.50381679389313,-17.50381679389313
1748589384.4948294,0.11572265625,0.939697265625,0.3662109375,-12.435114503816793,-4.511450381679389,-14.549618320610687
1748589384.5048301,0.154541015625,0.919921875,0.334716796875,-7.885496183206107,-1.7328244274809161,-13.022900763358779
1748589384.514836,0.15771484375,0.927490234375,0.281494140625,0.9923664122137404,-5.030534351145038,-10.717557251908397
1748589384.5248308,0.169189453125,0.93408203125,0.27490234375,5.259541984732825,-4.442748091603053,-9.801526717557252
1748589384.5348306,0.140380859375,0.9111328125,0.28369140625,8.618320610687023,-7.083969465648855,-7.8320610687022905
1748589384.544809,0.11474609375,0.8984375,0.30810546875,4.595419847328245,-11.65648854961832,-3.9160305343511452
1748589384.554833,0.165283203125,0.93359375,0.30908203125,2.183206106870229,-15.15267175572519,-5.648854961832061
1748589384.564829,0.134765625,0.9599609375,0.376220703125,2.0229007633587788,-12.305343511450381,-5.129770992366412
1748589384.574836,0.13720703125,0.982421875,0.3974609375,5.221374045801527,-11.648854961832061,-3.946564885496183
1748589384.5848312,0.130615234375,0.98388671875,0.43408203125,6.3893129770992365,-9.938931297709924,-2.954198473282443
1748589384.5948355,0.13134765625,0.983154296875,0.42578125,8.267175572519085,-8.778625954198473,-2.16793893129771
1748589384.6048298,0.14501953125,0.965087890625,0.40478515625,8.19083969465649,-9.206106870229007,-2.236641221374046
1748589384.61483,0.1474609375,0.9560546875,0.3662109375,6.648854961832061,-10.16030534351145,-2.3587786259541983
1748589384.624828,0.136474609375,0.93896484375,0.36083984375,5.213740458015267,-10.977099236641221,-2.6259541984732824
1748589384.6348298,0.153076171875,0.965576171875,0.367919921875,2.0076335877862594,-12.49618320610687,-3.1297709923664123
1748589384.6448302,0.146728515625,0.9541015625,0.37353515625,0.2900763358778626,-13.312977099236642,-2.984732824427481
1748589384.6548307,0.14111328125,0.949462890625,0.359375,3.1526717557251906,-13.068702290076336,-3.0916030534351147
