Time,AccX,AccY,AccZ
1748590388.8433688,0.09912109375,9.874169921875001,-0.16796875
1748590388.853671,0.097900390625,9.97705078125,-0.168701171875
1748590388.863425,0.080810546875,9.926806640625001,-0.169189453125
1748590388.8734348,0.066162109375,9.771289062500001,-0.14990234375
1748590388.883447,0.084716796875,9.63251953125,-0.12890625
1748590388.893428,0.0986328125,9.467431640625001,-0.142333984375
1748590388.9034536,0.067138671875,9.24970703125,-0.12158203125
1748590388.9134352,0.052490234375,9.194677734375,-0.111572265625
1748590388.923432,0.021728515625,9.218603515625,-0.104248046875
1748590388.9334261,0.010986328125,9.381298828125,-0.083251953125
1748590388.9434283,0.0029296875,9.845458984375,-0.052734375
1748590388.9534254,0.013427734375,10.058398437500001,-0.048583984375
1748590388.9634233,0.02978515625,10.166064453125001,-0.042236328125
1748590388.9734235,0.03076171875,10.022509765625001,-0.04150390625
1748590388.9834228,0.035888671875,9.747363281250001,-0.05224609375
1748590388.9934254,0.058349609375,9.534423828125,-0.065673828125
1748590389.0034251,0.06689453125,9.142041015625,-0.079833984375
1748590389.0134268,0.069091796875,9.21142578125,-0.103759765625
1748590389.0234256,0.07275390625,9.209033203125001,-0.1015625
1748590389.033424,0.069580078125,9.299951171875001,-0.091796875
1748590389.043423,0.080322265625,9.477001953125,-0.09130859375
1748590389.0534232,0.08544921875,9.962695312500001,-0.08740234375
1748590389.0634232,0.105712890625,10.209130859375001,-0.074462890625
1748590389.0734234,0.09228515625,10.029687500000001,-0.06396484375
1748590389.083423,0.08740234375,10.056005859375,-0.077880859375
1748590389.0934227,0.1005859375,9.883740234375,-0.089599609375
1748590389.1034248,0.102294921875,9.697119140625,-0.09033203125
1748590389.1134257,0.09619140625,9.500927734375,-0.089111328125
1748590389.123424,0.080078125,9.44111328125,-0.098876953125
1748590389.1334243,0.080078125,9.20185546875,-0.093505859375
1748590389.1434247,0.0732421875,9.512890625,-0.08642578125
1748590389.1534233,0.07177734375,9.83349609375,-0.075927734375
1748590389.1634235,0.08740234375,10.005761718750001,-0.0849609375
1748590389.173424,0.08154296875,10.18759765625,-0.085693359375
1748590389.1834235,0.06640625,10.053613281250001,-0.079345703125
1748590389.193424,0.07373046875,9.8765625,-0.08935546875
1748590389.2034254,0.062744140625,9.675585937500001,-0.089599609375
1748590389.2134254,0.064697265625,9.477001953125,-0.091796875
1748590389.2234237,0.064453125,9.443505859375001,-0.09326171875
1748590389.2334342,0.05078125,9.615771484375001,-0.087890625
1748590389.2434242,0.0693359375,9.742578125000001,-0.10400390625
1748590389.2534244,0.058349609375,9.862207031250001,-0.104248046875
1748590389.2634244,0.0654296875,9.788037109375,-0.1103515625
1748590389.2734244,0.08544921875,9.821533203125,-0.1064453125
1748590389.2834244,0.0927734375,9.7330078125,-0.103515625
1748590389.2934234,0.10693359375,9.66123046875,-0.100341796875
1748590389.3034258,0.09521484375,9.634912109375001,-0.099365234375
1748590389.313426,0.102294921875,9.654052734375,-0.094970703125
1748590389.323424,0.106201171875,9.553564453125,-0.083984375
1748590389.3334236,0.099853515625,9.6373046875,-0.08447265625
1748590389.3434238,0.09716796875,9.811962890625,-0.079833984375
1748590389.353423,0.1171875,9.8095703125,-0.08740234375
1748590389.363424,0.12451171875,9.862207031250001,-0.0810546875
1748590389.373424,0.11767578125,9.76171875,-0.085205078125
1748590389.3834236,0.116943359375,9.771289062500001,-0.092041015625
1748590389.393424,0.107421875,9.898095703125001,-0.088623046875
1748590389.4034245,0.10302734375,9.778466796875001,-0.09228515625
1748590389.4134252,0.100341796875,9.838281250000001,-0.0908203125
1748590389.4234242,0.078125,9.816748046875,-0.088623046875
1748590389.4334238,0.09130859375,9.907666015625,-0.090087890625
1748590389.4434235,0.09521484375,9.855029296875001,-0.084228515625
1748590389.453424,0.101806640625,9.8095703125,-0.087890625
1748590389.4634237,0.099365234375,9.77607421875,-0.09912109375
1748590389.4734237,0.122802734375,9.716259765625,-0.0966796875
1748590389.4834237,0.088134765625,9.764111328125,-0.08544921875
1748590389.4934244,0.090576171875,9.63251953125,-0.1083984375
1748590389.5034244,0.096923828125,9.649267578125,-0.088134765625
1748590389.5134249,0.0947265625,9.72822265625,-0.0869140625
1748590389.5234241,0.099365234375,9.764111328125,-0.09423828125
1748590389.5334241,0.08984375,9.670800781250001,-0.09228515625
1748590389.5434241,0.086669921875,9.790429687500001,-0.090576171875
1748590389.5534253,0.093017578125,9.742578125000001,-0.08837890625
1748590389.5634243,0.090087890625,9.68515625,-0.087646484375
1748590389.5734234,0.096435546875,9.75693359375,-0.089111328125
1748590389.5834239,0.098388671875,9.768896484375,-0.07275390625
1748590389.5934231,0.101806640625,9.922021484375001,-0.080810546875
1748590389.6034245,0.109130859375,9.843066406250001,-0.097900390625
1748590389.6134248,0.093017578125,9.917236328125,-0.08544921875
1748590389.623424,0.09375,9.783251953125001,-0.08544921875
1748590389.6334248,0.0908203125,9.8287109375,-0.08544921875
1748590389.643424,0.093505859375,9.754541015625001,-0.08642578125
1748590389.653424,0.087158203125,9.725830078125,-0.0888671875
1748590389.6634238,0.10400390625,9.66123046875,-0.08642578125
1748590389.6734242,0.089599609375,9.625341796875,-0.074951171875
1748590389.683424,0.10205078125,9.771289062500001,-0.087646484375
1748590389.693424,0.0888671875,9.711474609375001,-0.083984375
1748590389.703426,0.099853515625,9.886132812500001,-0.102294921875
1748590389.7134254,0.103759765625,10.06796875,-0.097900390625
1748590389.7234237,0.083740234375,9.941162109375,-0.090576171875
1748590389.7334237,0.094970703125,9.926806640625001,-0.088134765625
1748590389.7434251,0.091552734375,9.826318359375001,-0.099365234375
1748590389.753424,0.094482421875,9.838281250000001,-0.08984375
1748590389.7634242,0.081298828125,9.72822265625,-0.089599609375
1748590389.7734234,0.09375,9.697119140625,-0.09521484375
1748590389.7834241,0.09716796875,9.66123046875,-0.100341796875
1748590389.7934241,0.090576171875,9.692333984375,-0.100341796875
1748590389.803425,0.100830078125,9.646875000000001,-0.10205078125
1748590389.8134255,0.086181640625,9.646875000000001,-0.09375
1748590389.823424,0.0810546875,9.77607421875,-0.1015625
1748590389.8334243,0.087158203125,9.6373046875,-0.09765625
1748590389.843425,0.078857421875,9.721044921875,-0.07861328125
1748590389.8534255,0.089111328125,9.8,-0.0947265625
1748590389.8634248,0.093017578125,9.773681640625,-0.089599609375
1748590389.873423,0.090087890625,9.8287109375,-0.093017578125
1748590389.883433,0.083251953125,9.742578125000001,-0.092529296875
1748590389.8934238,0.079833984375,9.754541015625001,-0.0810546875
1748590389.9034274,0.080322265625,9.792822265625,-0.09912109375
1748590389.9134219,0.081298828125,9.730615234375001,-0.0966796875
1748590389.9234235,0.083984375,9.759326171875001,-0.095947265625
1748590389.9334211,0.080810546875,9.768896484375,-0.0908203125
1748590389.9434223,0.091552734375,9.792822265625,-0.08984375
1748590389.9534223,0.08154296875,9.675585937500001,-0.08251953125
1748590389.9634218,0.088134765625,9.622949218750001,-0.087890625
1748590389.973421,0.0927734375,9.7330078125,-0.095947265625
1748590389.9834213,0.091064453125,9.70908203125,-0.10107421875
1748590389.9934213,0.091552734375,9.725830078125,-0.090087890625
1748590390.0034232,0.08544921875,9.670800781250001,-0.088134765625
1748590390.0134213,0.0869140625,9.520068359375001,-0.084716796875
1748590390.023421,0.0830078125,9.646875000000001,-0.09228515625
1748590390.0334213,0.0888671875,9.706689453125001,-0.080810546875
1748590390.0434217,0.0859375,9.749755859375,-0.08740234375
1748590390.0534217,0.0947265625,9.788037109375,-0.0908203125
1748590390.0634215,0.109130859375,9.811962890625,-0.080322265625
1748590390.073421,0.090087890625,9.768896484375,-0.084228515625
1748590390.0834212,0.09130859375,9.677978515625,-0.09765625
1748590390.093422,0.086669921875,9.60859375,-0.097412109375
1748590390.1033938,0.0751953125,9.670800781250001,-0.11328125
1748590390.1134222,0.077880859375,9.572705078125,-0.103271484375
1748590390.1234214,0.086181640625,9.606201171875,-0.102783203125
1748590390.1334212,0.080810546875,9.34541015625,-0.10107421875
1748590390.1434212,0.087646484375,9.524853515625,-0.108642578125
1748590390.1534216,0.083984375,9.5703125,-0.09521484375
1748590390.1634214,0.085205078125,9.651660156250001,-0.099365234375
1748590390.1734216,0.091552734375,9.730615234375001,-0.087646484375
1748590390.1834211,0.079345703125,9.838281250000001,-0.083984375
1748590390.1934233,0.107421875,9.94833984375,-0.0830078125
1748590390.203423,0.09716796875,9.886132812500001,-0.078369140625
1748590390.2134218,0.09130859375,9.783251953125001,-0.084716796875
1748590390.2234213,0.094482421875,9.670800781250001,-0.094970703125
1748590390.233427,0.0927734375,9.627734375000001,-0.108154296875
1748590390.2434213,0.108154296875,9.543994140625001,-0.119873046875
1748590390.2534215,0.09375,9.622949218750001,-0.11083984375
1748590390.263423,0.095458984375,9.60859375,-0.107421875
1748590390.2734215,0.087646484375,9.795214843750001,-0.09423828125
1748590390.2834215,0.078857421875,9.862207031250001,-0.085205078125
1748590390.293421,0.074462890625,9.931591796875,-0.09912109375
1748590390.303422,0.071044921875,9.910058593750001,-0.105712890625
1748590390.3134224,0.071044921875,9.826318359375001,-0.12255859375
1748590390.3234212,0.073486328125,9.711474609375001,-0.112060546875
1748590390.3334157,0.065673828125,9.587060546875001,-0.1162109375
1748590390.3434217,0.072998046875,9.591845703125001,-0.118896484375
1748590390.3534217,0.073974609375,9.694726562500001,-0.123046875
1748590390.3634214,0.072509765625,9.740185546875,-0.1298828125
1748590390.373422,0.0732421875,9.783251953125001,-0.111083984375
1748590390.383422,0.07470703125,9.773681640625,-0.125
1748590390.393421,0.0751953125,9.797607421875,-0.137451171875
1748590390.4034176,0.080810546875,9.7330078125,-0.121337890625
1748590390.4134219,0.0908203125,9.788037109375,-0.13134765625
1748590390.423422,0.09228515625,9.711474609375001,-0.12548828125
1748590390.433422,0.104736328125,9.663623046875001,-0.12744140625
1748590390.4434214,0.089599609375,9.548779296875,-0.13671875
1748590390.4534218,0.0810546875,9.701904296875,-0.126708984375
1748590390.4634218,0.088623046875,9.687548828125001,-0.136474609375
1748590390.4734137,0.08837890625,9.699511718750001,-0.135986328125
1748590390.4834216,0.09619140625,9.735400390625001,-0.1298828125
1748590390.493422,0.10498046875,9.749755859375,-0.136474609375
1748590390.503422,0.10693359375,9.740185546875,-0.132080078125
1748590390.5134225,0.109375,9.83349609375,-0.132080078125
1748590390.523421,0.10693359375,9.886132812500001,-0.134765625
1748590390.5334213,0.0888671875,9.907666015625,-0.141357421875
1748590390.543423,0.073974609375,9.859814453125,-0.1484375
1748590390.5534227,0.066162109375,9.7521484375,-0.15478515625
1748590390.5634217,0.06494140625,9.747363281250001,-0.15234375
1748590390.573422,0.062255859375,9.587060546875001,-0.15234375
1748590390.5834217,0.066650390625,9.579882812500001,-0.1533203125
1748590390.5934188,0.07177734375,9.5607421875,-0.167724609375
1748590390.6034214,0.081298828125,9.467431640625001,-0.157470703125
1748590390.6134224,0.0849609375,9.424365234375001,-0.166748046875
1748590390.6234207,0.08203125,9.40283203125,-0.156494140625
1748590390.6334214,0.08935546875,9.48896484375,-0.147216796875
1748590390.643421,0.094970703125,9.575097656250001,-0.14453125
1748590390.653426,0.1044921875,9.654052734375,-0.142333984375
1748590390.663393,0.080810546875,9.8287109375,-0.139404296875
1748590390.6734216,0.092041015625,9.807177734375001,-0.1484375
1748590390.6834219,0.09033203125,10.079931640625,-0.142822265625
1748590390.693422,0.074951171875,9.972265625,-0.150146484375
1748590390.7034228,0.0771484375,9.998583984375001,-0.14404296875
1748590390.7134218,0.073974609375,9.931591796875,-0.155029296875
1748590390.7234223,0.080322265625,9.859814453125,-0.159912109375
1748590390.7334225,0.08544921875,9.819140625000001,-0.170166015625
1748590390.7434216,0.08642578125,9.70908203125,-0.1708984375
1748590390.7534218,0.074462890625,9.59423828125,-0.1611328125
1748590390.763422,0.064208984375,9.484179687500001,-0.171630859375
1748590390.7734213,0.060791015625,9.491357421875001,-0.1728515625
1748590390.7834215,0.051513671875,9.388476562500001,-0.1669921875
1748590390.7934225,0.05029296875,9.491357421875001,-0.158447265625
1748590390.8034236,0.051025390625,9.596630859375,-0.16259765625
1748590390.8134222,0.0595703125,9.64208984375,-0.1669921875
1748590390.8234224,0.05419921875,9.682763671875001,-0.1591796875
1748590390.833422,0.070068359375,9.764111328125,-0.177001953125
1748590390.8434222,0.082275390625,9.68515625,-0.17236328125
1748590390.8534217,0.072998046875,9.792822265625,-0.165771484375
1748590390.863421,0.07470703125,9.651660156250001,-0.161376953125
1748590390.8765268,0.06396484375,9.76171875,-0.174560546875
1748590390.8834195,0.062744140625,9.725830078125,-0.18115234375
1748590390.8934274,0.063720703125,9.735400390625001,-0.170654296875
1748590390.9034297,0.064697265625,9.675585937500001,-0.164306640625
1748590390.9134257,0.0703125,9.780859375,-0.175537109375
1748590390.9234316,0.080322265625,9.8287109375,-0.172607421875
1748590390.9334297,0.075439453125,9.76171875,-0.176513671875
1748590390.9434273,0.07958984375,9.694726562500001,-0.17724609375
1748590390.9534223,0.076416015625,9.639697265625001,-0.185302734375
1748590390.9634213,0.067626953125,9.682763671875001,-0.18994140625
1748590390.9734209,0.053466796875,9.68037109375,-0.200927734375
1748590390.9834235,0.0595703125,9.70908203125,-0.18115234375
1748590390.9934208,0.05615234375,9.716259765625,-0.185791015625
1748590391.0034232,0.048583984375,9.687548828125001,-0.18310546875
1748590391.0134213,0.046142578125,9.6181640625,-0.17529296875
1748590391.0234218,0.031982421875,9.6181640625,-0.163330078125
1748590391.033421,0.057373046875,9.780859375,-0.16552734375
1748590391.0434215,0.058837890625,9.603808593750001,-0.177490234375
1748590391.05342,0.0673828125,9.599023437500001,-0.176513671875
1748590391.0634215,0.069580078125,9.551171875000001,-0.168701171875
1748590391.073421,0.067138671875,9.6373046875,-0.177734375
1748590391.0834212,0.065185546875,9.596630859375,-0.172607421875
1748590391.0934215,0.049072265625,9.742578125000001,-0.169189453125
1748590391.1034217,0.051513671875,9.76171875,-0.18505859375
1748590391.1134212,0.046875,9.759326171875001,-0.1591796875
1748590391.1234236,0.0439453125,9.73779296875,-0.165771484375
1748590391.1334217,0.04638671875,9.780859375,-0.16650390625
1748590391.1434216,0.042236328125,9.701904296875,-0.167236328125
1748590391.1534214,0.0390625,9.795214843750001,-0.169921875
1748590391.163421,0.031982421875,9.599023437500001,-0.17919921875
1748590391.1734214,0.046142578125,9.61337890625,-0.1767578125
1748590391.1834211,0.0498046875,9.615771484375001,-0.18359375
1748590391.1934223,0.04638671875,9.60859375,-0.18408203125
1748590391.2034214,0.048828125,9.603808593750001,-0.17578125
1748590391.2134213,0.03759765625,9.630126953125,-0.181884765625
1748590391.223422,0.060302734375,9.622949218750001,-0.177978515625
1748590391.233422,0.054931640625,9.788037109375,-0.15966796875
1748590391.2434213,0.0517578125,9.639697265625001,-0.161376953125
1748590391.2534218,0.057373046875,9.654052734375,-0.170654296875
1748590391.263421,0.05419921875,9.682763671875001,-0.159423828125
1748590391.273421,0.056640625,9.63251953125,-0.150634765625
1748590391.283421,0.0341796875,9.66123046875,-0.1533203125
1748590391.293421,0.048095703125,9.704296875,-0.146240234375
1748590391.303421,0.042724609375,9.706689453125001,-0.1494140625
1748590391.3134162,0.0419921875,9.670800781250001,-0.152099609375
1748590391.3234212,0.032958984375,9.725830078125,-0.15185546875
1748590391.3334208,0.040771484375,9.716259765625,-0.141357421875
1748590391.3434203,0.039306640625,9.70908203125,-0.154296875
1748590391.3534212,0.0400390625,9.651660156250001,-0.135009765625
1748590391.3634212,0.048583984375,9.682763671875001,-0.13623046875
1748590391.373421,0.052001953125,9.716259765625,-0.143310546875
1748590391.3834171,0.052734375,9.63251953125,-0.151123046875
1748590391.3934212,0.058837890625,9.704296875,-0.144287109375
1748590391.403421,0.051025390625,9.699511718750001,-0.154296875
1748590391.4134212,0.046142578125,9.718652343750001,-0.167724609375
1748590391.4234207,0.0458984375,9.68037109375,-0.16015625
1748590391.433421,0.049560546875,9.7330078125,-0.167236328125
1748590391.4434206,0.053955078125,9.66123046875,-0.1591796875
1748590391.4534144,0.049072265625,9.625341796875,-0.145263671875
1748590391.4634204,0.066650390625,9.596630859375,-0.14892578125
1748590391.4734213,0.0625,9.675585937500001,-0.137939453125
1748590391.483421,0.063232421875,9.70908203125,-0.13818359375
1748590391.493421,0.064453125,9.742578125000001,-0.132568359375
1748590391.5034215,0.05126953125,9.694726562500001,-0.13720703125
1748590391.5134213,0.04296875,9.582275390625,-0.136962890625
1748590391.5234196,0.028564453125,9.575097656250001,-0.147216796875
1748590391.533421,0.02392578125,9.543994140625001,-0.141845703125
1748590391.5434215,0.024169921875,9.579882812500001,-0.16650390625
1748590391.5534217,0.025634765625,9.53681640625,-0.16748046875
1748590391.5634212,0.02099609375,9.620556640625,-0.17626953125
1748590391.5734205,0.02685546875,9.64208984375,-0.168701171875
1748590391.583421,0.0380859375,9.716259765625,-0.177734375
1748590391.5934148,0.044921875,9.811962890625,-0.158447265625
1748590391.603421,0.0634765625,9.840673828125,-0.161865234375
1748590391.613421,0.0703125,9.888525390625,-0.166259765625
1748590391.623421,0.074462890625,9.8478515625,-0.15234375
1748590391.6334214,0.06982421875,9.831103515625001,-0.140380859375
1748590391.6434212,0.07080078125,9.797607421875,-0.135498046875
1748590391.6534204,0.060791015625,9.723437500000001,-0.12255859375
1748590391.6634145,0.04443359375,9.730615234375001,-0.11474609375
1748590391.6734211,0.03857421875,9.70908203125,-0.106201171875
1748590391.6834207,0.031494140625,9.64208984375,-0.10595703125
1748590391.6934214,0.026611328125,9.725830078125,-0.122314453125
1748590391.7034206,0.032470703125,9.682763671875001,-0.114501953125
1748590391.7134213,0.0341796875,9.529638671875,-0.128662109375
1748590391.7234216,0.03564453125,9.649267578125,-0.131591796875
1748590391.73342,0.033447265625,9.6564453125,-0.15380859375
1748590391.7434208,0.039306640625,9.543994140625001,-0.15478515625
1748590391.753421,0.0341796875,9.646875000000001,-0.170654296875
1748590391.7634215,0.015625,9.34541015625,-0.18017578125
1748590391.7734215,0.0380859375,9.4171875,-0.159912109375
1748590391.783422,0.035888671875,9.512890625,-0.175537109375
1748590391.7934206,0.03173828125,9.582275390625,-0.1650390625
1748590391.80342,0.042236328125,9.68994140625,-0.16357421875
1748590391.813421,0.045166015625,9.780859375,-0.155029296875
1748590391.8234212,0.05126953125,9.66123046875,-0.15185546875
1748590391.8334215,0.056884765625,9.649267578125,-0.13427734375
1748590391.8434212,0.05029296875,9.73779296875,-0.1259765625
1748590391.8534217,0.05322265625,9.742578125000001,-0.1220703125
1748590391.8634214,0.04638671875,9.773681640625,-0.126953125
1748590391.873428,0.0439453125,9.766503906250001,-0.12744140625
1748590391.883438,0.04052734375,9.740185546875,-0.13134765625
1748590391.8934267,0.02294921875,9.7521484375,-0.13720703125
1748590391.9034314,0.02197265625,9.744970703125,-0.13818359375
1748590391.9134293,0.01904296875,9.64208984375,-0.149658203125
1748590391.9234254,0.0205078125,9.6564453125,-0.146728515625
1748590391.9334252,0.0205078125,9.68037109375,-0.1552734375
1748590391.9434245,0.01953125,9.72822265625,-0.164306640625
1748590391.953424,0.0322265625,9.8,-0.16455078125
1748590391.9634218,0.03564453125,9.673193359375,-0.163818359375
1748590391.9734237,0.04931640625,9.596630859375,-0.159912109375
1748590391.9834208,0.0576171875,9.649267578125,-0.16357421875
1748590391.993422,0.032958984375,9.70908203125,-0.1552734375
1748590392.003423,0.041259765625,9.694726562500001,-0.16259765625
1748590392.0134223,0.031494140625,9.692333984375,-0.142333984375
1748590392.0234246,0.02197265625,9.697119140625,-0.136474609375
1748590392.033421,0.019287109375,9.744970703125,-0.1328125
1748590392.043422,0.045654296875,9.747363281250001,-0.137939453125
1748590392.0534213,0.0361328125,9.840673828125,-0.13623046875
1748590392.0634222,0.048583984375,9.953125,-0.129638671875
1748590392.0734215,0.048828125,9.766503906250001,-0.12744140625
1748590392.0834215,0.043701171875,9.68515625,-0.125732421875
1748590392.093425,0.041015625,9.6373046875,-0.134033203125
1748590392.1034222,0.03857421875,9.53681640625,-0.128173828125
1748590392.113422,0.023681640625,9.366943359375,-0.127197265625
1748590392.1234212,0.009765625,9.3501953125,-0.13720703125
1748590392.1334217,0.001953125,9.56552734375,-0.145751953125
1748590392.1434216,-0.0107421875,9.59423828125,-0.15869140625
1748590392.1534214,-0.004150390625,9.563134765625001,-0.168701171875
1748590392.1634233,-0.00146484375,9.61337890625,-0.17333984375
1748590392.1734216,0.009033203125,9.706689453125001,-0.1962890625
1748590392.1834211,0.02685546875,9.790429687500001,-0.202392578125
1748590392.193422,0.048583984375,9.9435546875,-0.2001953125
1748590392.2034235,0.059326171875,9.819140625000001,-0.182373046875
1748590392.2134218,0.07373046875,9.857421875,-0.15087890625
1748590392.2234218,0.095703125,9.883740234375,-0.1337890625
1748590392.2334247,0.097412109375,9.917236328125,-0.12109375
1748590392.2434213,0.08056640625,10.01533203125,-0.094970703125
1748590392.2534213,0.075439453125,9.931591796875,-0.08349609375
1748590392.263421,0.0498046875,9.855029296875001,-0.087646484375
1748590392.273422,0.02880859375,9.692333984375,-0.070068359375
1748590392.2834208,0.004638671875,9.596630859375,-0.08740234375
1748590392.293422,-0.0087890625,9.429150390625,-0.10400390625
1748590392.3034189,-0.03125,9.431542968750001,-0.124755859375
1748590392.313422,-0.022705078125,9.386083984375,-0.15380859375
1748590392.3234224,-0.01806640625,9.496142578125001,-0.18115234375
1748590392.3334212,-0.005859375,9.587060546875001,-0.209716796875
1748590392.343421,0.015380859375,9.77607421875,-0.209716796875
1748590392.3534217,0.037109375,9.792822265625,-0.232421875
1748590392.3634217,0.060791015625,9.697119140625,-0.22802734375
1748590392.3734214,0.08935546875,9.792822265625,-0.214599609375
1748590392.383422,0.09375,9.718652343750001,-0.18310546875
1748590392.393424,0.10595703125,9.835888671875,-0.134521484375
1748590392.403423,0.099609375,9.965087890625,-0.101806640625
1748590392.4134214,0.07958984375,9.969873046875001,-0.072998046875
1748590392.4234216,0.06982421875,9.933984375000001,-0.056884765625
1748590392.4334211,0.041748046875,9.902880859375001,-0.04736328125
1748590392.4434214,0.02587890625,9.677978515625,-0.04833984375
1748590392.4534216,-0.004638671875,9.500927734375,-0.0576171875
1748590392.4634147,-0.02734375,9.405224609375,-0.08544921875
1748590392.4734216,-0.037841796875,9.407617187500001,-0.130126953125
1748590392.4834216,-0.033447265625,9.4650390625,-0.1748046875
1748590392.493422,-0.0283203125,9.505712890625,-0.2060546875
1748590392.5034235,-0.006591796875,9.572705078125,-0.23193359375
1748590392.5134223,0.01513671875,9.646875000000001,-0.252685546875
1748590392.523422,0.03759765625,9.735400390625001,-0.252685546875
1748590392.533422,0.071044921875,9.7138671875,-0.246826171875
1748590392.5434208,0.0703125,9.646875000000001,-0.212158203125
1748590392.5534234,0.084716796875,9.754541015625001,-0.172607421875
1748590392.5634212,0.092041015625,9.92919921875,-0.15283203125
1748590392.5734217,0.087158203125,10.022509765625001,-0.106689453125
1748590392.583421,0.077392578125,10.173242187500001,-0.078369140625
1748590392.593422,0.07275390625,10.036865234375,-0.072509765625
1748590392.6034229,0.074951171875,9.972265625,-0.058349609375
1748590392.6134224,0.040771484375,9.910058593750001,-0.05712890625
1748590392.6234236,0.0185546875,9.649267578125,-0.037841796875
1748590392.6334212,0.015380859375,9.591845703125001,-0.044189453125
1748590392.6434221,0.004150390625,9.515283203125001,-0.05419921875
1748590392.6534216,-0.002197265625,9.429150390625,-0.094482421875
1748590392.6634223,-0.007080078125,9.22578125,-0.118896484375
1748590392.673422,-0.01806640625,9.321484375,-0.15234375
1748590392.683421,-0.0234375,9.333447265625,-0.189453125
1748590392.6934123,-0.01416015625,9.407617187500001,-0.21533203125
1748590392.7034225,0.004638671875,9.460253906250001,-0.237060546875
1748590392.7134223,0.021484375,9.639697265625001,-0.2421875
1748590392.7234216,0.04248046875,9.553564453125,-0.242919921875
1748590392.7334228,0.047119140625,9.579882812500001,-0.229248046875
1748590392.743421,0.064453125,9.644482421875,-0.216064453125
1748590392.7534218,0.07568359375,9.773681640625,-0.1904296875
1748590392.7634218,0.077392578125,9.936376953125,-0.145751953125
1748590392.773422,0.0791015625,10.113427734375001,-0.117431640625
1748590392.7834222,0.0849609375,10.137353515625001,-0.1083984375
1748590392.7934222,0.07958984375,10.2115234375,-0.072265625
1748590392.8034227,0.072021484375,10.122998046875,-0.0517578125
1748590392.8134224,0.051513671875,10.029687500000001,-0.031982421875
1748590392.823422,0.04931640625,9.974658203125001,-0.018310546875
1748590392.833422,0.0302734375,9.8478515625,-0.03076171875
1748590392.8434215,0.017822265625,9.697119140625,-0.035888671875
1748590392.8534222,0.002685546875,9.5224609375,-0.048828125
1748590392.863421,0.00048828125,9.460253906250001,-0.09130859375
1748590392.8734233,-0.01416015625,9.352587890625001,-0.138671875
1748590392.8834426,-0.001220703125,9.256884765625001,-0.170166015625
1748590392.8934093,-0.001220703125,9.170751953125,-0.200927734375
1748590392.9034238,-0.002197265625,9.149218750000001,-0.248046875
1748590392.913423,0.0146484375,9.264062500000001,-0.262451171875
1748590392.9234223,0.02734375,9.414794921875,-0.278564453125
1748590392.9334219,0.035888671875,9.5607421875,-0.272705078125
1748590392.9434288,0.046142578125,9.6181640625,-0.254150390625
1748590392.9534218,0.033203125,9.70908203125,-0.230224609375
1748590392.9634228,0.0439453125,9.780859375,-0.20458984375
1748590392.9734216,0.054443359375,9.88134765625,-0.17724609375
1748590392.983422,0.060302734375,10.012939453125,-0.140869140625
1748590392.9934218,0.064453125,10.0201171875,-0.121826171875
1748590393.0034232,0.0625,10.089501953125001,-0.087646484375
1748590393.0134213,0.054931640625,10.041650390625001,-0.063720703125
1748590393.0234215,0.051513671875,9.974658203125001,-0.051025390625
1748590393.0334253,0.044921875,9.94833984375,-0.04296875
1748590393.0434217,0.0302734375,9.926806640625001,-0.049072265625
1748590393.053421,0.009765625,9.840673828125,-0.052734375
1748590393.063421,0.013916015625,9.716259765625,-0.075927734375
1748590393.0734222,-0.010498046875,9.622949218750001,-0.106201171875
1748590393.0834208,-0.007568359375,9.551171875000001,-0.133056640625
1748590393.093421,-0.007080078125,9.486572265625,-0.175537109375
1748590393.1034193,-0.0087890625,9.381298828125,-0.195068359375
1748590393.1134214,0.00634765625,9.414794921875,-0.206298828125
1748590393.1234214,0.01806640625,9.479394531250001,-0.218505859375
1748590393.1334212,0.044189453125,9.53681640625,-0.2314453125
1748590393.1434207,0.050537109375,9.558349609375,-0.230224609375
1748590393.1534214,0.055908203125,9.610986328125001,-0.21630859375
1748590393.1634214,0.06396484375,9.6181640625,-0.19921875
1748590393.1734188,0.070556640625,9.730615234375001,-0.163330078125
1748590393.1834216,0.066650390625,9.766503906250001,-0.130126953125
1748590393.1934211,0.060302734375,9.816748046875,-0.11572265625
1748590393.2034223,0.046875,9.87177734375,-0.07861328125
1748590393.213421,0.0380859375,9.866992187500001,-0.087646484375
1748590393.2234213,0.0283203125,9.838281250000001,-0.088623046875
1748590393.2334216,0.01904296875,9.7521484375,-0.096923828125
1748590393.243409,0.013671875,9.807177734375001,-0.101318359375
1748590393.2534208,0.017822265625,9.723437500000001,-0.102294921875
1748590393.2634213,0.011962890625,9.682763671875001,-0.111328125
1748590393.2734225,0.02099609375,9.673193359375,-0.140625
1748590393.283421,0.02392578125,9.603808593750001,-0.1513671875
1748590393.2934208,0.0361328125,9.651660156250001,-0.15966796875
1748590393.3034225,0.03515625,9.682763671875001,-0.1689453125
1748590393.313387,0.04150390625,9.694726562500001,-0.18212890625
1748590393.323422,0.04833984375,9.60859375,-0.179443359375
1748590393.333422,0.0458984375,9.654052734375,-0.186767578125
1748590393.3434212,0.044189453125,9.630126953125,-0.17626953125
1748590393.3534214,0.036865234375,9.587060546875001,-0.166259765625
1748590393.363421,0.033203125,9.610986328125001,-0.15869140625
1748590393.373421,0.03466796875,9.582275390625,-0.156005859375
1748590393.3834128,0.0283203125,9.587060546875001,-0.150146484375
1748590393.3934212,0.02734375,9.706689453125001,-0.141845703125
1748590393.4034226,0.033935546875,9.70908203125,-0.147705078125
1748590393.4134212,0.036376953125,9.75693359375,-0.13134765625
1748590393.4234211,0.039306640625,9.764111328125,-0.134521484375
1748590393.4334211,0.04443359375,9.704296875,-0.130859375
1748590393.4434214,0.040771484375,9.77607421875,-0.146728515625
1748590393.4534175,0.041015625,9.735400390625001,-0.14892578125
1748590393.463421,0.042236328125,9.673193359375,-0.150634765625
1748590393.4734216,0.039794921875,9.651660156250001,-0.158447265625
1748590393.4834216,0.046142578125,9.615771484375001,-0.1484375
1748590393.4934208,0.03515625,9.610986328125001,-0.133056640625
1748590393.5034246,0.034423828125,9.6373046875,-0.146484375
1748590393.5134244,0.031005859375,9.606201171875,-0.154052734375
1748590393.5234234,0.021484375,9.567919921875001,-0.157470703125
1748590393.533424,0.01611328125,9.553564453125,-0.162353515625
1748590393.543424,0.000732421875,9.491357421875001,-0.173828125
1748590393.5534241,0.012939453125,9.3501953125,-0.180419921875
1748590393.5634227,0.019287109375,9.596630859375,-0.202880859375
1748590393.5734239,0.032470703125,9.46982421875,-0.172119140625
1748590393.5834236,0.038330078125,9.577490234375,-0.18359375
1748590393.593423,0.040283203125,9.7521484375,-0.18359375
1748590393.6034248,0.05029296875,9.864599609375,-0.181396484375
1748590393.6134248,0.0400390625,9.864599609375,-0.157958984375
1748590393.623423,0.0419921875,9.907666015625,-0.163330078125
1748590393.6334226,0.036376953125,9.857421875,-0.150390625
1748590393.6434221,0.025390625,9.914843750000001,-0.140625
1748590393.653423,0.015869140625,9.771289062500001,-0.1259765625
1748590393.663423,0.011474609375,9.711474609375001,-0.127685546875
1748590393.6734223,0.00634765625,9.721044921875,-0.11865234375
1748590393.683423,0.010986328125,9.651660156250001,-0.1162109375
1748590393.6934228,0.01611328125,9.64208984375,-0.133544921875
1748590393.703424,0.014404296875,9.620556640625,-0.14111328125
1748590393.7134252,0.019775390625,9.634912109375001,-0.161376953125
1748590393.7234232,0.01806640625,9.644482421875,-0.166748046875
1748590393.7334251,0.001953125,9.634912109375001,-0.1767578125
1748590393.7434237,0.012939453125,9.515283203125001,-0.188232421875
1748590393.7534223,0.010009765625,9.620556640625,-0.2041015625
1748590393.7634234,0.012939453125,9.61337890625,-0.19873046875
1748590393.773423,0.014404296875,9.558349609375,-0.2060546875
1748590393.7834232,0.017822265625,9.53681640625,-0.195556640625
1748590393.7934234,0.0283203125,9.582275390625,-0.202392578125
1748590393.8034253,0.03271484375,9.625341796875,-0.177734375
1748590393.813425,0.02783203125,9.620556640625,-0.1640625
1748590393.8234234,0.02880859375,9.6564453125,-0.161865234375
1748590393.8334231,0.02001953125,9.651660156250001,-0.162353515625
1748590393.843425,0.013671875,9.70908203125,-0.15380859375
1748590393.853425,0.010986328125,9.59423828125,-0.15283203125
1748590393.863423,0.005859375,9.692333984375,-0.150146484375
1748590393.8734233,0.010498046875,9.634912109375001,-0.15771484375
1748590393.8838296,0.0107421875,9.670800781250001,-0.155029296875
1748590393.8934238,0.0244140625,9.639697265625001,-0.1572265625
1748590393.9034276,0.017822265625,9.63251953125,-0.1640625
1748590393.9134288,0.032470703125,9.721044921875,-0.18310546875
1748590393.923429,0.037353515625,9.701904296875,-0.161865234375
1748590393.9334233,0.03662109375,9.718652343750001,-0.17529296875
1748590393.9434216,0.039306640625,9.699511718750001,-0.17431640625
1748590393.9534285,0.045166015625,9.694726562500001,-0.174072265625
1748590393.9634259,0.044921875,9.677978515625,-0.168701171875
1748590393.9734235,0.040283203125,9.725830078125,-0.14111328125
1748590393.9834235,0.040283203125,9.687548828125001,-0.171875
1748590393.9934232,0.035888671875,9.639697265625001,-0.144287109375
1748590394.0034242,0.02880859375,9.599023437500001,-0.150146484375
1748590394.0134232,0.02392578125,9.539208984375001,-0.160400390625
1748590394.023424,0.016357421875,9.548779296875,-0.169189453125
1748590394.0334415,0.015625,9.627734375000001,-0.1787109375
1748590394.0434241,0.026123046875,9.771289062500001,-0.198486328125
1748590394.0534236,0.034912109375,9.77607421875,-0.181396484375
1748590394.0634239,0.035888671875,9.651660156250001,-0.1767578125
1748590394.073424,0.048095703125,9.630126953125,-0.169189453125
1748590394.0834234,0.0537109375,9.615771484375001,-0.1572265625
1748590394.0934236,0.0615234375,9.644482421875,-0.154052734375
1748590394.1034238,0.05078125,9.735400390625001,-0.143310546875
1748590394.1134238,0.043701171875,9.768896484375,-0.139892578125
1748590394.1234243,0.033935546875,9.771289062500001,-0.139404296875
1748590394.1334298,0.029052734375,9.838281250000001,-0.1416015625
1748590394.143424,0.021728515625,9.704296875,-0.15185546875
1748590394.1534233,0.017578125,9.8,-0.16015625
1748590394.1634233,0.011962890625,9.783251953125001,-0.16259765625
1748590394.1734254,0.02294921875,9.572705078125,-0.17041015625
1748590394.1834235,0.0234375,9.651660156250001,-0.171142578125
1748590394.1934237,0.03369140625,9.56552734375,-0.16796875
1748590394.2034235,0.04296875,9.630126953125,-0.165771484375
1748590394.2134237,0.041748046875,9.625341796875,-0.169189453125
1748590394.2234237,0.04052734375,9.63251953125,-0.161865234375
1748590394.2334287,0.044677734375,9.668408203125,-0.15283203125
1748590394.2434235,0.035400390625,9.615771484375001,-0.15478515625
1748590394.2534232,0.038818359375,9.673193359375,-0.158203125
1748590394.2634234,0.029296875,9.666015625,-0.14990234375
1748590394.2734241,0.0263671875,9.508105468750001,-0.1513671875
1748590394.2834244,0.024658203125,9.670800781250001,-0.14306640625
1748590394.2934244,0.022216796875,9.68994140625,-0.1494140625
1748590394.3034241,0.02294921875,9.7138671875,-0.155029296875
1748590394.3134234,0.00146484375,9.639697265625001,-0.15771484375
1748590394.3234243,0.01953125,9.634912109375001,-0.158447265625
1748590394.3334293,0.0166015625,9.508105468750001,-0.170166015625
1748590394.343424,0.03125,9.64208984375,-0.170166015625
1748590394.3534236,0.038818359375,9.56552734375,-0.174560546875
1748590394.363424,0.03759765625,9.551171875000001,-0.174560546875
1748590394.373424,0.0419921875,9.529638671875,-0.178466796875
1748590394.3834236,0.021240234375,9.567919921875001,-0.170654296875
1748590394.3934228,0.021728515625,9.582275390625,-0.16748046875
1748590394.4034228,0.0126953125,9.627734375000001,-0.15185546875
1748590394.4134238,0.005126953125,9.6181640625,-0.150390625
1748590394.4234235,0.00439453125,9.697119140625,-0.153076171875
1748590394.4334288,0.016357421875,9.66123046875,-0.156005859375
1748590394.4434237,0.005126953125,9.749755859375,-0.162353515625
1748590394.4534233,0.01953125,9.780859375,-0.17724609375
1748590394.4634237,0.02099609375,9.66123046875,-0.175537109375
1748590394.4734237,0.026123046875,9.601416015625,-0.176025390625
1748590394.4834237,0.0283203125,9.60859375,-0.180908203125
1748590394.493424,0.0419921875,9.639697265625001,-0.1748046875
1748590394.5034242,0.03125,9.797607421875,-0.160888671875
1748590394.5134237,0.0458984375,9.649267578125,-0.1455078125
1748590394.5234241,0.0595703125,9.730615234375001,-0.136962890625
1748590394.5334296,0.049072265625,9.788037109375,-0.119140625
1748590394.5434256,0.045166015625,9.666015625,-0.093994140625
1748590394.553424,0.047119140625,9.5416015625,-0.092529296875
1748590394.5634236,0.0546875,9.620556640625,-0.095458984375
1748590394.5734239,0.053466796875,9.907666015625,-0.08154296875
1748590394.5834243,0.046875,9.878955078125001,-0.108642578125
1748590394.5934231,0.04248046875,9.797607421875,-0.11962890625
1748590394.6034243,0.036865234375,9.744970703125,-0.140380859375
1748590394.6134238,0.02734375,9.567919921875001,-0.142822265625
1748590394.6234238,0.0302734375,9.407617187500001,-0.154296875
1748590394.6334255,0.029296875,9.481787109375,-0.17626953125
1748590394.6434238,0.034423828125,9.42197265625,-0.181640625
1748590394.6534243,0.04248046875,9.520068359375001,-0.1826171875
1748590394.663424,0.043212890625,9.699511718750001,-0.18212890625
1748590394.6734242,0.042724609375,9.687548828125001,-0.18359375
1748590394.6834235,0.0380859375,9.620556640625,-0.1708984375
1748590394.6934237,0.040283203125,9.788037109375,-0.155029296875
1748590394.7034273,0.046142578125,9.711474609375001,-0.146484375
1748590394.713425,0.0361328125,9.80478515625,-0.137939453125
1748590394.7234268,0.037353515625,9.866992187500001,-0.137939453125
1748590394.7334244,0.038330078125,9.912451171875,-0.130859375
1748590394.743425,0.032958984375,9.945947265625001,-0.13916015625
1748590394.753425,0.056640625,9.883740234375,-0.12451171875
1748590394.763425,0.0576171875,9.807177734375001,-0.122314453125
1748590394.7734277,0.054443359375,9.668408203125,-0.124755859375
1748590394.783426,0.0517578125,9.596630859375,-0.12744140625
1748590394.7934241,0.033203125,9.51767578125,-0.148681640625
1748590394.803428,0.030517578125,9.534423828125,-0.15966796875
1748590394.813425,0.0224609375,9.543994140625001,-0.187255859375
1748590394.8234243,0.011962890625,9.448291015625001,-0.18408203125
1748590394.8334231,0.0029296875,9.508105468750001,-0.19873046875
1748590394.843424,0.00439453125,9.529638671875,-0.197998046875
1748590394.8534253,-0.0087890625,9.61337890625,-0.20068359375
1748590394.8634245,0.020263671875,9.599023437500001,-0.20703125
1748590394.8734248,0.028564453125,9.797607421875,-0.196044921875
1748590394.8836107,0.035400390625,9.68994140625,-0.185546875
1748590394.8934255,0.043701171875,9.68037109375,-0.177001953125
1748590394.9034328,0.0576171875,9.7138671875,-0.16357421875
1748590394.9134262,0.066650390625,9.754541015625001,-0.13720703125
1748590394.92343,0.06982421875,9.754541015625001,-0.13427734375
1748590394.9334278,0.049560546875,9.831103515625001,-0.110595703125
1748590394.9434295,0.050537109375,9.92919921875,-0.0947265625
1748590394.9534252,0.044677734375,9.893310546875,-0.112548828125
1748590394.9634237,0.032958984375,9.840673828125,-0.100830078125
1748590394.9734223,0.03369140625,9.706689453125001,-0.096435546875
1748590394.9834244,0.027099609375,9.61337890625,-0.107177734375
1748590394.9934242,0.044677734375,9.5607421875,-0.1201171875
1748590395.0034232,0.025634765625,9.548779296875,-0.15478515625
1748590395.0134237,0.0283203125,9.567919921875001,-0.149658203125
1748590395.023424,0.029541015625,9.630126953125,-0.157958984375
1748590395.0334241,0.030517578125,9.63251953125,-0.189697265625
1748590395.0434241,0.0419921875,9.666015625,-0.184326171875
1748590395.0534236,0.053466796875,9.503320312500001,-0.202880859375
1748590395.063424,0.05615234375,9.666015625,-0.18359375
1748590395.0734239,0.053466796875,9.802392578125001,-0.18115234375
1748590395.0834236,0.0556640625,9.8287109375,-0.17236328125
1748590395.093424,0.05810546875,9.883740234375,-0.155517578125
1748590395.1034234,0.073974609375,9.663623046875001,-0.1513671875
1748590395.1134236,0.060791015625,9.90048828125,-0.1357421875
1748590395.1234236,0.052490234375,9.677978515625,-0.13916015625
1748590395.133423,0.031005859375,9.630126953125,-0.13330078125
1748590395.143425,0.01123046875,9.548779296875,-0.11474609375
1748590395.1534243,-0.009521484375,9.453076171875,-0.135498046875
1748590395.163424,-0.011962890625,9.524853515625,-0.150390625
1748590395.1734238,-0.0244140625,9.505712890625,-0.169921875
1748590395.183423,-0.0146484375,9.512890625,-0.182373046875
1748590395.1934237,-0.00390625,9.496142578125001,-0.18505859375
1748590395.203423,0.016357421875,9.548779296875,-0.18994140625
1748590395.2134237,0.0400390625,9.7138671875,-0.197265625
1748590395.223424,0.05126953125,9.716259765625,-0.20263671875
1748590395.233424,0.065185546875,9.675585937500001,-0.18994140625
1748590395.2434237,0.075927734375,9.950732421875001,-0.160888671875
1748590395.253424,0.078369140625,9.771289062500001,-0.135986328125
1748590395.2634244,0.0712890625,9.783251953125001,-0.119384765625
1748590395.273424,0.06689453125,9.802392578125001,-0.102783203125
1748590395.2834237,0.051513671875,9.864599609375,-0.08203125
1748590395.2934241,0.04248046875,9.8287109375,-0.0791015625
1748590395.3034241,0.01318359375,9.78564453125,-0.091552734375
1748590395.3134239,0.002197265625,9.864599609375,-0.109130859375
1748590395.3234239,0.0029296875,9.835888671875,-0.126708984375
1748590395.333423,0.010498046875,9.807177734375001,-0.14013671875
1748590395.3434236,0.002197265625,9.70908203125,-0.14794921875
1748590395.353424,0.026611328125,9.59423828125,-0.185791015625
1748590395.3634236,0.02978515625,9.5224609375,-0.177001953125
1748590395.3734233,0.042236328125,9.407617187500001,-0.164794921875
1748590395.3834236,0.052001953125,9.462646484375,-0.171875
1748590395.3934238,0.05419921875,9.46982421875,-0.172607421875
1748590395.4034238,0.0556640625,9.606201171875,-0.177490234375
1748590395.4134238,0.04248046875,9.682763671875001,-0.182373046875
1748590395.4234233,0.04296875,9.704296875,-0.1806640625
1748590395.433424,0.0341796875,9.744970703125,-0.176025390625
1748590395.4434235,0.030029296875,9.831103515625001,-0.1650390625
1748590395.4534237,0.0439453125,9.7330078125,-0.15283203125
1748590395.4634242,0.0361328125,9.742578125000001,-0.136962890625
1748590395.4734235,0.017822265625,9.76171875,-0.145751953125
1748590395.4834232,0.03662109375,9.764111328125,-0.155029296875
1748590395.4934244,0.03271484375,9.7138671875,-0.142822265625
1748590395.5034237,0.033935546875,9.75693359375,-0.14013671875
1748590395.513424,0.030517578125,9.694726562500001,-0.138427734375
1748590395.5234232,0.029052734375,9.670800781250001,-0.149169921875
1748590395.5334244,0.03125,9.773681640625,-0.14501953125
1748590395.5434241,0.027099609375,9.670800781250001,-0.168701171875
1748590395.553423,0.042236328125,9.677978515625,-0.15869140625
1748590395.5634236,0.036865234375,9.625341796875,-0.14599609375
1748590395.5734236,0.05517578125,9.699511718750001,-0.1455078125
1748590395.5834236,0.0341796875,9.7330078125,-0.125244140625
1748590395.5934236,0.05322265625,9.788037109375,-0.138671875
1748590395.6034238,0.056396484375,9.797607421875,-0.125244140625
1748590395.6134233,0.054931640625,9.771289062500001,-0.123046875
1748590395.6234238,0.048095703125,9.716259765625,-0.133544921875
1748590395.633424,0.04736328125,9.697119140625,-0.120849609375
1748590395.643423,0.040283203125,9.582275390625,-0.118408203125
1748590395.6534245,0.039794921875,9.510498046875,-0.123291015625
1748590395.6634233,0.034912109375,9.51767578125,-0.10986328125
1748590395.6734235,0.0302734375,9.49853515625,-0.132080078125
1748590395.6834233,0.027587890625,9.6564453125,-0.148681640625
1748590395.6934233,0.023193359375,9.658837890625001,-0.164306640625
1748590395.7034276,0.0185546875,9.711474609375001,-0.179443359375
1748590395.7134252,0.014404296875,9.711474609375001,-0.179931640625
1748590395.7234244,0.01708984375,9.704296875,-0.181640625
1748590395.7334242,0.011474609375,9.666015625,-0.1767578125
1748590395.7434254,0.024169921875,9.68037109375,-0.161376953125
1748590395.7534242,0.026123046875,9.759326171875001,-0.165283203125
1748590395.7634254,0.0400390625,9.740185546875,-0.1484375
1748590395.7734237,0.04638671875,9.914843750000001,-0.13232421875
1748590395.7834246,0.053955078125,9.740185546875,-0.125244140625
1748590395.7934237,0.070068359375,9.807177734375001,-0.125244140625
1748590395.8034272,0.089111328125,9.87177734375,-0.117431640625
1748590395.8134267,0.0927734375,9.88134765625,-0.106689453125
1748590395.8234248,0.09033203125,9.83349609375,-0.101806640625
1748590395.8334239,0.085205078125,9.840673828125,-0.087158203125
1748590395.8434243,0.0751953125,9.764111328125,-0.080322265625
1748590395.85343,0.062744140625,9.610986328125001,-0.08349609375
1748590395.8634262,0.0498046875,9.563134765625001,-0.092041015625
1748590395.8734248,0.040771484375,9.5224609375,-0.11572265625
1748590395.8834202,0.023681640625,9.42197265625,-0.123046875
1748590395.8934224,0.017822265625,9.477001953125,-0.1376953125
1748590395.9034243,0.01220703125,9.410009765625,-0.15185546875
1748590395.913424,0.013671875,9.424365234375001,-0.165771484375
1748590395.9234269,0.010986328125,9.510498046875,-0.174072265625
1748590395.9334242,0.02294921875,9.622949218750001,-0.18359375
1748590395.9434257,0.029296875,9.68515625,-0.186279296875
1748590395.953428,0.046630859375,9.7330078125,-0.190673828125
1748590395.9634254,0.061767578125,9.718652343750001,-0.18115234375
1748590395.973422,0.0712890625,9.8,-0.16552734375
1748590395.9834232,0.079345703125,9.843066406250001,-0.163330078125
1748590395.9934237,0.086669921875,9.907666015625,-0.141845703125
1748590396.0034235,0.08837890625,9.945947265625001,-0.114990234375
1748590396.013423,0.09228515625,9.936376953125,-0.10693359375
1748590396.023423,0.0791015625,9.969873046875001,-0.0830078125
1748590396.033423,0.0712890625,9.9052734375,-0.072998046875
1748590396.043424,0.07763671875,9.864599609375,-0.060546875
1748590396.0534253,0.04736328125,9.749755859375,-0.0634765625
1748590396.0634236,0.0419921875,9.723437500000001,-0.0751953125
1748590396.0734265,0.03076171875,9.61337890625,-0.09326171875
1748590396.0834236,0.02490234375,9.474609375,-0.124755859375
1748590396.0934238,0.019287109375,9.438720703125,-0.136962890625
1748590396.103424,0.02880859375,9.338232421875,-0.1630859375
1748590396.1134238,0.0,9.309521484375,-0.159423828125
1748590396.1234233,0.015625,9.364550781250001,-0.17431640625
1748590396.1334245,0.017333984375,9.443505859375001,-0.190185546875
1748590396.1434243,0.020263671875,9.505712890625,-0.185302734375
1748590396.1534238,0.02685546875,9.589453125,-0.193115234375
1748590396.1634235,0.037841796875,9.630126953125,-0.181640625
1748590396.173423,0.034423828125,9.527246093750001,-0.185546875
1748590396.1834235,0.055908203125,9.651660156250001,-0.15771484375
1748590396.1934233,0.06396484375,9.835888671875,-0.1640625
1748590396.203423,0.0693359375,9.981835937500001,-0.1474609375
1748590396.213424,0.078125,10.0392578125,-0.124755859375
1748590396.2234235,0.068359375,10.04404296875,-0.115234375
1748590396.2334237,0.055419921875,10.041650390625001,-0.1162109375
1748590396.2434232,0.05126953125,9.821533203125,-0.106689453125
1748590396.2534242,0.037109375,9.845458984375,-0.096435546875
1748590396.2634232,0.029541015625,9.864599609375,-0.100341796875
1748590396.2734244,0.032958984375,9.859814453125,-0.1015625
1748590396.2834241,0.0380859375,9.9244140625,-0.10986328125
1748590396.2934232,0.049560546875,9.965087890625,-0.10791015625
1748590396.3034244,0.056396484375,9.914843750000001,-0.120361328125
1748590396.3134239,0.06640625,9.754541015625001,-0.103515625
1748590396.323424,0.060791015625,9.668408203125,-0.1064453125
1748590396.3334231,0.060302734375,9.496142578125001,-0.114990234375
1748590396.3434238,0.056884765625,9.388476562500001,-0.11376953125
1748590396.353425,0.04248046875,9.2544921875,-0.1376953125
1748590396.3634245,0.032470703125,9.220996093750001,-0.148193359375
1748590396.373423,0.021484375,9.240136718750001,-0.156494140625
1748590396.3834243,0.01171875,9.264062500000001,-0.1650390625
1748590396.393424,0.025146484375,9.4458984375,-0.180419921875
1748590396.403423,0.02783203125,9.527246093750001,-0.181640625
1748590396.413424,0.04150390625,9.589453125,-0.1728515625
1748590396.4234235,0.038818359375,9.694726562500001,-0.18505859375
1748590396.4334242,0.045654296875,9.70908203125,-0.1787109375
1748590396.4434237,0.05859375,9.754541015625001,-0.1689453125
1748590396.4534233,0.06005859375,9.843066406250001,-0.16748046875
1748590396.4634235,0.06884765625,9.9435546875,-0.14794921875
1748590396.4734244,0.072021484375,9.850244140625001,-0.134765625
1748590396.4834244,0.0703125,9.989013671875,-0.12841796875
1748590396.4934237,0.070068359375,9.99619140625,-0.099365234375
1748590396.5034244,0.066650390625,10.084716796875,-0.10498046875
1748590396.5134246,0.056396484375,10.065576171875001,-0.0986328125
1748590396.523424,0.04296875,10.034472656250001,-0.088623046875
1748590396.5334244,0.04296875,9.965087890625,-0.079345703125
1748590396.5434237,0.0478515625,9.85263671875,-0.102294921875
1748590396.553425,0.03466796875,9.8287109375,-0.105712890625
1748590396.5634236,0.0517578125,9.7521484375,-0.11279296875
1748590396.573424,0.052001953125,9.7330078125,-0.126708984375
1748590396.5834236,0.060791015625,9.704296875,-0.13671875
1748590396.5934238,0.063232421875,9.575097656250001,-0.15087890625
1748590396.6034236,0.065185546875,9.534423828125,-0.140869140625
1748590396.6134238,0.060546875,9.433935546875,-0.150634765625
1748590396.6234238,0.047607421875,9.316699218750001,-0.17138671875
1748590396.6334229,0.03662109375,9.237744140625,-0.181884765625
1748590396.643424,0.042724609375,9.287988281250001,-0.169921875
1748590396.6534243,0.035888671875,9.22578125,-0.168701171875
1748590396.6634238,0.031494140625,9.532031250000001,-0.18212890625
1748590396.673423,0.03759765625,9.599023437500001,-0.174560546875
1748590396.6834238,0.049072265625,9.646875000000001,-0.17431640625
1748590396.6934235,0.031982421875,9.64208984375,-0.161376953125
1748590396.703427,0.058349609375,9.649267578125,-0.1630859375
1748590396.7134256,0.0478515625,9.747363281250001,-0.15478515625
1748590396.7234237,0.05712890625,9.814355468750001,-0.132080078125
1748590396.7334237,0.051513671875,9.957910156250001,-0.1279296875
1748590396.7434263,0.057861328125,10.027294921875,-0.118896484375
1748590396.7534244,0.060546875,10.008154296875,-0.114990234375
1748590396.7634244,0.066650390625,10.0392578125,-0.115966796875
1748590396.7734282,0.068115234375,10.242626953125,-0.111083984375
1748590396.7834258,0.059326171875,9.941162109375,-0.115234375
1748590396.7934241,0.051025390625,9.933984375000001,-0.126220703125
1748590396.803426,0.034912109375,9.843066406250001,-0.11572265625
1748590396.8134253,0.02197265625,9.771289062500001,-0.125244140625
1748590396.8234239,0.004150390625,9.54638671875,-0.134033203125
1748590396.8334248,0.014404296875,9.462646484375,-0.14990234375
1748590396.843425,0.01953125,9.34541015625,-0.128662109375
1748590396.8534265,0.0322265625,9.287988281250001,-0.154296875
1748590396.8634245,0.046630859375,9.371728515625001,-0.16162109375
1748590396.8734257,0.0380859375,9.412402343750001,-0.17626953125
1748590396.8834348,0.03271484375,9.558349609375,-0.18896484375
1748590396.8934262,0.05322265625,9.599023437500001,-0.192138671875
1748590396.9034245,0.065673828125,9.634912109375001,-0.19287109375
1748590396.9134252,0.08544921875,9.622949218750001,-0.1728515625
1748590396.9234257,0.088623046875,9.666015625,-0.15771484375
1748590396.933424,0.078125,9.704296875,-0.1376953125
1748590396.9434257,0.101318359375,9.666015625,-0.111083984375
1748590396.953424,0.084228515625,9.819140625000001,-0.10693359375
1748590396.9634237,0.07470703125,9.926806640625001,-0.08935546875
1748590396.973423,0.05419921875,10.022509765625001,-0.0830078125
1748590396.983424,0.045166015625,10.005761718750001,-0.083984375
1748590396.9934237,0.046630859375,9.857421875,-0.082275390625
1748590397.0034242,0.028076171875,9.7521484375,-0.095947265625
1748590397.0134234,0.02978515625,9.730615234375001,-0.112548828125
1748590397.0234232,0.03662109375,9.725830078125,-0.133056640625
1748590397.0334241,0.03759765625,9.76171875,-0.150390625
1748590397.043444,0.033935546875,9.768896484375,-0.1435546875
1748590397.0534246,0.061767578125,9.711474609375001,-0.162841796875
1748590397.0634236,0.0537109375,9.496142578125001,-0.16357421875
1748590397.0734236,0.055908203125,9.515283203125001,-0.17041015625
1748590397.0834236,0.058349609375,9.60859375,-0.165283203125
1748590397.093424,0.064453125,9.505712890625,-0.164794921875
1748590397.1034238,0.054931640625,9.527246093750001,-0.1591796875
1748590397.1134233,0.0595703125,9.553564453125,-0.16552734375
1748590397.1234238,0.03564453125,9.510498046875,-0.158447265625
1748590397.1334243,0.027099609375,9.70908203125,-0.158203125
1748590397.1434298,0.024658203125,9.740185546875,-0.15478515625
1748590397.1534238,0.02685546875,9.747363281250001,-0.16064453125
1748590397.1634257,0.01611328125,9.759326171875001,-0.15576171875
1748590397.1734245,0.037109375,9.72822265625,-0.15478515625
1748590397.1834238,0.045166015625,9.718652343750001,-0.1357421875
1748590397.1934266,0.0517578125,9.651660156250001,-0.12158203125
1748590397.2034235,0.055908203125,9.7521484375,-0.127685546875
1748590397.2134237,0.05517578125,9.711474609375001,-0.1171875
1748590397.2234244,0.042724609375,9.718652343750001,-0.123291015625
1748590397.233424,0.036865234375,9.790429687500001,-0.12939453125
1748590397.2434297,0.03173828125,9.797607421875,-0.146728515625
1748590397.2534235,0.028076171875,9.599023437500001,-0.14990234375
1748590397.263423,0.02099609375,9.61337890625,-0.142822265625
1748590397.2734249,0.01904296875,9.646875000000001,-0.156982421875
1748590397.283424,0.029541015625,9.740185546875,-0.15625
1748590397.2934237,0.02783203125,9.907666015625,-0.15478515625
1748590397.3034236,0.043212890625,9.797607421875,-0.166015625
1748590397.3134239,0.05712890625,9.819140625000001,-0.1494140625
1748590397.3234246,0.064453125,9.831103515625001,-0.14599609375
1748590397.3334236,0.069580078125,9.862207031250001,-0.138671875
1748590397.3434289,0.07568359375,9.730615234375001,-0.129638671875
1748590397.3534245,0.077392578125,9.75693359375,-0.11962890625
1748590397.3634238,0.055908203125,9.730615234375001,-0.112060546875
1748590397.3734233,0.03515625,9.68994140625,-0.10986328125
1748590397.3834233,0.023681640625,9.563134765625001,-0.11865234375
1748590397.3934233,0.01171875,9.591845703125001,-0.12255859375
1748590397.4034235,0.015380859375,9.500927734375,-0.118896484375
1748590397.4134238,0.00732421875,9.596630859375,-0.129638671875
1748590397.423423,0.01318359375,9.630126953125,-0.165771484375
1748590397.4334238,0.031982421875,9.622949218750001,-0.17919921875
1748590397.4434297,0.043212890625,9.66123046875,-0.18017578125
1748590397.4534252,0.051025390625,9.7330078125,-0.191162109375
1748590397.463424,0.053955078125,9.716259765625,-0.18798828125
1748590397.4734242,0.074462890625,9.692333984375,-0.183837890625
1748590397.4834244,0.0712890625,9.788037109375,-0.142822265625
1748590397.4934235,0.079833984375,9.701904296875,-0.139892578125
1748590397.5034242,0.068603515625,9.682763671875001,-0.1171875
1748590397.5134244,0.061279296875,9.70908203125,-0.091552734375
1748590397.5234234,0.060302734375,9.677978515625,-0.100341796875
1748590397.5334237,0.038818359375,9.75693359375,-0.080078125
1748590397.5434294,0.02587890625,9.94833984375,-0.10302734375
1748590397.5534246,0.029541015625,9.914843750000001,-0.111328125
1748590397.563424,0.02880859375,9.826318359375001,-0.131591796875
1748590397.5734239,0.024658203125,9.826318359375001,-0.1416015625
1748590397.5834234,0.031494140625,9.529638671875,-0.15380859375
1748590397.5934236,0.021240234375,9.620556640625,-0.165283203125
1748590397.6034236,0.045166015625,9.603808593750001,-0.1806640625
1748590397.6134238,0.048095703125,9.646875000000001,-0.19140625
1748590397.6234233,0.059326171875,9.649267578125,-0.174072265625
1748590397.633424,0.066650390625,9.654052734375,-0.164794921875
1748590397.6434293,0.06201171875,9.687548828125001,-0.150390625
1748590397.653424,0.055908203125,9.596630859375,-0.14111328125
1748590397.6634235,0.04736328125,9.749755859375,-0.15478515625
1748590397.6734238,0.034423828125,9.725830078125,-0.129638671875
1748590397.6834235,0.0322265625,9.742578125000001,-0.124755859375
1748590397.6934233,0.046630859375,9.807177734375001,-0.125732421875
1748590397.7034233,0.037109375,9.9435546875,-0.133056640625
1748590397.7134235,0.0546875,9.76171875,-0.13916015625
1748590397.7234232,0.060546875,9.742578125000001,-0.119873046875
1748590397.733424,0.057861328125,9.687548828125001,-0.115234375
1748590397.743429,0.049560546875,9.7138671875,-0.12255859375
1748590397.753424,0.047119140625,9.742578125000001,-0.13134765625
1748590397.7634234,0.0361328125,9.749755859375,-0.146728515625
1748590397.7734241,0.03466796875,9.606201171875,-0.150634765625
1748590397.783424,0.0341796875,9.500927734375,-0.146240234375
1748590397.793424,0.030029296875,9.534423828125,-0.1513671875
1748590397.8034244,0.031982421875,9.599023437500001,-0.1396484375
1748590397.8134243,0.022216796875,9.778466796875001,-0.149169921875
1748590397.8234258,0.02880859375,9.682763671875001,-0.140869140625
1748590397.8334253,0.031982421875,9.792822265625,-0.152587890625
1748590397.8434305,0.04296875,9.819140625000001,-0.155517578125
1748590397.853427,0.047607421875,9.792822265625,-0.16259765625
1748590397.8634245,0.066162109375,9.831103515625001,-0.148193359375
1748590397.8734255,0.0908203125,9.933984375000001,-0.133544921875
1748590397.8834283,0.09130859375,9.740185546875,-0.123291015625
1748590397.893424,0.06494140625,9.7521484375,-0.11962890625
1748590397.9034216,0.05859375,9.795214843750001,-0.100341796875
1748590397.9134219,0.0380859375,9.7521484375,-0.10986328125
1748590397.923423,0.02734375,9.773681640625,-0.10302734375
1748590397.9334216,0.017333984375,9.673193359375,-0.103271484375
1748590397.9434228,0.0087890625,9.749755859375,-0.130615234375
1748590397.9534223,0.013671875,9.59423828125,-0.135986328125
1748590397.963422,0.017578125,9.510498046875,-0.158447265625
1748590397.9734204,0.020263671875,9.5607421875,-0.169677734375
1748590397.9834213,0.03662109375,9.567919921875001,-0.18359375
1748590397.9934065,0.05029296875,9.620556640625,-0.196044921875
1748590398.0034232,0.064208984375,9.630126953125,-0.1962890625
1748590398.0134218,0.071044921875,9.658837890625001,-0.18359375
1748590398.0234208,0.083984375,9.725830078125,-0.167236328125
1748590398.0334215,0.089599609375,9.790429687500001,-0.15625
1748590398.0434203,0.083251953125,9.8,-0.12744140625
1748590398.0534222,0.0771484375,9.8,-0.110107421875
1748590398.0634215,0.06591796875,9.749755859375,-0.09716796875
1748590398.073421,0.054443359375,9.768896484375,-0.080810546875
1748590398.0834215,0.049072265625,9.730615234375001,-0.079345703125
1748590398.0934215,0.03125,9.768896484375,-0.075439453125
1748590398.1034253,0.017578125,9.68037109375,-0.097900390625
1748590398.1134226,0.02294921875,9.75693359375,-0.0947265625
1748590398.1234217,0.019287109375,9.773681640625,-0.13720703125
1748590398.1334212,0.02783203125,9.615771484375001,-0.146240234375
1748590398.1434216,0.041015625,9.575097656250001,-0.1796875
1748590398.1534162,0.044189453125,9.551171875000001,-0.186279296875
1748590398.1634219,0.0537109375,9.639697265625001,-0.19091796875
1748590398.1734214,0.0576171875,9.721044921875,-0.1923828125
1748590398.1834204,0.077392578125,9.711474609375001,-0.1845703125
1748590398.1934214,0.07177734375,9.749755859375,-0.161376953125
1748590398.2034228,0.075439453125,9.78564453125,-0.14697265625
1748590398.2134218,0.077392578125,9.792822265625,-0.1259765625
1748590398.2234225,0.063232421875,9.859814453125,-0.10498046875
1748590398.2334213,0.069580078125,9.8287109375,-0.1044921875
1748590398.2434235,0.056396484375,9.855029296875001,-0.09228515625
1748590398.2534215,0.052734375,9.862207031250001,-0.093505859375
1748590398.2634215,0.0361328125,9.699511718750001,-0.09033203125
1748590398.2734206,0.0341796875,9.697119140625,-0.109619140625
1748590398.2834222,0.017578125,9.6564453125,-0.114990234375
1748590398.293422,0.028076171875,9.503320312500001,-0.129638671875
1748590398.3034222,0.02001953125,9.364550781250001,-0.1650390625
1748590398.3134234,0.0322265625,9.49853515625,-0.17333984375
1748590398.3234208,0.03857421875,9.45068359375,-0.19189453125
1748590398.3334217,0.051513671875,9.48896484375,-0.199462890625
1748590398.3434212,0.056396484375,9.582275390625,-0.19091796875
1748590398.353422,0.07080078125,9.589453125,-0.18701171875
1748590398.3634212,0.059326171875,9.496142578125001,-0.18017578125
1748590398.373422,0.065673828125,9.654052734375,-0.166259765625
1748590398.383419,0.057373046875,9.723437500000001,-0.1513671875
1748590398.3934221,0.060302734375,9.788037109375,-0.140869140625
1748590398.403423,0.05322265625,9.950732421875001,-0.139404296875
1748590398.413422,0.034423828125,9.835888671875,-0.122314453125
1748590398.4234219,0.035888671875,9.9052734375,-0.125
1748590398.4334216,0.04052734375,9.931591796875,-0.10986328125
1748590398.4434206,0.038818359375,9.874169921875001,-0.106201171875
1748590398.453422,0.03173828125,9.953125,-0.119384765625
1748590398.4634223,0.03173828125,9.87177734375,-0.13720703125
1748590398.473423,0.052001953125,9.941162109375,-0.130615234375
1748590398.483422,0.057373046875,9.658837890625001,-0.115234375
1748590398.4934225,0.051513671875,9.610986328125001,-0.1220703125
1748590398.503422,0.051025390625,9.56552734375,-0.131103515625
1748590398.5134225,0.060546875,9.646875000000001,-0.1328125
1748590398.523422,0.060791015625,9.398046875,-0.13623046875
1748590398.5334215,0.040771484375,9.4650390625,-0.134521484375
1748590398.5434213,0.0380859375,9.491357421875001,-0.150390625
1748590398.5534213,0.039794921875,9.48896484375,-0.146728515625
1748590398.5634212,0.051025390625,9.49375,-0.152587890625
1748590398.5734215,0.03515625,9.548779296875,-0.1630859375
1748590398.5834212,0.06201171875,9.687548828125001,-0.162841796875
1748590398.5934134,0.036865234375,9.582275390625,-0.144775390625
1748590398.6034248,0.05322265625,9.692333984375,-0.140869140625
1748590398.613422,0.05322265625,9.723437500000001,-0.144775390625
1748590398.623421,0.05615234375,9.766503906250001,-0.14306640625
1748590398.6334214,0.05419921875,9.886132812500001,-0.123779296875
1748590398.6434212,0.0576171875,9.864599609375,-0.12744140625
1748590398.6534216,0.059326171875,10.084716796875,-0.136962890625
1748590398.6634166,0.055908203125,10.02490234375,-0.122314453125
1748590398.6734207,0.05419921875,9.938769531250001,-0.123779296875
1748590398.6834219,0.049072265625,9.893310546875,-0.123046875
1748590398.6934211,0.060546875,9.8287109375,-0.1142578125
1748590398.703425,0.043701171875,9.869384765625,-0.117919921875
1748590398.7134218,0.0400390625,9.859814453125,-0.1201171875
1748590398.7234206,0.0498046875,9.857421875,-0.11865234375
1748590398.7334216,0.0595703125,9.874169921875001,-0.1142578125
1748590398.7434235,0.07666015625,9.725830078125,-0.12109375
1748590398.7534246,0.0693359375,9.510498046875,-0.138427734375
1748590398.763422,0.052978515625,9.534423828125,-0.141357421875
1748590398.7734265,0.053466796875,9.410009765625,-0.14794921875
1748590398.7834218,0.035400390625,9.400439453125001,-0.1572265625
1748590398.7934213,0.026123046875,9.316699218750001,-0.163818359375
1748590398.8034213,0.0107421875,9.335839843750001,-0.177001953125
1748590398.813421,0.0205078125,9.474609375,-0.184326171875
1748590398.823417,0.02587890625,9.532031250000001,-0.1728515625
1748590398.8334212,0.043212890625,9.503320312500001,-0.182373046875
1748590398.8434217,0.052734375,9.735400390625001,-0.1796875
1748590398.853422,0.061279296875,9.790429687500001,-0.175048828125
1748590398.8634222,0.077880859375,9.8,-0.16162109375
1748590398.8734224,0.08544921875,9.926806640625001,-0.143310546875
1748590398.883442,0.0888671875,9.9244140625,-0.12353515625
1748590398.8934257,0.088623046875,9.96748046875,-0.10400390625
1748590398.9034247,0.08740234375,9.99619140625,-0.084228515625
1748590398.913425,0.0859375,9.99140625,-0.065673828125
1748590398.923427,0.0673828125,9.898095703125001,-0.061767578125
1748590398.9334247,0.0546875,9.840673828125,-0.0478515625
1748590398.9434266,0.037109375,9.72822265625,-0.0673828125
1748590398.953427,0.026611328125,9.627734375000001,-0.06787109375
1748590398.963425,0.023193359375,9.563134765625001,-0.104248046875
1748590398.9734235,0.019287109375,9.58466796875,-0.139404296875
1748590398.9834244,0.020263671875,9.512890625,-0.166015625
1748590398.9934237,0.04345703125,9.46982421875,-0.177490234375
1748590399.0034251,0.042724609375,9.347802734375001,-0.19140625
1748590399.0134249,0.041015625,9.575097656250001,-0.187744140625
1748590399.0234244,0.049560546875,9.589453125,-0.202880859375
1748590399.0334237,0.06494140625,9.673193359375,-0.19580078125
1748590399.0434241,0.076416015625,9.7138671875,-0.17236328125
1748590399.0534241,0.0830078125,9.76171875,-0.14404296875
1748590399.0634246,0.087158203125,9.83349609375,-0.13623046875
1748590399.073424,0.093505859375,9.914843750000001,-0.121826171875
1748590399.0834246,0.0908203125,9.99140625,-0.093017578125
1748590399.0934236,0.08447265625,9.945947265625001,-0.0830078125
1748590399.1034255,0.076416015625,10.06318359375,-0.08251953125
1748590399.1134255,0.048095703125,9.838281250000001,-0.0869140625
1748590399.1234243,0.0458984375,9.721044921875,-0.084716796875
1748590399.1334245,0.037109375,9.58466796875,-0.111328125
1748590399.1434236,0.0263671875,9.381298828125,-0.1171875
1748590399.1534243,0.01611328125,9.4267578125,-0.1318359375
1748590399.1634235,0.00390625,9.467431640625001,-0.135498046875
1748590399.1734238,0.000244140625,9.503320312500001,-0.150146484375
1748590399.1834261,0.01123046875,9.510498046875,-0.15478515625
1748590399.1934235,0.025390625,9.575097656250001,-0.1455078125
1748590399.2034252,0.031494140625,9.582275390625,-0.165283203125
1748590399.2134247,0.055908203125,9.622949218750001,-0.159912109375
1748590399.2234237,0.0693359375,9.742578125000001,-0.15576171875
1748590399.2334242,0.085205078125,9.73779296875,-0.14599609375
1748590399.2434268,0.085693359375,9.7521484375,-0.13525390625
1748590399.253424,0.08935546875,9.82392578125,-0.12451171875
1748590399.263423,0.07763671875,9.82392578125,-0.10693359375
1748590399.273429,0.065185546875,9.850244140625001,-0.105224609375
1748590399.283425,0.059326171875,9.816748046875,-0.097900390625
1748590399.2934241,0.052490234375,9.926806640625001,-0.093505859375
1748590399.3034275,0.047119140625,9.725830078125,-0.103759765625
1748590399.313425,0.04541015625,9.764111328125,-0.10107421875
1748590399.3234246,0.0390625,9.723437500000001,-0.121337890625
1748590399.3334234,0.03759765625,9.582275390625,-0.13818359375
1748590399.3434238,0.033935546875,9.575097656250001,-0.1611328125
1748590399.3534253,0.033203125,9.527246093750001,-0.1572265625
1748590399.3634243,0.0380859375,9.51767578125,-0.156982421875
1748590399.3734236,0.03173828125,9.563134765625001,-0.181396484375
1748590399.3834243,0.04345703125,9.577490234375,-0.174072265625
1748590399.3934238,0.041259765625,9.644482421875,-0.177978515625
1748590399.4034274,0.056884765625,9.70908203125,-0.1728515625
1748590399.4134245,0.059814453125,9.699511718750001,-0.145751953125
1748590399.4234262,0.06982421875,9.725830078125,-0.1513671875
1748590399.433425,0.070556640625,9.759326171875001,-0.141357421875
1748590399.4434237,0.064697265625,9.768896484375,-0.1416015625
1748590399.4534261,0.076904296875,9.718652343750001,-0.132080078125
1748590399.4634233,0.053466796875,9.687548828125001,-0.134765625
1748590399.473424,0.057373046875,9.754541015625001,-0.1298828125
1748590399.4834237,0.05126953125,9.75693359375,-0.115478515625
1748590399.493424,0.050048828125,9.768896484375,-0.109130859375
1748590399.5034268,0.056640625,9.744970703125,-0.111572265625
1748590399.513425,0.049072265625,9.747363281250001,-0.123779296875
1748590399.5234234,0.05322265625,9.73779296875,-0.1259765625
1748590399.5334234,0.054443359375,9.754541015625001,-0.15234375
1748590399.5434263,0.05322265625,9.740185546875,-0.1474609375
1748590399.5534236,0.050048828125,9.747363281250001,-0.14990234375
1748590399.5634239,0.057861328125,9.723437500000001,-0.147216796875
1748590399.5734239,0.05712890625,9.725830078125,-0.139892578125
1748590399.5834231,0.058349609375,9.668408203125,-0.15283203125
1748590399.5934253,0.05712890625,9.673193359375,-0.135498046875
1748590399.603427,0.053955078125,9.68994140625,-0.115966796875
1748590399.6134255,0.049560546875,9.694726562500001,-0.12939453125
1748590399.623424,0.047607421875,9.725830078125,-0.126708984375
1748590399.6334255,0.04296875,9.687548828125001,-0.132080078125
1748590399.6434238,0.04248046875,9.723437500000001,-0.143798828125
1748590399.6534233,0.038818359375,9.654052734375,-0.14208984375
1748590399.663424,0.040771484375,9.677978515625,-0.149169921875
1748590399.6734242,0.043701171875,9.711474609375001,-0.149169921875
1748590399.683423,0.04296875,9.692333984375,-0.15869140625
1748590399.6934237,0.048095703125,9.687548828125001,-0.15625
1748590399.7034237,0.03271484375,9.668408203125,-0.151611328125
1748590399.7134273,0.04833984375,9.72822265625,-0.155517578125
1748590399.7234254,0.0556640625,9.75693359375,-0.1494140625
1748590399.7334242,0.04931640625,9.730615234375001,-0.141357421875
1748590399.7434273,0.05029296875,9.778466796875001,-0.134765625
1748590399.753432,0.03173828125,9.70908203125,-0.12939453125
1748590399.763423,0.051025390625,9.778466796875001,-0.1318359375
1748590399.773425,0.051513671875,9.673193359375,-0.126953125
1748590399.783425,0.046630859375,9.699511718750001,-0.140380859375
1748590399.7934248,0.046142578125,9.687548828125001,-0.14794921875
1748590399.8034275,0.039794921875,9.692333984375,-0.142822265625
1748590399.8134253,0.03662109375,9.6564453125,-0.142578125
1748590399.8234253,0.041015625,9.697119140625,-0.166015625
1748590399.8334253,0.044189453125,9.687548828125001,-0.15966796875
1748590399.8434289,0.0478515625,9.639697265625001,-0.1513671875
1748590399.8534396,0.0458984375,9.706689453125001,-0.1484375
1748590399.8634255,0.033935546875,9.754541015625001,-0.141357421875
1748590399.8734226,0.034423828125,9.694726562500001,-0.133544921875
1748590399.8834321,0.053466796875,9.711474609375001,-0.132568359375
1748590399.8934221,0.050537109375,9.7521484375,-0.12744140625
1748590399.9034235,0.039306640625,9.766503906250001,-0.12744140625
1748590399.9134307,0.0419921875,9.744970703125,-0.127685546875
1748590399.9234262,0.037109375,9.634912109375001,-0.135986328125
1748590399.9334269,0.043212890625,9.66123046875,-0.12744140625
1748590399.9434257,0.0458984375,9.704296875,-0.15380859375
1748590399.9534237,0.0380859375,9.735400390625001,-0.14892578125
1748590399.9634216,0.041259765625,9.670800781250001,-0.13818359375
1748590399.9734213,0.0419921875,9.668408203125,-0.144287109375
1748590399.9834213,0.05078125,9.668408203125,-0.14453125
1748590399.9934213,0.0556640625,9.649267578125,-0.128662109375
1748590400.0034268,0.05029296875,9.716259765625,-0.13916015625
1748590400.0134227,0.054443359375,9.749755859375,-0.138427734375
1748590400.023422,0.051513671875,9.744970703125,-0.139404296875
1748590400.033422,0.045654296875,9.701904296875,-0.144287109375
1748590400.0434203,0.041748046875,9.66123046875,-0.149658203125
1748590400.0534208,0.0322265625,9.795214843750001,-0.134521484375
1748590400.0634217,0.040771484375,9.668408203125,-0.151611328125
1748590400.0734215,0.041015625,9.668408203125,-0.156005859375
1748590400.0834212,0.039794921875,9.666015625,-0.14404296875
1748590400.0934236,0.034912109375,9.670800781250001,-0.143798828125
1748590400.103422,0.036865234375,9.658837890625001,-0.1533203125
1748590400.1134222,0.042724609375,9.508105468750001,-0.16455078125
1748590400.123422,0.032470703125,9.7330078125,-0.15380859375
1748590400.1334217,0.052978515625,9.78564453125,-0.152587890625
1748590400.143421,0.044677734375,9.730615234375001,-0.1474609375
1748590400.1534214,0.046875,9.742578125000001,-0.138427734375
1748590400.1634192,0.05322265625,9.68994140625,-0.136474609375
1748590400.1734219,0.0615234375,9.677978515625,-0.115234375
1748590400.1834223,0.031494140625,9.682763671875001,-0.12451171875
1748590400.1934211,0.043701171875,9.670800781250001,-0.111083984375
1748590400.203423,0.040283203125,9.711474609375001,-0.1279296875
1748590400.2134218,0.03955078125,9.711474609375001,-0.13623046875
1748590400.223422,0.03369140625,9.687548828125001,-0.143310546875
1748590400.2334158,0.02734375,9.505712890625,-0.14111328125
1748590400.2434218,0.0341796875,9.778466796875001,-0.15283203125
1748590400.2534223,0.040771484375,9.687548828125001,-0.155029296875
1748590400.263422,0.04296875,9.711474609375001,-0.15625
1748590400.2734225,0.045166015625,9.721044921875,-0.162841796875
1748590400.2834215,0.0322265625,9.699511718750001,-0.14404296875
1748590400.293422,0.06005859375,9.797607421875,-0.15380859375
1748590400.3034182,0.048095703125,9.742578125000001,-0.15576171875
1748590400.3134217,0.046142578125,9.742578125000001,-0.155517578125
1748590400.3234215,0.05126953125,9.8478515625,-0.132080078125
1748590400.3334217,0.047119140625,9.783251953125001,-0.130859375
1748590400.3434217,0.046142578125,9.764111328125,-0.12451171875
1748590400.3534212,0.03125,9.7330078125,-0.109619140625
1748590400.363421,0.034423828125,9.70908203125,-0.12109375
1748590400.3734224,0.033203125,9.747363281250001,-0.127197265625
1748590400.3834212,0.03125,9.668408203125,-0.142333984375
1748590400.3934216,0.030029296875,9.692333984375,-0.142822265625
1748590400.4034226,0.034423828125,9.5224609375,-0.142333984375
1748590400.4134223,0.037353515625,9.539208984375001,-0.15625
1748590400.4234216,0.03955078125,9.591845703125001,-0.1669921875
1748590400.4334214,0.047607421875,9.668408203125,-0.154296875
1748590400.4434154,0.046142578125,9.663623046875001,-0.159423828125
1748590400.453421,0.0498046875,9.68515625,-0.151123046875
1748590400.4634216,0.03759765625,9.795214843750001,-0.150390625
1748590400.4734213,0.055908203125,9.699511718750001,-0.136474609375
1748590400.4834216,0.05859375,9.711474609375001,-0.130126953125
1748590400.4934213,0.05908203125,9.77607421875,-0.11962890625
1748590400.5034237,0.048095703125,9.835888671875,-0.12451171875
1748590400.5134213,0.039794921875,9.819140625000001,-0.128173828125
1748590400.5234213,0.032958984375,9.7521484375,-0.130859375
1748590400.5334225,0.02978515625,9.673193359375,-0.138427734375
1748590400.5434213,0.027099609375,9.668408203125,-0.14697265625
1748590400.553421,0.0322265625,9.68037109375,-0.13232421875
1748590400.563422,0.035400390625,9.692333984375,-0.131591796875
1748590400.5734222,0.04052734375,9.723437500000001,-0.131103515625
1748590400.583422,0.0380859375,9.730615234375001,-0.133544921875
1748590400.5934217,0.034423828125,9.706689453125001,-0.14501953125
1748590400.6034255,0.044921875,9.651660156250001,-0.12646484375
1748590400.6134217,0.044921875,9.654052734375,-0.15234375
1748590400.6234214,0.048095703125,9.666015625,-0.142822265625
1748590400.6334214,0.04931640625,9.668408203125,-0.141357421875
1748590400.6434212,0.055908203125,9.534423828125,-0.127197265625
1748590400.6534212,0.050537109375,9.699511718750001,-0.1318359375
1748590400.6634212,0.04736328125,9.716259765625,-0.12646484375
1748590400.673423,0.04736328125,9.673193359375,-0.137939453125
1748590400.683421,0.03515625,9.687548828125001,-0.13427734375
1748590400.6934216,0.041015625,9.694726562500001,-0.131591796875
1748590400.703422,0.0439453125,9.701904296875,-0.130126953125
1748590400.713421,0.045654296875,9.68515625,-0.152587890625
1748590400.7234213,0.04345703125,9.673193359375,-0.146728515625
1748590400.733422,0.052490234375,9.601416015625,-0.148193359375
1748590400.7434156,0.04248046875,9.66123046875,-0.150634765625
1748590400.7534218,0.052490234375,9.675585937500001,-0.150390625
1748590400.763423,0.061767578125,9.577490234375,-0.1396484375
1748590400.7734237,0.032958984375,9.716259765625,-0.127197265625
1748590400.7834258,0.051513671875,9.675585937500001,-0.126220703125
1748590400.793422,0.045166015625,9.704296875,-0.12744140625
1748590400.803422,0.04931640625,9.7330078125,-0.130859375
1748590400.8134258,0.052001953125,9.675585937500001,-0.1328125
1748590400.8234274,0.0546875,9.721044921875,-0.12939453125
1748590400.833425,0.052978515625,9.780859375,-0.147216796875
1748590400.8434243,0.05029296875,9.677978515625,-0.137939453125
1748590400.8534253,0.046142578125,9.634912109375001,-0.1376953125
1748590400.8634248,0.048583984375,9.66123046875,-0.1357421875
1748590400.8734255,0.05810546875,9.721044921875,-0.13671875
1748590400.8834348,0.04345703125,9.692333984375,-0.125244140625
1748590400.893426,0.043701171875,9.7330078125,-0.141357421875
1748590400.9034307,0.04443359375,9.730615234375001,-0.13720703125
1748590400.9133987,0.04736328125,9.692333984375,-0.1396484375
1748590400.9234223,0.039794921875,9.692333984375,-0.14306640625
1748590400.933426,0.042236328125,9.7330078125,-0.148193359375
1748590400.9434252,0.034912109375,9.795214843750001,-0.14501953125
1748590400.953423,0.04296875,9.718652343750001,-0.1552734375
1748590400.9634218,0.034912109375,9.651660156250001,-0.15087890625
1748590400.973421,0.039794921875,9.646875000000001,-0.13818359375
1748590400.98341,0.04150390625,9.651660156250001,-0.1357421875
1748590400.993421,0.036865234375,9.704296875,-0.1376953125
1748590401.0034237,0.051513671875,9.61337890625,-0.1328125
1748590401.0134218,0.041015625,9.706689453125001,-0.134521484375
1748590401.0234215,0.05126953125,9.788037109375,-0.12939453125
1748590401.0334215,0.044921875,9.77607421875,-0.13623046875
1748590401.0434215,0.051025390625,9.721044921875,-0.134033203125
1748590401.053388,0.061767578125,9.811962890625,-0.1337890625
1748590401.0634212,0.04833984375,9.68994140625,-0.1357421875
1748590401.073421,0.0556640625,9.706689453125001,-0.13525390625
1748590401.0834208,0.04296875,9.70908203125,-0.1357421875
1748590401.0934215,0.04638671875,9.721044921875,-0.138427734375
1748590401.103428,0.05224609375,9.7521484375,-0.1357421875
1748590401.1134257,0.06201171875,9.68515625,-0.130859375
1748590401.1234248,0.049072265625,9.529638671875,-0.142822265625
1748590401.1334267,0.04150390625,9.697119140625,-0.140869140625
1748590401.143424,0.03857421875,9.658837890625001,-0.15087890625
1748590401.153422,0.044921875,9.692333984375,-0.15478515625
1748590401.1634302,0.044921875,9.666015625,-0.149658203125
1748590401.1734262,0.041748046875,9.704296875,-0.14111328125
1748590401.1834252,0.042236328125,9.512890625,-0.14306640625
1748590401.1934242,0.044677734375,9.520068359375001,-0.14453125
1748590401.2034237,0.0498046875,9.677978515625,-0.1357421875
1748590401.2134242,0.05224609375,9.716259765625,-0.135009765625
1748590401.2234235,0.048095703125,9.701904296875,-0.13671875
1748590401.233424,0.044677734375,9.744970703125,-0.148193359375
1748590401.2434242,0.04736328125,9.673193359375,-0.1318359375
1748590401.2534237,0.041748046875,9.730615234375001,-0.145751953125
1748590401.26343,0.037109375,9.6564453125,-0.14794921875
1748590401.2734246,0.0439453125,9.66123046875,-0.141357421875
1748590401.2834241,0.041259765625,9.692333984375,-0.1318359375
1748590401.2934237,0.044921875,9.677978515625,-0.129150390625
1748590401.303424,0.041748046875,9.76171875,-0.14013671875
1748590401.3134239,0.046875,9.718652343750001,-0.135498046875
1748590401.323424,0.04248046875,9.740185546875,-0.141357421875
1748590401.3334239,0.0458984375,9.730615234375001,-0.14306640625
1748590401.3434238,0.03369140625,9.716259765625,-0.143798828125
1748590401.3534257,0.05029296875,9.716259765625,-0.156494140625
1748590401.36343,0.052490234375,9.730615234375001,-0.15283203125
1748590401.3734236,0.04345703125,9.742578125000001,-0.151123046875
1748590401.3834233,0.048095703125,9.744970703125,-0.147216796875
1748590401.3934243,0.038330078125,9.740185546875,-0.141845703125
1748590401.4034235,0.0458984375,9.716259765625,-0.13916015625
1748590401.4134235,0.040283203125,9.682763671875001,-0.137451171875
1748590401.4234233,0.03857421875,9.77607421875,-0.14599609375
1748590401.4334245,0.039794921875,9.68994140625,-0.15966796875
1748590401.4434237,0.039794921875,9.64208984375,-0.155029296875
1748590401.453424,0.041015625,9.649267578125,-0.150390625
1748590401.4634292,0.035400390625,9.622949218750001,-0.153564453125
1748590401.473424,0.031494140625,9.673193359375,-0.14892578125
1748590401.4834235,0.04052734375,9.644482421875,-0.146484375
1748590401.493424,0.036376953125,9.668408203125,-0.132568359375
1748590401.5034242,0.03173828125,9.606201171875,-0.1337890625
1748590401.5134244,0.04296875,9.649267578125,-0.134521484375
1748590401.5234244,0.0380859375,9.73779296875,-0.138671875
1748590401.5334234,0.0400390625,9.68994140625,-0.133056640625
1748590401.5434246,0.041259765625,9.716259765625,-0.15087890625
1748590401.5534236,0.042724609375,9.735400390625001,-0.12548828125
1748590401.563429,0.05810546875,9.721044921875,-0.12841796875
1748590401.5734231,0.059814453125,9.510498046875,-0.132568359375
1748590401.5834236,0.043701171875,9.699511718750001,-0.11962890625
1748590401.5934234,0.024658203125,9.874169921875001,-0.134521484375
1748590401.6034236,0.053955078125,9.914843750000001,-0.12939453125
1748590401.613423,0.04931640625,9.587060546875001,-0.131591796875
1748590401.6234243,0.024169921875,9.747363281250001,-0.13818359375
1748590401.633424,0.016357421875,9.850244140625001,-0.150146484375
1748590401.6434238,0.03564453125,9.898095703125001,-0.15087890625
1748590401.653423,0.041748046875,9.694726562500001,-0.159423828125
1748590401.663429,0.03662109375,9.68037109375,-0.169189453125
1748590401.673425,0.05322265625,9.503320312500001,-0.166748046875
1748590401.6834235,0.039794921875,9.575097656250001,-0.157470703125
1748590401.6934237,0.041015625,9.484179687500001,-0.157958984375
1748590401.7034266,0.05029296875,9.6181640625,-0.1474609375
1748590401.7134244,0.184326171875,9.077441406250001,-0.16796875
1748590401.723424,0.145263671875,9.410009765625,-0.1357421875
1748590401.7334242,0.07275390625,9.462646484375,-0.12109375
1748590401.7434237,0.083251953125,9.699511718750001,-0.122314453125
1748590401.7534246,0.05126953125,9.998583984375001,-0.12451171875
1748590401.7634223,0.032958984375,9.936376953125,-0.13134765625
1748590401.7734246,0.027587890625,9.816748046875,-0.1171875
1748590401.7834246,-0.024169921875,10.029687500000001,-0.11962890625
1748590401.7934232,0.020751953125,10.09189453125,-0.148193359375
1748590401.8034275,0.01171875,10.053613281250001,-0.1611328125
1748590401.8134253,0.04052734375,9.802392578125001,-0.158203125
1748590401.8234258,0.034912109375,9.606201171875,-0.1591796875
1748590401.8334448,0.03369140625,9.558349609375,-0.173828125
1748590401.8434246,0.041015625,9.500927734375,-0.176025390625
1748590401.8534253,0.0341796875,9.668408203125,-0.17236328125
1748590401.8634245,0.025146484375,9.68037109375,-0.17578125
1748590401.873426,0.02490234375,9.630126953125,-0.1708984375
1748590401.8834765,0.026611328125,9.668408203125,-0.157958984375
1748590401.8934262,0.024169921875,9.7138671875,-0.15234375
1748590401.903426,0.046142578125,9.68037109375,-0.1337890625
1748590401.9134247,0.043212890625,9.73779296875,-0.1201171875
1748590401.9234293,0.051025390625,9.66123046875,-0.110595703125
1748590401.9334254,0.061767578125,9.723437500000001,-0.111572265625
1748590401.9434237,0.07177734375,9.694726562500001,-0.119873046875
1748590401.9534216,0.07080078125,9.704296875,-0.109619140625
1748590401.9634218,0.066650390625,9.936376953125,-0.13720703125
1748590401.9734218,0.05712890625,9.766503906250001,-0.13525390625
1748590401.983421,0.057861328125,9.70908203125,-0.1337890625
1748590401.9934208,0.052490234375,9.66123046875,-0.130859375
1748590402.003421,0.05517578125,9.673193359375,-0.130859375
1748590402.0134206,0.060791015625,9.742578125000001,-0.1396484375
1748590402.0234213,0.060791015625,9.790429687500001,-0.126708984375
1748590402.0334167,0.048828125,9.66123046875,-0.130859375
1748590402.043422,0.031982421875,9.759326171875001,-0.140869140625
1748590402.0534213,0.035400390625,9.68994140625,-0.138671875
1748590402.063421,0.0341796875,9.589453125,-0.141845703125
1748590402.073421,0.040771484375,9.575097656250001,-0.17041015625
1748590402.0834215,0.04541015625,9.61337890625,-0.146240234375
1748590402.0934217,0.036376953125,9.606201171875,-0.150634765625
1748590402.103421,0.041259765625,9.663623046875001,-0.141357421875
1748590402.1134214,0.041748046875,9.7330078125,-0.12109375
1748590402.1234226,0.056640625,9.764111328125,-0.125244140625
1748590402.1334221,0.050537109375,9.780859375,-0.1142578125
1748590402.1434216,0.053466796875,9.80478515625,-0.13232421875
1748590402.1534212,0.050537109375,9.668408203125,-0.109619140625
1748590402.1634214,0.046630859375,9.61337890625,-0.119873046875
1748590402.1734211,0.03466796875,9.742578125000001,-0.131591796875
1748590402.1834211,0.030029296875,9.747363281250001,-0.121826171875
1748590402.1934216,0.03271484375,9.70908203125,-0.113037109375
1748590402.2034218,0.019775390625,9.687548828125001,-0.12646484375
1748590402.2134244,0.02783203125,9.64208984375,-0.125244140625
1748590402.2234218,0.03466796875,9.759326171875001,-0.135498046875
1748590402.2334216,0.04248046875,9.811962890625,-0.136474609375
1748590402.2434216,0.04541015625,9.811962890625,-0.13037109375
1748590402.2534213,0.05712890625,9.795214843750001,-0.129638671875
1748590402.263422,0.058837890625,9.78564453125,-0.13330078125
1748590402.2734215,0.0537109375,9.68994140625,-0.13671875
1748590402.2834232,0.05322265625,9.721044921875,-0.14013671875
1748590402.2934222,0.05078125,9.73779296875,-0.14453125
1748590402.3034213,0.037353515625,9.938769531250001,-0.155029296875
1748590402.313421,0.062255859375,9.82392578125,-0.15185546875
1748590402.3234217,0.04345703125,9.83349609375,-0.129150390625
1748590402.3334217,0.045654296875,9.816748046875,-0.138671875
1748590402.3434215,0.04638671875,9.795214843750001,-0.109375
1748590402.3534212,0.05419921875,9.747363281250001,-0.103759765625
1748590402.363422,0.050048828125,9.716259765625,-0.099853515625
1748590402.373423,0.065673828125,9.790429687500001,-0.107666015625
1748590402.3834212,0.05615234375,9.811962890625,-0.111083984375
1748590402.3934212,0.06494140625,9.914843750000001,-0.13525390625
1748590402.4034216,0.073486328125,9.866992187500001,-0.13134765625
1748590402.4134214,0.0615234375,9.814355468750001,-0.150390625
1748590402.4234219,0.053466796875,9.855029296875001,-0.160888671875
1748590402.4334223,0.057373046875,9.6564453125,-0.15869140625
1748590402.4434242,0.06591796875,9.68515625,-0.177734375
1748590402.4534216,0.065185546875,9.6181640625,-0.186767578125
1748590402.463422,0.06689453125,9.51767578125,-0.1904296875
1748590402.4734216,0.0751953125,9.460253906250001,-0.185546875
1748590402.4834216,0.068603515625,9.515283203125001,-0.17431640625
1748590402.4934208,0.0625,9.630126953125,-0.174072265625
1748590402.503422,0.06396484375,9.68994140625,-0.156494140625
1748590402.5134153,0.063720703125,9.771289062500001,-0.152099609375
1748590402.5234215,0.0576171875,9.831103515625001,-0.15673828125
1748590402.5334225,0.068115234375,9.845458984375,-0.13916015625
1748590402.5434225,0.077392578125,9.855029296875001,-0.114501953125
1748590402.553422,0.065185546875,9.77607421875,-0.121337890625
1748590402.563422,0.06640625,9.75693359375,-0.09814453125
1748590402.5734217,0.060546875,9.811962890625,-0.089111328125
1748590402.5834174,0.0556640625,9.826318359375001,-0.091796875
1748590402.593422,0.046630859375,9.692333984375,-0.096923828125
1748590402.6034217,0.0458984375,9.82392578125,-0.082275390625
1748590402.6134217,0.041015625,9.797607421875,-0.08935546875
1748590402.6234212,0.03076171875,9.838281250000001,-0.09033203125
1748590402.6334214,0.01904296875,9.735400390625001,-0.101318359375
1748590402.6434221,0.014892578125,9.699511718750001,-0.10107421875
1748590402.653411,0.013671875,9.682763671875001,-0.114501953125
1748590402.6634207,0.01220703125,9.639697265625001,-0.119873046875
1748590402.6734216,0.01025390625,9.579882812500001,-0.122314453125
1748590402.6834211,0.013671875,9.543994140625001,-0.11572265625
1748590402.6934216,0.017578125,9.596630859375,-0.1171875
1748590402.7034206,0.0185546875,9.668408203125,-0.103759765625
1748590402.7134213,0.02880859375,9.596630859375,-0.104248046875
1748590402.723413,0.0390625,9.63251953125,-0.112060546875
1748590402.7334218,0.061279296875,9.510498046875,-0.08203125
1748590402.7434213,0.0634765625,9.744970703125,-0.106689453125
1748590402.7534208,0.0615234375,9.7521484375,-0.091064453125
1748590402.763421,0.05029296875,9.790429687500001,-0.0869140625
1748590402.7734215,0.040283203125,9.890917968750001,-0.08740234375
1748590402.783422,0.045654296875,9.933984375000001,-0.093505859375
1748590402.7934127,0.0205078125,9.878955078125001,-0.089599609375
1748590402.8034215,0.022216796875,9.8287109375,-0.096923828125
1748590402.8134217,0.028076171875,9.783251953125001,-0.104736328125
1748590402.8234222,0.03076171875,9.718652343750001,-0.103515625
1748590402.8334208,0.03759765625,9.780859375,-0.122802734375
1748590402.8434217,0.056640625,9.723437500000001,-0.138916015625
1748590402.853423,0.042236328125,9.500927734375,-0.1357421875
1748590402.863423,0.049072265625,9.792822265625,-0.14794921875
1748590402.873423,0.05029296875,9.6373046875,-0.138671875
1748590402.8834314,0.04296875,9.60859375,-0.148193359375
1748590402.8934255,0.04345703125,9.615771484375001,-0.140625
1748590402.9034274,0.0361328125,9.68994140625,-0.15087890625
1748590402.913427,0.045166015625,9.675585937500001,-0.12890625
1748590402.9234273,0.03369140625,9.742578125000001,-0.131103515625
1748590402.9334254,0.028076171875,9.740185546875,-0.119384765625
1748590402.943426,0.02880859375,9.759326171875001,-0.10791015625
1748590402.9534254,0.040283203125,9.668408203125,-0.1103515625
1748590402.9634237,0.017822265625,9.718652343750001,-0.092041015625
1748590402.9734237,0.0166015625,9.68994140625,-0.097900390625
1748590402.9834237,0.02880859375,9.773681640625,-0.0947265625
1748590402.993424,0.0224609375,9.778466796875001,-0.10009765625
1748590403.0034244,0.015625,9.862207031250001,-0.091552734375
1748590403.0134244,0.011962890625,9.768896484375,-0.08837890625
1748590403.0234232,0.00927734375,9.73779296875,-0.09814453125
1748590403.0334232,0.00634765625,9.778466796875001,-0.102294921875
1748590403.0434227,0.00390625,9.735400390625001,-0.09423828125
1748590403.0534232,0.0029296875,9.716259765625,-0.109375
1748590403.0634239,0.00830078125,9.704296875,-0.108154296875
1748590403.0734239,0.01318359375,9.742578125000001,-0.111572265625
1748590403.0834243,0.018310546875,9.80478515625,-0.119873046875
1748590403.0934238,0.0205078125,9.91962890625,-0.132080078125
1748590403.1034253,0.020263671875,9.75693359375,-0.1279296875
1748590403.1134248,0.0126953125,9.630126953125,-0.123779296875
1748590403.1234238,-0.00537109375,9.599023437500001,-0.120361328125
1748590403.1334243,-0.009765625,9.601416015625,-0.1201171875
1748590403.1434238,-0.006103515625,9.725830078125,-0.115478515625
1748590403.153423,-0.001953125,9.68994140625,-0.119140625
1748590403.1634238,-0.009765625,9.749755859375,-0.120361328125
1748590403.173425,-0.009765625,9.740185546875,-0.125
1748590403.183424,0.0,9.749755859375,-0.12744140625
1748590403.1934235,-0.015380859375,9.747363281250001,-0.1240234375
1748590403.2034261,0.002197265625,9.711474609375001,-0.112548828125
1748590403.2134252,0.010498046875,9.711474609375001,-0.129638671875
1748590403.223424,0.007080078125,9.706689453125001,-0.130859375
1748590403.233424,0.00732421875,9.730615234375001,-0.126953125
1748590403.243425,0.00830078125,9.759326171875001,-0.12060546875
1748590403.2534251,0.00439453125,9.7521484375,-0.12451171875
1748590403.2634242,0.012939453125,9.68515625,-0.128173828125
1748590403.2734241,0.002685546875,9.749755859375,-0.11328125
1748590403.2834241,0.0087890625,9.70908203125,-0.112060546875
1748590403.293424,0.0107421875,9.687548828125001,-0.10888671875
1748590403.3034256,0.010009765625,9.699511718750001,-0.108154296875
1748590403.313425,0.01123046875,9.706689453125001,-0.116943359375
1748590403.3234243,0.0126953125,9.759326171875001,-0.12158203125
1748590403.3334239,0.0068359375,9.742578125000001,-0.11279296875
1748590403.343424,-0.000244140625,9.764111328125,-0.1103515625
1748590403.353425,0.00390625,9.742578125000001,-0.12744140625
1748590403.363424,0.011474609375,9.747363281250001,-0.1376953125
1748590403.3734312,0.0029296875,9.692333984375,-0.13232421875
1748590403.3834245,0.021240234375,9.673193359375,-0.142333984375
1748590403.393424,0.02294921875,9.797607421875,-0.14794921875
1748590403.4034247,0.01953125,9.666015625,-0.128662109375
1748590403.4134245,0.0078125,9.766503906250001,-0.12744140625
1748590403.423424,0.024169921875,9.778466796875001,-0.13671875
1748590403.4334254,0.00390625,9.742578125000001,-0.130615234375
1748590403.4434237,0.011962890625,9.792822265625,-0.13134765625
1748590403.453424,0.015625,9.658837890625001,-0.139892578125
1748590403.4634237,0.012451171875,9.70908203125,-0.1240234375
1748590403.4734302,0.014892578125,9.701904296875,-0.126220703125
1748590403.4834244,0.01904296875,9.730615234375001,-0.130615234375
1748590403.4934242,0.02197265625,9.747363281250001,-0.123779296875
1748590403.5034256,0.024658203125,9.725830078125,-0.109619140625
1748590403.5134242,0.02880859375,9.72822265625,-0.1201171875
1748590403.5234244,0.031005859375,9.795214843750001,-0.11962890625
1748590403.533424,0.030029296875,9.759326171875001,-0.12646484375
1748590403.5434234,0.027099609375,9.73779296875,-0.122802734375
1748590403.5534234,0.02587890625,9.792822265625,-0.119873046875
1748590403.5634239,0.0400390625,9.75693359375,-0.12109375
1748590403.5734296,0.027587890625,9.742578125000001,-0.12841796875
1748590403.5834234,0.034912109375,9.77607421875,-0.135498046875
1748590403.593424,0.038330078125,9.716259765625,-0.132080078125
1748590403.6034243,0.034423828125,9.649267578125,-0.131591796875
1748590403.613425,0.04150390625,9.649267578125,-0.130126953125
1748590403.6234233,0.0439453125,9.78564453125,-0.126953125
1748590403.633424,0.033935546875,9.771289062500001,-0.137939453125
1748590403.6434233,0.02490234375,9.694726562500001,-0.138427734375
1748590403.6534247,0.024169921875,9.773681640625,-0.12939453125
1748590403.6634238,0.017822265625,9.704296875,-0.1298828125
1748590403.6734304,0.00634765625,9.682763671875001,-0.13037109375
1748590403.6834238,0.0185546875,9.740185546875,-0.1396484375
1748590403.6934233,0.02294921875,9.754541015625001,-0.126708984375
1748590403.7034237,0.02099609375,9.663623046875001,-0.131103515625
1748590403.7134252,0.015380859375,9.6373046875,-0.12548828125
1748590403.723425,0.019775390625,9.644482421875,-0.13134765625
1748590403.7334266,0.013427734375,9.699511718750001,-0.12890625
1748590403.7434247,0.002197265625,9.704296875,-0.134521484375
1748590403.7534273,0.02490234375,9.768896484375,-0.13134765625
1748590403.7634249,0.0283203125,9.821533203125,-0.12744140625
1748590403.7734303,0.03125,9.807177734375001,-0.117431640625
1748590403.7834241,0.0322265625,9.749755859375,-0.12109375
1748590403.7934256,0.04638671875,9.694726562500001,-0.1201171875
1748590403.803425,0.02734375,9.694726562500001,-0.120849609375
1748590403.8134274,0.021728515625,9.6181640625,-0.1279296875
1748590403.823425,0.0244140625,9.747363281250001,-0.1220703125
1748590403.833425,0.024658203125,9.692333984375,-0.128662109375
1748590403.843427,0.022705078125,9.730615234375001,-0.126220703125
1748590403.853432,0.02490234375,9.759326171875001,-0.131103515625
1748590403.8634255,0.0224609375,9.68515625,-0.1376953125
1748590403.8734589,0.02197265625,9.721044921875,-0.13427734375
1748590403.8834386,0.02490234375,9.797607421875,-0.133544921875
1748590403.8934221,0.024169921875,9.68515625,-0.135986328125
1748590403.903434,0.029052734375,9.515283203125001,-0.12890625
1748590403.9134297,0.0234375,9.68515625,-0.1376953125
1748590403.9234247,0.032958984375,9.766503906250001,-0.114013671875
1748590403.9334261,0.0400390625,9.788037109375,-0.1279296875
1748590403.9434254,0.04345703125,9.764111328125,-0.12548828125
1748590403.9534245,0.036865234375,9.70908203125,-0.123291015625
1748590403.9634237,0.039306640625,9.7138671875,-0.118408203125
1748590403.9734318,0.044677734375,9.666015625,-0.14013671875
1748590403.983424,0.031982421875,9.72822265625,-0.114013671875
1748590403.9934254,0.03271484375,9.718652343750001,-0.1142578125
1748590404.0034244,0.038818359375,9.718652343750001,-0.120849609375
1748590404.013425,0.030517578125,9.721044921875,-0.1337890625
1748590404.0234244,0.02587890625,9.697119140625,-0.135498046875
1748590404.0334232,0.03662109375,9.742578125000001,-0.12890625
1748590404.0434244,0.027099609375,9.711474609375001,-0.128173828125
1748590404.053425,0.03173828125,9.706689453125001,-0.12939453125
1748590404.0634232,0.030029296875,9.735400390625001,-0.135009765625
1748590404.0734234,0.0224609375,9.699511718750001,-0.13330078125
1748590404.0834243,0.028076171875,9.778466796875001,-0.140869140625
1748590404.0934343,0.01953125,9.77607421875,-0.1259765625
1748590404.1034238,0.03076171875,9.6564453125,-0.135009765625
1748590404.1134238,0.023681640625,9.6373046875,-0.125
1748590404.1234217,0.029541015625,9.699511718750001,-0.13525390625
1748590404.133423,0.033447265625,9.68037109375,-0.12646484375
1748590404.1434236,0.031982421875,9.759326171875001,-0.126708984375
1748590404.1534238,0.035400390625,9.697119140625,-0.111572265625
1748590404.1634233,0.03125,9.704296875,-0.124267578125
1748590404.1734242,0.025390625,9.73779296875,-0.1279296875
1748590404.183423,0.02783203125,9.744970703125,-0.129638671875
1748590404.1934242,0.03564453125,9.718652343750001,-0.123779296875
1748590404.203423,0.022216796875,9.68037109375,-0.134521484375
1748590404.2134235,0.03662109375,9.675585937500001,-0.13623046875
1748590404.2234232,0.03125,9.687548828125001,-0.131103515625
1748590404.2334344,0.02783203125,9.6373046875,-0.134765625
1748590404.2434244,0.033203125,9.68037109375,-0.137451171875
1748590404.2534232,0.037109375,9.735400390625001,-0.153076171875
1748590404.2634232,0.03271484375,9.771289062500001,-0.145263671875
1748590404.2734256,0.03515625,9.692333984375,-0.142333984375
1748590404.2834237,0.045654296875,9.68037109375,-0.137939453125
1748590404.293424,0.04541015625,9.63251953125,-0.138671875
1748590404.3034227,0.035888671875,9.675585937500001,-0.1298828125
1748590404.3134232,0.043701171875,9.778466796875001,-0.124267578125
1748590404.3234234,0.031494140625,9.725830078125,-0.13037109375
1748590404.3334231,0.062255859375,9.9244140625,-0.12255859375
1748590404.3434231,0.05126953125,9.735400390625001,-0.12890625
1748590404.353424,0.048828125,9.749755859375,-0.11962890625
1748590404.3634245,0.04736328125,9.68994140625,-0.1298828125
1748590404.3734229,0.03466796875,9.663623046875001,-0.130859375
1748590404.3834236,0.042724609375,9.68994140625,-0.125244140625
1748590404.393425,0.030517578125,9.500927734375,-0.135009765625
1748590404.4034233,0.0234375,9.682763671875001,-0.126708984375
1748590404.4134235,0.028564453125,9.666015625,-0.142333984375
1748590404.4234362,0.0283203125,9.651660156250001,-0.142333984375
1748590404.4334247,0.025390625,9.725830078125,-0.13232421875
1748590404.4434235,0.030517578125,9.60859375,-0.13623046875
1748590404.4534235,0.019287109375,9.5224609375,-0.13134765625
1748590404.4634228,0.0185546875,9.699511718750001,-0.134765625
1748590404.473425,0.01904296875,9.742578125000001,-0.138671875
1748590404.4834244,0.01953125,9.744970703125,-0.130126953125
1748590404.4934244,0.021728515625,9.802392578125001,-0.141845703125
1748590404.503423,0.021240234375,9.91962890625,-0.142578125
1748590404.5134232,0.01953125,9.938769531250001,-0.130126953125
1748590404.5234234,0.013427734375,9.838281250000001,-0.137451171875
1748590404.5334244,0.019287109375,9.821533203125,-0.140869140625
1748590404.543423,0.01953125,9.649267578125,-0.142578125
1748590404.5534232,0.045166015625,9.60859375,-0.1533203125
1748590404.5634234,0.035400390625,9.603808593750001,-0.154296875
1748590404.573424,0.069580078125,9.627734375000001,-0.15185546875
1748590404.583423,0.0830078125,9.68515625,-0.1669921875
1748590404.5934224,0.078125,9.790429687500001,-0.164306640625
1748590404.6034243,0.068603515625,9.869384765625,-0.167236328125
1748590404.6134236,0.050537109375,9.890917968750001,-0.16357421875
1748590404.6234238,0.036865234375,9.9052734375,-0.163330078125
1748590404.6334226,0.034912109375,9.610986328125001,-0.15771484375
1748590404.643423,0.031494140625,9.59423828125,-0.160400390625
1748590404.6534243,0.038330078125,9.410009765625,-0.151611328125
1748590404.6634233,0.0380859375,9.505712890625,-0.15771484375
1748590404.673424,0.039794921875,9.558349609375,-0.162841796875
1748590404.683423,0.037841796875,9.783251953125001,-0.171142578125
1748590404.6934228,0.02685546875,9.78564453125,-0.14990234375
1748590404.703427,0.027587890625,9.819140625000001,-0.152587890625
1748590404.7134252,0.017333984375,9.845458984375,-0.1484375
1748590404.7234232,-0.00537109375,9.835888671875,-0.14404296875
1748590404.7334232,-0.016357421875,9.816748046875,-0.134521484375
1748590404.7434244,-0.060546875,9.694726562500001,-0.13525390625
1748590404.753427,-0.046142578125,9.496142578125001,-0.138671875
1748590404.7634232,-0.03271484375,9.512890625,-0.136962890625
1748590404.7734241,-0.021728515625,9.630126953125,-0.112060546875
1748590404.783429,-0.004638671875,9.694726562500001,-0.105712890625
1748590404.7934244,0.021240234375,9.855029296875001,-0.099365234375
1748590404.8034418,0.04638671875,9.97705078125,-0.1044921875
1748590404.8134246,0.033203125,10.032080078125,-0.104248046875
1748590404.8234243,0.029296875,10.022509765625001,-0.1064453125
1748590404.8334236,0.018798828125,9.989013671875,-0.119384765625
1748590404.8434289,0.002197265625,9.797607421875,-0.130859375
1748590404.853432,-0.013916015625,9.773681640625,-0.125244140625
1748590404.8634243,-0.021728515625,9.670800781250001,-0.124267578125
1748590404.873423,-0.029052734375,9.625341796875,-0.12451171875
1748590404.8834112,-0.02783203125,9.582275390625,-0.107177734375
1748590404.8934262,-0.034912109375,9.553564453125,-0.114013671875
1748590404.9034305,-0.02392578125,9.524853515625,-0.10693359375
1748590404.9134068,-0.012451171875,9.431542968750001,-0.101318359375
1748590404.9234276,0.00341796875,9.481787109375,-0.096435546875
1748590404.9334261,-0.001220703125,9.601416015625,-0.122802734375
1748590404.9434233,0.00390625,9.579882812500001,-0.130615234375
1748590404.9534237,-0.00927734375,9.773681640625,-0.1591796875
1748590404.9634237,0.002685546875,9.716259765625,-0.153076171875
1748590404.9734247,-0.015380859375,9.783251953125001,-0.16455078125
1748590404.9834235,-0.014404296875,9.843066406250001,-0.162109375
1748590404.9934232,-0.009521484375,9.603808593750001,-0.162841796875
1748590405.0034263,-0.008056640625,9.508105468750001,-0.1591796875
1748590405.0134287,-0.001953125,9.582275390625,-0.1650390625
1748590405.023424,0.005126953125,9.706689453125001,-0.159912109375
1748590405.0334232,0.011474609375,9.742578125000001,-0.157958984375
1748590405.0434241,0.0087890625,9.725830078125,-0.14697265625
1748590405.0534234,0.00830078125,9.606201171875,-0.141357421875
1748590405.0634234,-0.006103515625,9.51767578125,-0.120361328125
1748590405.0734234,-0.034423828125,9.534423828125,-0.1279296875
1748590405.0834239,-0.052001953125,9.572705078125,-0.13134765625
1748590405.0934248,-0.07568359375,9.60859375,-0.11083984375
1748590405.103425,-0.093505859375,9.68994140625,-0.10986328125
1748590405.1134255,-0.091552734375,9.883740234375,-0.115234375
1748590405.1234238,-0.08984375,10.032080078125,-0.126953125
1748590405.1334243,-0.079833984375,10.101464843750001,-0.134033203125
1748590405.1434238,-0.061767578125,10.103857421875,-0.14111328125
1748590405.153424,-0.046142578125,10.034472656250001,-0.1484375
1748590405.1634235,-0.009521484375,9.890917968750001,-0.147216796875
1748590405.1734242,-0.003173828125,9.697119140625,-0.14111328125
1748590405.1834242,-0.009033203125,9.49375,-0.153564453125
1748590405.1934235,-0.031005859375,9.390869140625,-0.15576171875
1748590405.2034252,-0.059814453125,9.340625000000001,-0.1640625
1748590405.2134264,-0.094970703125,9.352587890625001,-0.1650390625
1748590405.2234251,-0.123291015625,9.457861328125,-0.169677734375
1748590405.2334242,-0.13720703125,9.639697265625001,-0.18359375
1748590405.2434242,-0.14697265625,9.630126953125,-0.160400390625
1748590405.2534275,-0.1396484375,9.582275390625,-0.156494140625
1748590405.2634232,-0.125,9.5607421875,-0.13525390625
1748590405.2734244,-0.1181640625,9.797607421875,-0.1201171875
1748590405.2834249,-0.0849609375,9.677978515625,-0.113037109375
1748590405.2934241,-0.057861328125,10.01533203125,-0.114501953125
1748590405.3034277,-0.040771484375,10.07275390625,-0.100341796875
1748590405.3134246,-0.02392578125,9.998583984375001,-0.09228515625
1748590405.3234236,-0.0224609375,9.76171875,-0.093994140625
1748590405.3334243,-0.038330078125,9.508105468750001,-0.095458984375
1748590405.3434243,-0.054443359375,9.44111328125,-0.07958984375
1748590405.3534236,-0.08447265625,9.388476562500001,-0.0908203125
1748590405.3634243,-0.1103515625,9.352587890625001,-0.08935546875
1748590405.373424,-0.147705078125,9.34541015625,-0.103759765625
1748590405.383425,-0.184814453125,9.37412109375,-0.115234375
1748590405.3934238,-0.192138671875,9.443505859375001,-0.126953125
1748590405.403427,-0.211669921875,9.64208984375,-0.1494140625
1748590405.4134254,-0.197265625,9.520068359375001,-0.163818359375
1748590405.4234273,-0.189697265625,9.419580078125001,-0.180419921875
1748590405.4334245,-0.185302734375,9.359765625000001,-0.18359375
1748590405.443424,-0.1689453125,9.194677734375,-0.194091796875
1748590405.4534256,-0.156494140625,8.979345703125,-0.1767578125
1748590405.4634237,-0.181396484375,8.749658203125001,-0.159423828125
1748590405.473424,-0.18994140625,8.921923828125001,-0.154541015625
1748590405.483424,-0.2021484375,8.976953125000001,-0.152099609375
1748590405.4934247,-0.23095703125,9.03916015625,-0.148681640625
1748590405.5034277,-0.240478515625,9.096582031250001,-0.152587890625
1748590405.5134258,-0.25390625,9.070263671875,-0.164794921875
1748590405.523424,-0.27197265625,9.13486328125,-0.15869140625
1748590405.5334234,-0.269775390625,9.072656250000001,-0.177978515625
1748590405.5434241,-0.272705078125,9.075048828125,-0.197509765625
1748590405.5534246,-0.274169921875,9.027197265625,-0.19921875
1748590405.5634243,-0.270263671875,9.130078125,-0.18701171875
1748590405.5734253,-0.272216796875,9.118115234375,-0.184326171875
1748590405.583424,-0.2607421875,9.170751953125,-0.183349609375
1748590405.5934238,-0.25341796875,9.280810546875001,-0.17529296875
1748590405.6034272,-0.237548828125,9.371728515625001,-0.1689453125
1748590405.6134248,-0.2275390625,9.508105468750001,-0.17626953125
1748590405.6234238,-0.224365234375,9.515283203125001,-0.1767578125
1748590405.633424,-0.232421875,9.433935546875,-0.177734375
1748590405.643425,-0.2421875,9.3310546875,-0.16357421875
1748590405.653424,-0.25146484375,9.299951171875001,-0.151611328125
1748590405.663424,-0.26025390625,9.27841796875,-0.140869140625
1748590405.673424,-0.271240234375,9.398046875,-0.13134765625
1748590405.6834233,-0.267822265625,9.433935546875,-0.13671875
1748590405.693424,-0.2431640625,9.364550781250001,-0.132080078125
1748590405.7034283,-0.22998046875,9.398046875,-0.12646484375
1748590405.7134256,-0.222412109375,9.467431640625001,-0.1328125
1748590405.723424,-0.214111328125,9.285595703125,-0.142578125
1748590405.7334242,-0.216064453125,9.328662109375001,-0.150390625
1748590405.7434242,-0.212158203125,9.280810546875001,-0.142333984375
1748590405.7534275,-0.221923828125,9.311914062500001,-0.149658203125
1748590405.7634242,-0.227294921875,9.223388671875,-0.1474609375
1748590405.7734241,-0.22607421875,9.390869140625,-0.144287109375
1748590405.7834237,-0.218505859375,9.37412109375,-0.149658203125
1748590405.7934241,-0.214599609375,9.34541015625,-0.15087890625
1748590405.8034258,-0.21435546875,9.287988281250001,-0.140869140625
1748590405.813425,-0.203369140625,9.20185546875,-0.14697265625
1748590405.8234265,-0.201416015625,9.362158203125,-0.14599609375
1748590405.833426,-0.199462890625,9.283203125,-0.15234375
1748590405.843424,-0.2001953125,9.2544921875,-0.16015625
1748590405.8534253,-0.210205078125,9.21142578125,-0.1572265625
1748590405.863424,-0.205810546875,9.204248046875001,-0.154296875
1748590405.8734255,-0.20947265625,9.213818359375,-0.147705078125
1748590405.8834457,-0.18798828125,9.244921875000001,-0.141845703125
1748590405.8934276,-0.202880859375,9.39326171875,-0.13525390625
1748590405.9034257,-0.19384765625,9.534423828125,-0.135498046875
1748590405.913425,-0.179443359375,9.582275390625,-0.127197265625
1748590405.923432,-0.186279296875,9.524853515625,-0.12890625
1748590405.933427,-0.1708984375,9.5607421875,-0.115966796875
1748590405.9434264,-0.143310546875,9.383691406250001,-0.097900390625
1748590405.9534256,-0.1474609375,9.455468750000001,-0.120361328125
1748590405.9634242,-0.15087890625,9.532031250000001,-0.10498046875
1748590405.9734244,-0.1552734375,9.532031250000001,-0.109619140625
1748590405.9834247,-0.147216796875,9.505712890625,-0.098876953125
1748590405.9934235,-0.13427734375,9.534423828125,-0.09814453125
1748590406.0034246,-0.118408203125,9.42197265625,-0.103515625
1748590406.0134249,-0.115234375,9.414794921875,-0.103515625
1748590406.023424,-0.11181640625,9.40283203125,-0.10302734375
1748590406.0334234,-0.126220703125,9.596630859375,-0.112548828125
1748590406.043423,-0.109619140625,9.670800781250001,-0.1142578125
1748590406.053423,-0.094482421875,9.893310546875,-0.133056640625
1748590406.0634232,-0.0966796875,9.945947265625001,-0.11962890625
1748590406.0734231,-0.082275390625,9.945947265625001,-0.11279296875
1748590406.0834239,-0.06787109375,9.962695312500001,-0.117919921875
1748590406.0934238,-0.061279296875,9.771289062500001,-0.102783203125
1748590406.1034248,-0.048583984375,9.778466796875001,-0.090576171875
1748590406.113425,-0.06201171875,9.926806640625001,-0.080810546875
1748590406.1234245,-0.050048828125,9.718652343750001,-0.084228515625
1748590406.133424,-0.0576171875,9.630126953125,-0.081298828125
1748590406.143425,-0.0556640625,9.529638671875,-0.075927734375
1748590406.1534228,-0.043701171875,9.486572265625,-0.083251953125
1748590406.1634238,-0.016845703125,9.520068359375001,-0.06640625
1748590406.1734235,-0.0185546875,9.64208984375,-0.06591796875
1748590406.1834323,-0.024169921875,9.76171875,-0.06103515625
1748590406.1934247,-0.010009765625,9.850244140625001,-0.041259765625
1748590406.2034242,-0.011962890625,9.962695312500001,-0.015869140625
1748590406.2134247,-0.0361328125,9.907666015625,-0.000244140625
1748590406.2234237,-0.061767578125,9.77607421875,0.012451171875
1748590406.2334251,-0.063232421875,9.505712890625,0.013916015625
1748590406.2434247,-0.04736328125,9.596630859375,0.003662109375
1748590406.2534254,-0.049072265625,9.718652343750001,-0.0078125
1748590406.2634242,-0.02490234375,9.811962890625,-0.024658203125
1748590406.2734237,0.0068359375,9.933984375000001,-0.0263671875
1748590406.2834315,0.037109375,9.981835937500001,-0.024169921875
1748590406.2934232,0.077392578125,10.048828125,-0.039794921875
1748590406.3034248,0.082763671875,10.027294921875,-0.04150390625
1748590406.3134253,0.124755859375,9.898095703125001,-0.0390625
1748590406.323424,0.12060546875,9.835888671875,-0.04296875
1748590406.333424,0.12939453125,9.831103515625001,-0.06103515625
1748590406.3434238,0.1240234375,9.697119140625,-0.07666015625
1748590406.3534238,0.08056640625,9.587060546875001,-0.0859375
1748590406.3634238,0.074462890625,9.587060546875001,-0.086669921875
1748590406.373424,0.051513671875,9.589453125,-0.10791015625
1748590406.3834236,0.044921875,9.80478515625,-0.109375
1748590406.3934238,0.040283203125,9.768896484375,-0.1044921875
1748590406.403425,0.05126953125,9.819140625000001,-0.1015625
1748590406.413424,0.0712890625,9.845458984375,-0.0966796875
1748590406.4234242,0.089599609375,9.88134765625,-0.10400390625
1748590406.4334257,0.103759765625,9.78564453125,-0.08642578125
1748590406.4434237,0.1044921875,9.790429687500001,-0.069580078125
1748590406.4534245,0.119873046875,9.747363281250001,-0.06689453125
1748590406.4634235,0.118408203125,9.658837890625001,-0.071533203125
1748590406.4734235,0.1015625,9.721044921875,-0.07275390625
1748590406.4834247,0.108642578125,9.687548828125001,-0.076416015625
1748590406.4934242,0.078857421875,9.68515625,-0.063232421875
1748590406.5034268,0.06494140625,9.78564453125,-0.0703125
1748590406.513425,0.056396484375,9.922021484375001,-0.066162109375
1748590406.5234275,0.062255859375,9.90048828125,-0.07177734375
1748590406.5334246,0.04052734375,10.0009765625,-0.078125
1748590406.5434253,0.0546875,9.981835937500001,-0.093505859375
1748590406.5534241,0.05810546875,9.926806640625001,-0.08154296875
1748590406.5634258,0.06494140625,9.88134765625,-0.094482421875
1748590406.5734236,0.06689453125,9.740185546875,-0.092041015625
1748590406.5834239,0.0771484375,9.768896484375,-0.100830078125
1748590406.593424,0.063720703125,9.8765625,-0.119384765625
1748590406.6034253,0.0615234375,9.85263671875,-0.11328125
1748590406.6134238,0.056396484375,10.010546875000001,-0.11572265625
1748590406.6234243,0.05859375,10.156494140625,-0.123291015625
1748590406.6334262,0.0625,9.972265625,-0.11572265625
1748590406.6434238,0.066162109375,10.146923828125,-0.11181640625
1748590406.653424,0.090087890625,10.099072265625,-0.11572265625
1748590406.6634235,0.093017578125,10.010546875000001,-0.083251953125
1748590406.6734235,0.095703125,10.034472656250001,-0.09228515625
1748590406.683423,0.092529296875,9.950732421875001,-0.06396484375
1748590406.6934242,0.09423828125,9.874169921875001,-0.0576171875
1748590406.7034252,0.08349609375,9.866992187500001,-0.0556640625
1748590406.7134247,0.063720703125,10.09189453125,-0.048095703125
1748590406.7234228,0.05224609375,9.83349609375,-0.060302734375
1748590406.733425,0.04931640625,9.893310546875,-0.0380859375
1748590406.7434251,0.04150390625,9.716259765625,-0.0390625
1748590406.7534285,0.037353515625,9.630126953125,-0.04150390625
1748590406.763425,0.0478515625,9.539208984375001,-0.05419921875
1748590406.7734241,0.05078125,9.5607421875,-0.0888671875
1748590406.7834265,0.069580078125,9.692333984375,-0.106201171875
1748590406.7934241,0.068603515625,9.68037109375,-0.114990234375
1748590406.8034236,0.09716796875,9.792822265625,-0.12841796875
1748590406.813425,0.104736328125,9.979443359375,-0.126220703125
1748590406.8234265,0.11279296875,10.070361328125001,-0.121826171875
1748590406.833425,0.12158203125,10.02490234375,-0.1162109375
1748590406.843425,0.13134765625,10.077539062500001,-0.09521484375
1748590406.8534255,0.110595703125,9.835888671875,-0.0888671875
1748590406.863424,0.12255859375,9.73779296875,-0.086181640625
1748590406.873423,0.130615234375,9.694726562500001,-0.05859375
1748590406.8834817,0.132080078125,9.814355468750001,-0.052490234375
1748590406.8934257,0.132568359375,9.8095703125,-0.05126953125
1748590406.903425,0.116943359375,10.053613281250001,-0.043212890625
1748590406.9134257,0.106689453125,10.1349609375,-0.036376953125
1748590406.9234276,0.08984375,10.1349609375,-0.039794921875
1748590406.933427,0.06640625,10.161279296875001,-0.050537109375
1748590406.943425,0.058349609375,10.108642578125,-0.037841796875
1748590406.9534242,0.055908203125,9.979443359375,-0.05615234375
1748590406.963424,0.0625,10.099072265625,-0.02587890625
1748590406.9734435,0.0830078125,9.989013671875,-0.02978515625
1748590406.9834232,0.088623046875,9.914843750000001,-0.037841796875
1748590406.993425,0.097900390625,9.8765625,-0.043212890625
1748590407.0034232,0.0908203125,9.68994140625,-0.03857421875
1748590407.0134249,0.083740234375,9.941162109375,-0.037109375
1748590407.0234246,0.0849609375,9.8287109375,-0.0458984375
1748590407.0334234,0.097412109375,9.955517578125,-0.045166015625
1748590407.0434241,0.09521484375,9.97705078125,-0.047119140625
1748590407.053423,0.105224609375,9.88134765625,-0.054443359375
1748590407.0634232,0.094970703125,9.855029296875001,-0.05615234375
1748590407.0734253,0.118896484375,9.666015625,-0.06005859375
1748590407.083424,0.124755859375,9.819140625000001,-0.03369140625
1748590407.0934238,0.118408203125,9.8287109375,-0.026611328125
1748590407.1034238,0.116455078125,9.922021484375001,-0.0205078125
1748590407.1134427,0.111083984375,9.94833984375,-0.012451171875
1748590407.1234243,0.107666015625,9.99619140625,0.00537109375
1748590407.1334233,0.109130859375,10.010546875000001,-0.015380859375
1748590407.143423,0.11376953125,9.969873046875001,-0.014404296875
1748590407.153423,0.109375,10.04404296875,0.01513671875
1748590407.1634243,0.109619140625,10.130175781250001,0.005615234375
1748590407.173424,0.11083984375,10.21630859375,0.0048828125
1748590407.183424,0.10205078125,10.223486328125,-0.007080078125
1748590407.193422,0.106201171875,10.161279296875001,-0.010986328125
1748590407.2034235,0.102294921875,10.022509765625001,0.009765625
1748590407.2134237,0.115966796875,9.85263671875,0.0048828125
1748590407.223424,0.119873046875,9.742578125000001,0.018310546875
1748590407.2334244,0.12353515625,9.718652343750001,0.012451171875
1748590407.2434235,0.11865234375,9.878955078125001,0.02001953125
1748590407.2534244,0.138916015625,9.998583984375001,0.028564453125
1748590407.263423,0.115966796875,10.252197265625,0.001220703125
1748590407.2734237,0.10986328125,10.271337890625,0.000732421875
1748590407.2834249,0.0947265625,10.194775390625,0.010986328125
1748590407.2934246,0.06884765625,10.0966796875,0.0322265625
1748590407.3034246,0.063232421875,9.96748046875,0.0400390625
1748590407.3134236,0.091552734375,10.04404296875,0.04931640625
1748590407.3234236,0.104736328125,10.161279296875001,0.0595703125
1748590407.333423,0.109619140625,10.223486328125,0.065673828125
1748590407.3434336,0.110107421875,10.12060546875,0.07470703125
1748590407.353424,0.07958984375,9.866992187500001,0.07958984375
1748590407.3634243,0.090576171875,9.7521484375,0.103759765625
1748590407.3734224,0.0927734375,9.735400390625001,0.1083984375
1748590407.383423,0.09423828125,9.99619140625,0.09912109375
1748590407.3934238,0.097900390625,10.185205078125001,0.074951171875
1748590407.4034257,0.108642578125,10.292871093750001,0.058837890625
1748590407.4134238,0.111572265625,10.3263671875,0.0673828125
1748590407.4234226,0.119384765625,10.130175781250001,0.052978515625
1748590407.4334242,0.116943359375,10.065576171875001,0.074462890625
1748590407.443424,0.110107421875,9.7330078125,0.07080078125
1748590407.453424,0.1005859375,9.666015625,0.093505859375
1748590407.4634242,0.08984375,9.651660156250001,0.102783203125
1748590407.4734237,0.080078125,9.711474609375001,0.109375
1748590407.483423,0.0810546875,9.9435546875,0.1064453125
1748590407.4934227,0.081298828125,10.01533203125,0.10791015625
1748590407.5034244,0.075927734375,10.1158203125,0.087646484375
1748590407.5134234,0.06982421875,10.242626953125,0.091796875
1748590407.5234244,0.06494140625,10.395751953125,0.093505859375
1748590407.5334241,0.076904296875,10.608691406250001,0.1015625
1748590407.543424,0.0517578125,10.6708984375,0.11328125
1748590407.5534236,0.044677734375,10.4029296875,0.1259765625
1748590407.5634248,0.03662109375,10.156494140625,0.1357421875
1748590407.5734227,0.0302734375,9.965087890625,0.153076171875
1748590407.5834236,0.01953125,9.986621093750001,0.174072265625
1748590407.5934248,0.012939453125,10.0009765625,0.1787109375
1748590407.6034253,0.02392578125,10.022509765625001,0.19140625
1748590407.6134238,0.036865234375,10.130175781250001,0.197021484375
1748590407.623425,0.057861328125,10.213916015625001,0.189453125
1748590407.6334229,0.0673828125,10.113427734375001,0.19384765625
1748590407.643424,0.074951171875,9.9435546875,0.20166015625
1748590407.6534238,0.072509765625,9.699511718750001,0.1943359375
1748590407.6634235,0.0556640625,9.192285156250001,0.176025390625
1748590407.6734252,0.047119140625,9.149218750000001,0.1708984375
1748590407.683423,0.049072265625,9.0822265625,0.141845703125
1748590407.6934245,0.050048828125,9.180322265625001,0.163818359375
1748590407.7034266,0.06103515625,9.240136718750001,0.178466796875
1748590407.7134247,0.076171875,9.386083984375,0.17333984375
