Time,AccX,AccY,AccZ,GyroX,GyroY,GyroZ
1748587668.8311098,0.1884765625,-0.876220703125,0.03564453125,45.06106870229008,-74.50381679389314,-40.05343511450382
1748587668.8411655,0.20166015625,-0.897705078125,0.068115234375,58.14503816793893,-68.31297709923665,-31.778625954198475
1748587668.8511684,0.174072265625,-0.90380859375,0.101318359375,59.587786259541986,-70.90076335877863,-23.557251908396946
1748587668.8611717,0.164306640625,-0.933349609375,0.106201171875,51.595419847328245,-74.7557251908397,-17.519083969465647
1748587668.871182,0.150146484375,-0.98046875,0.114501953125,40.36641221374046,-74.57251908396947,-9.114503816793894
1748587668.8811648,0.11669921875,-0.9853515625,0.115966796875,25.984732824427482,-76.20610687022901,-7.099236641221374
1748587668.891166,0.1103515625,-1.0390625,0.123291015625,15.083969465648854,-68.05343511450381,-8.908396946564885
1748587668.9011729,0.1015625,-1.03564453125,0.110595703125,-1.5572519083969465,-64.31297709923665,-16.259541984732824
1748587668.9111664,0.16064453125,-1.076171875,0.089111328125,-7.145038167938932,-57.51145038167939,-21.49618320610687
1748587668.9211626,0.184326171875,-1.03564453125,0.087646484375,-12.709923664122137,-55.14503816793893,-25.48854961832061
1748587668.9311614,0.103515625,-0.97802734375,0.201416015625,-20.52671755725191,-70.6412213740458,-26.64885496183206
1748587668.9411602,0.15380859375,-0.883056640625,0.233154296875,-15.931297709923664,-101.00763358778626,1.5419847328244274
1748587668.951161,0.14208984375,-0.849853515625,0.1376953125,-13.114503816793894,-113.69465648854961,29.96946564885496
1748587668.9611607,0.11328125,-0.888427734375,0.034912109375,-15.083969465648854,-99.93129770992367,53.66412213740458
1748587668.9711607,0.059814453125,-0.92333984375,0.06005859375,-18.30534351145038,-95.95419847328245,58.099236641221374
1748587668.9811606,0.08984375,-0.947021484375,0.02587890625,-29.458015267175572,-84.12977099236642,39.06106870229008
1748587668.9911604,0.05517578125,-1.0400390625,-0.080322265625,-42.86259541984733,-48.56488549618321,4.748091603053435
1748587669.0011635,0.03466796875,-1.05322265625,-0.16064453125,-45.534351145038165,6.404580152671755,-39.93893129770992
1748587669.0111604,0.04052734375,-1.056396484375,-0.191650390625,-42.50381679389313,59.908396946564885,-85.77862595419847
1748587669.021161,0.027587890625,-1.003662109375,-0.07470703125,-23.633587786259543,94.87786259541984,-119.92366412213741
1748587669.0311604,0.073486328125,-0.930419921875,0.03173828125,-0.16793893129770993,105.70229007633588,-140.3740458015267
1748587669.0411608,0.19189453125,-0.906494140625,0.093505859375,30.221374045801525,96.41221374045801,-137.63358778625954
1748587669.0511668,0.3076171875,-0.87939453125,0.159912109375,64.25190839694656,96.38167938931298,-116.94656488549619
1748587669.0611613,0.546630859375,-0.9736328125,0.2451171875,104.52671755725191,35.396946564885496,-96.22900763358778
1748587669.0711622,0.54833984375,-0.9150390625,0.2734375,74.65648854961832,11.435114503816793,-60.25190839694657
1748587669.0811634,0.589599609375,-1.010009765625,0.239013671875,46.396946564885496,0.366412213740458,-7.297709923664122
1748587669.0911617,0.4326171875,-0.916259765625,0.237060546875,3.404580152671756,-24.549618320610687,24.31297709923664
1748587669.1011617,0.410400390625,-0.952880859375,0.179931640625,-34.16793893129771,-25.82442748091603,46.396946564885496
1748587669.1111605,0.365234375,-0.989013671875,0.11083984375,-49.969465648854964,-21.633587786259543,57.3206106870229
1748587669.121168,0.37451171875,-0.979736328125,0.06396484375,-52.732824427480914,-25.236641221374047,55.152671755725194
1748587669.1311615,0.385986328125,-0.972412109375,0.10791015625,-48.48854961832061,-34.48854961832061,39.87022900763359
1748587669.1411614,0.406005859375,-0.996826171875,0.130859375,-50.74045801526717,-51.49618320610687,18.595419847328245
1748587669.1511602,0.180908203125,-0.769287109375,0.047119140625,-52.83969465648855,-58.16793893129771,48.86259541984733
1748587669.1611607,0.068603515625,-0.969482421875,-0.0185546875,-34.396946564885496,-37.152671755725194,78.78625954198473
1748587669.1711612,0.149658203125,-0.952392578125,0.05078125,-21.458015267175572,-32.229007633587784,56.6793893129771
1748587669.1811607,0.329833984375,-0.89013671875,0.02001953125,-6.877862595419847,-27.00763358778626,26.0
1748587669.1911628,0.310546875,-0.97314453125,0.031494140625,4.351145038167939,-26.16793893129771,-6.801526717557252
1748587669.201161,0.32177734375,-0.985595703125,0.043701171875,12.366412213740459,-26.15267175572519,-30.022900763358777
1748587669.2111614,0.338134765625,-0.955810546875,0.00146484375,15.076335877862595,-22.977099236641223,-33.06870229007634
1748587669.221161,0.344482421875,-0.926025390625,0.00439453125,11.198473282442748,-22.31297709923664,-29.740458015267176
1748587669.2311616,0.354248046875,-0.9794921875,0.01123046875,3.2442748091603053,-22.946564885496183,-25.3206106870229
1748587669.241162,0.328369140625,-1.037841796875,0.01123046875,-4.244274809160306,-25.580152671755727,-26.022900763358777
1748587669.251161,0.33984375,-1.00830078125,-0.13232421875,4.931297709923665,-41.87022900763359,-26.519083969465647
1748587669.2611656,0.27587890625,-0.986083984375,-0.077392578125,3.0916030534351147,-46.57251908396947,-24.068702290076335
1748587669.271161,0.271484375,-0.963623046875,-0.083740234375,-2.2519083969465647,-49.23664122137404,-21.14503816793893
1748587669.2811613,0.326416015625,-0.9267578125,-0.179931640625,-12.870229007633588,-48.961832061068705,-13.625954198473282
1748587669.2911613,0.367919921875,-1.0244140625,-0.09814453125,-17.12213740458015,-53.465648854961835,-14.83969465648855
1748587669.3011615,0.353759765625,-1.074951171875,-0.111083984375,-19.137404580152673,-55.19083969465649,-15.763358778625955
1748587669.311162,0.34814453125,-1.013427734375,-0.16162109375,-19.763358778625953,-57.412213740458014,-16.099236641221374
1748587669.3211613,0.322265625,-1.001708984375,-0.17578125,-15.312977099236642,-61.63358778625954,-19.923664122137403
1748587669.3311627,0.3134765625,-0.99609375,-0.150146484375,-22.732824427480917,-57.603053435114504,-24.793893129770993
1748587669.3411617,0.3134765625,-1.041748046875,-0.175048828125,-14.67175572519084,-63.12213740458015,-24.458015267175572
1748587669.351162,0.307373046875,-1.096923828125,-0.20361328125,-5.564885496183206,-64.09160305343511,-24.480916030534353
1748587669.3611617,0.364990234375,-1.061767578125,-0.16259765625,0.2595419847328244,-61.83969465648855,-18.091603053435115
1748587669.3711607,0.415771484375,-1.05224609375,-0.146240234375,-1.2671755725190839,-61.16030534351145,-11.793893129770993
1748587669.3811612,0.437255859375,-1.0556640625,-0.152099609375,-0.4351145038167939,-58.52671755725191,-9.122137404580153
1748587669.3911602,0.447265625,-1.050537109375,-0.1142578125,1.0534351145038168,-54.70229007633588,-10.534351145038167
1748587669.4011557,0.42724609375,-1.0556640625,-0.082763671875,1.0381679389312977,-49.656488549618324,-15.145038167938932
1748587669.4111624,0.41455078125,-1.041259765625,-0.08544921875,2.8931297709923665,-50.083969465648856,-18.3206106870229
1748587669.4211626,0.40625,-1.021240234375,-0.084228515625,7.687022900763359,-51.47328244274809,-18.65648854961832
1748587669.4311626,0.368408203125,-0.997314453125,-0.07177734375,10.381679389312977,-51.99236641221374,-17.48854961832061
1748587669.4411619,0.34375,-0.973876953125,-0.06982421875,10.007633587786259,-52.88549618320611,-17.519083969465647
1748587669.451161,0.34912109375,-0.969482421875,-0.062744140625,9.49618320610687,-52.786259541984734,-19.267175572519083
1748587669.461162,0.361572265625,-0.96875,-0.047607421875,8.450381679389313,-53.10687022900763,-22.00763358778626
1748587669.4711623,0.381103515625,-0.97509765625,-0.04931640625,8.534351145038167,-53.01526717557252,-23.610687022900763
1748587669.4811654,0.409423828125,-0.98095703125,-0.020263671875,8.694656488549619,-54.56488549618321,-25.366412213740457
1748587669.4911613,0.444091796875,-0.9716796875,-0.00634765625,6.396946564885496,-54.23664122137404,-14.511450381679388
1748587669.501161,0.444580078125,-0.998291015625,-0.00048828125,3.816793893129771,-53.55725190839695,-5.519083969465649
1748587669.5111623,0.39208984375,-0.983642578125,-0.027099609375,1.0534351145038168,-52.847328244274806,-4.183206106870229
1748587669.5211613,0.37841796875,-1.004150390625,-0.0341796875,-0.5648854961832062,-52.89312977099237,-8.458015267175572
1748587669.5311642,0.403564453125,-1.023193359375,-0.0390625,-0.3969465648854962,-52.83969465648855,-12.32824427480916
1748587669.541157,0.4248046875,-1.036376953125,-0.049560546875,1.6946564885496183,-52.656488549618324,-14.717557251908397
1748587669.5511618,0.451904296875,-1.034423828125,-0.072021484375,5.290076335877862,-52.93129770992366,-19.435114503816795
1748587669.561162,0.43359375,-1.025146484375,-0.070068359375,10.412213740458014,-54.66412213740458,-24.587786259541986
1748587669.5711613,0.40966796875,-0.991455078125,-0.073486328125,16.66412213740458,-55.717557251908396,-23.076335877862597
1748587669.581161,0.4248046875,-0.9482421875,-0.0947265625,21.106870229007633,-53.00763358778626,-15.702290076335878
1748587669.5911615,0.4453125,-0.95751953125,-0.055908203125,20.893129770992367,-51.68702290076336,-14.099236641221374
1748587669.601161,0.467041015625,-1.015380859375,-0.05126953125,19.85496183206107,-49.51145038167939,-15.870229007633588
1748587669.6111543,0.45751953125,-1.052978515625,-0.041748046875,20.33587786259542,-48.58015267175573,-20.297709923664122
1748587669.6211612,0.46728515625,-1.03857421875,-0.059326171875,21.14503816793893,-48.67175572519084,-23.16030534351145
1748587669.6311684,0.48291015625,-1.009521484375,-0.07421875,21.12213740458015,-49.3206106870229,-22.778625954198475
1748587669.6411617,0.478515625,-0.983154296875,-0.08837890625,20.99236641221374,-47.770992366412216,-19.458015267175572
1748587669.651161,0.4638671875,-1.0,-0.08642578125,21.15267175572519,-44.969465648854964,-8.877862595419847
1748587669.6611612,0.425537109375,-1.00048828125,-0.117919921875,23.862595419847327,-47.36641221374046,-6.770992366412214
1748587669.6711614,0.380126953125,-1.049560546875,-0.103759765625,30.068702290076335,-49.770992366412216,-11.625954198473282
1748587669.681159,0.36279296875,-1.057861328125,-0.104248046875,38.17557251908397,-54.19083969465649,-16.82442748091603
1748587669.6911614,0.39013671875,-1.04052734375,-0.08740234375,44.35114503816794,-57.02290076335878,-15.98473282442748
1748587669.7011611,0.415771484375,-0.998046875,-0.07666015625,45.48091603053435,-57.091603053435115,-10.114503816793894
1748587669.7111619,0.426513671875,-0.98974609375,-0.058837890625,41.68702290076336,-55.396946564885496,-3.633587786259542
1748587669.7211616,0.4423828125,-1.000732421875,-0.053466796875,37.778625954198475,-53.33587786259542,4.786259541984733
1748587669.7311614,0.43359375,-1.066162109375,-0.04736328125,36.55725190839695,-51.82442748091603,6.435114503816794
1748587669.741162,0.397216796875,-1.123046875,-0.059814453125,38.63358778625954,-52.37404580152672,3.717557251908397
1748587669.751156,0.38818359375,-1.1201171875,-0.04052734375,40.74045801526717,-54.221374045801525,0.46564885496183206
1748587669.7611616,0.3779296875,-1.086669921875,-0.01953125,41.93893129770992,-55.50381679389313,-1.916030534351145
1748587669.7711613,0.39892578125,-1.04833984375,-0.02392578125,43.11450381679389,-55.13740458015267,3.4427480916030535
1748587669.7811618,0.44482421875,-1.016845703125,-0.00634765625,43.45038167938932,-55.19083969465649,12.83206106870229
1748587669.7911608,0.458251953125,-1.000244140625,0.007080078125,40.458015267175576,-54.14503816793893,23.33587786259542
1748587669.8011613,0.44775390625,-0.98681640625,0.017822265625,36.3587786259542,-53.74809160305343,27.427480916030536
1748587669.8111615,0.39208984375,-0.989013671875,0.005859375,33.66412213740458,-52.38931297709924,24.954198473282442
1748587669.8211563,0.357666015625,-0.992431640625,-0.002685546875,31.48854961832061,-51.80916030534351,19.931297709923665
1748587669.8311613,0.349853515625,-0.962890625,0.0087890625,30.015267175572518,-52.961832061068705,15.106870229007633
1748587669.8411622,0.372314453125,-0.924072265625,0.044921875,27.99236641221374,-55.55725190839695,16.17557251908397
1748587669.8511648,0.41845703125,-0.9052734375,0.04150390625,23.931297709923665,-56.44274809160305,24.83969465648855
1748587669.8611608,0.42578125,-0.93017578125,0.038330078125,18.786259541984734,-55.52671755725191,32.16793893129771
1748587669.8711612,0.40576171875,-0.9580078125,0.03955078125,16.404580152671755,-53.9236641221374,32.83206106870229
1748587669.8811612,0.3681640625,-0.95458984375,0.036376953125,16.770992366412212,-52.81679389312977,27.396946564885496
1748587669.891163,0.3583984375,-0.9072265625,0.029296875,18.51145038167939,-51.64885496183206,20.3206106870229
1748587669.901162,0.3515625,-0.885498046875,0.04833984375,18.244274809160306,-50.41984732824427,16.061068702290076
1748587669.9111617,0.381103515625,-0.8642578125,0.070556640625,14.770992366412214,-46.404580152671755,18.015267175572518
1748587669.921161,0.437255859375,-0.87939453125,0.078857421875,9.251908396946565,-41.58015267175573,22.541984732824428
1748587669.9311614,0.43408203125,-0.89990234375,0.101806640625,4.076335877862595,-37.31297709923664,25.419847328244273
1748587669.9411614,0.38330078125,-0.899658203125,0.092041015625,0.7175572519083969,-34.42748091603053,28.358778625954198
1748587669.9511619,0.3154296875,-0.87548828125,0.07177734375,-0.5419847328244275,-33.267175572519086,26.18320610687023
1748587669.961185,0.254638671875,-0.869873046875,0.051513671875,-0.2366412213740458,-33.45038167938932,21.458015267175572
1748587669.971166,0.223388671875,-0.86279296875,0.0654296875,0.42748091603053434,-33.274809160305345,14.366412213740459
1748587669.9811683,0.2412109375,-0.863525390625,0.0732421875,0.7022900763358778,-37.50381679389313,11.65648854961832
1748587669.991209,0.274658203125,-0.85986328125,0.08837890625,0.007633587786259542,-37.6412213740458,11.748091603053435
1748587670.001167,0.3212890625,-0.8623046875,0.0791015625,-0.015267175572519083,-36.12977099236641,18.083969465648856
1748587670.0111651,0.32958984375,-0.867431640625,0.10009765625,-3.2213740458015265,-34.396946564885496,20.16030534351145
1748587670.0211682,0.312255859375,-0.88818359375,0.1162109375,-4.404580152671755,-32.86259541984733,18.198473282442748
1748587670.0311654,0.316162109375,-0.88134765625,0.123046875,-5.717557251908397,-31.69465648854962,15.679389312977099
1748587670.0411632,0.32470703125,-0.86181640625,0.12939453125,-7.374045801526718,-29.53435114503817,16.885496183206108
1748587670.0511625,0.299560546875,-0.84912109375,0.126953125,-8.946564885496183,-29.31297709923664,20.14503816793893
1748587670.0611722,0.277587890625,-0.8486328125,0.109375,-10.16793893129771,-25.27480916030534,21.977099236641223
1748587670.0711644,0.272216796875,-0.85302734375,0.114990234375,-10.67175572519084,-24.091603053435115,20.6793893129771
1748587670.0811646,0.26025390625,-0.85205078125,0.10693359375,-11.473282442748092,-22.923664122137403,18.137404580152673
1748587670.0911617,0.26806640625,-0.850341796875,0.10498046875,-14.473282442748092,-21.16030534351145,16.137404580152673
1748587670.1011636,0.28271484375,-0.842529296875,0.103515625,-18.66412213740458,-18.938931297709924,15.404580152671755
1748587670.1111636,0.286865234375,-0.850341796875,0.099609375,-22.862595419847327,-16.72519083969466,16.15267175572519
1748587670.1211636,0.26904296875,-0.87353515625,0.07080078125,-25.16030534351145,-14.282442748091603,16.702290076335878
1748587670.1311631,0.245361328125,-0.90625,0.045166015625,-24.015267175572518,-12.229007633587786,15.465648854961833
1748587670.1411653,0.226318359375,-0.919189453125,0.01708984375,-21.38167938931298,-10.427480916030534,12.931297709923664
1748587670.1511643,0.212890625,-0.918212890625,0.008544921875,-19.549618320610687,-8.541984732824428,11.610687022900763
1748587670.1611671,0.21484375,-0.91162109375,0.01318359375,-24.977099236641223,-6.984732824427481,7.236641221374046
1748587670.1711648,0.176513671875,-0.937255859375,-0.01220703125,-27.541984732824428,-6.603053435114504,7.083969465648855
1748587670.1811666,0.1572265625,-0.962158203125,-0.044921875,-33.00763358778626,-8.458015267175572,8.259541984732824
1748587670.1911638,0.149658203125,-0.998291015625,-0.08154296875,-34.221374045801525,-10.374045801526718,9.381679389312977
1748587670.2011635,0.14501953125,-1.04248046875,-0.107177734375,-33.51145038167939,-11.885496183206106,9.610687022900763
1748587670.2111642,0.1474609375,-1.06201171875,-0.146240234375,-33.221374045801525,-14.404580152671755,8.48091603053435
1748587670.2211635,0.171630859375,-1.06005859375,-0.160888671875,-28.458015267175572,-16.84732824427481,7.458015267175573
1748587670.2311633,0.14208984375,-1.037841796875,-0.182861328125,-25.900763358778626,-18.740458015267176,6.4961832061068705
1748587670.2411642,0.146240234375,-1.0390625,-0.18017578125,-23.34351145038168,-19.389312977099237,5.984732824427481
1748587670.251165,0.16259765625,-1.057373046875,-0.180419921875,-20.15267175572519,-20.977099236641223,4.488549618320611
1748587670.2611637,0.1533203125,-1.0712890625,-0.177978515625,-17.572519083969464,-24.412213740458014,3.6106870229007635
1748587670.2711637,0.15478515625,-1.08349609375,-0.17041015625,-10.923664122137405,-28.259541984732824,2.7557251908396947
1748587670.2811635,0.169921875,-1.075439453125,-0.15869140625,-6.6106870229007635,-30.717557251908396,1.6793893129770991
1748587670.2911634,0.217041015625,-1.0595703125,-0.150634765625,-4.580152671755725,-30.48854961832061,2.83206106870229
1748587670.3011632,0.2587890625,-1.03125,-0.144287109375,-5.114503816793893,-27.48854961832061,5.396946564885496
1748587670.3111637,0.267822265625,-1.05615234375,-0.141357421875,-7.030534351145038,-23.625954198473284,8.061068702290076
1748587670.321164,0.2548828125,-1.094970703125,-0.16064453125,-7.633587786259542,-20.50381679389313,9.427480916030534
1748587670.331164,0.22998046875,-1.148193359375,-0.175048828125,-5.343511450381679,-19.61832061068702,8.816793893129772
1748587670.341163,0.199462890625,-1.141845703125,-0.202392578125,-0.08396946564885496,-20.923664122137403,7.687022900763359
1748587670.3511643,0.18896484375,-1.130859375,-0.196044921875,5.480916030534351,-22.763358778625953,8.122137404580153
1748587670.3611636,0.208251953125,-1.095703125,-0.197509765625,8.320610687022901,-22.702290076335878,10.67175572519084
1748587670.3711634,0.22412109375,-1.088623046875,-0.2001953125,8.083969465648854,-23.358778625954198,14.938931297709924
1748587670.3811638,0.19482421875,-1.1025390625,-0.2119140625,6.9465648854961835,-24.549618320610687,17.435114503816795
1748587670.3911643,0.158203125,-1.1259765625,-0.2255859375,7.137404580152672,-25.83969465648855,18.770992366412212
1748587670.4011633,0.13623046875,-1.128662109375,-0.23974609375,8.786259541984732,-28.80916030534351,18.61832061068702
1748587670.4111636,0.123046875,-1.12646484375,-0.254638671875,11.969465648854962,-33.0,19.389312977099237
1748587670.4211621,0.1103515625,-1.131591796875,-0.246826171875,15.198473282442748,-38.16793893129771,22.48854961832061
1748587670.431164,0.12841796875,-1.139892578125,-0.2294921875,17.946564885496183,-41.74809160305343,27.053435114503817
1748587670.4411633,0.1357421875,-1.119384765625,-0.217041015625,20.48854961832061,-43.97709923664122,28.015267175572518
1748587670.4511635,0.13720703125,-1.133544921875,-0.212646484375,22.786259541984734,-43.229007633587784,22.16793893129771
1748587670.461163,0.1513671875,-1.13818359375,-0.20166015625,24.99236641221374,-41.45038167938932,13.740458015267176
1748587670.4711637,0.175537109375,-1.11572265625,-0.17724609375,27.328244274809162,-40.954198473282446,10.770992366412214
1748587670.481163,0.19189453125,-1.107177734375,-0.159423828125,27.427480916030536,-40.229007633587784,14.01526717557252
1748587670.4911637,0.19921875,-1.106689453125,-0.156494140625,31.793893129770993,-41.80916030534351,19.80916030534351
1748587670.5011637,0.1826171875,-1.093017578125,-0.15087890625,34.19847328244275,-44.900763358778626,23.84732824427481
1748587670.5111644,0.148193359375,-1.05615234375,-0.1279296875,35.17557251908397,-48.83206106870229,25.00763358778626
1748587670.5211632,0.142822265625,-1.019775390625,-0.10888671875,33.43511450381679,-52.74809160305343,25.793893129770993
1748587670.5311635,0.16064453125,-0.986572265625,-0.072265625,29.00763358778626,-52.908396946564885,26.763358778625953
1748587670.5411644,0.218017578125,-0.9755859375,-0.04150390625,25.34351145038168,-52.282442748091604,34.52671755725191
1748587670.5511634,0.241455078125,-0.98486328125,-0.07373046875,19.458015267175572,-50.63358778625954,48.11450381679389
1748587670.5611637,0.21728515625,-1.0107421875,-0.092041015625,14.938931297709924,-48.908396946564885,59.541984732824424
1748587670.5711637,0.148193359375,-1.030029296875,-0.0947265625,14.458015267175572,-52.221374045801525,62.16030534351145
1748587670.5811644,0.0712890625,-1.05859375,-0.096923828125,16.587786259541986,-53.88549618320611,55.458015267175576
1748587670.5911632,0.073974609375,-1.069091796875,-0.113525390625,22.31297709923664,-55.52671755725191,48.725190839694655
1748587670.6011643,0.099609375,-1.073486328125,-0.093994140625,30.106870229007633,-57.3587786259542,42.50381679389313
1748587670.6111634,0.131103515625,-1.03466796875,-0.0703125,35.045801526717554,-57.70992366412214,42.541984732824424
1748587670.6211634,0.15478515625,-0.998779296875,-0.012451171875,36.274809160305345,-56.038167938931295,43.99236641221374
1748587670.6311634,0.17431640625,-0.9765625,0.02392578125,35.35114503816794,-53.61832061068702,45.587786259541986
1748587670.6411633,0.156982421875,-0.98193359375,0.035888671875,34.74809160305343,-51.38931297709924,45.14503816793893
1748587670.651163,0.1298828125,-0.978759765625,0.04150390625,35.82442748091603,-50.69465648854962,42.587786259541986
1748587670.6611648,0.11279296875,-0.96142578125,0.03564453125,40.38931297709924,-46.038167938931295,37.6793893129771
1748587670.6711633,0.10546875,-0.92333984375,0.059326171875,47.31297709923664,-44.57251908396947,31.580152671755727
1748587670.6811633,0.078369140625,-0.889892578125,0.078369140625,50.88549618320611,-42.221374045801525,26.022900763358777
1748587670.6911638,0.108154296875,-0.807373046875,0.125,54.396946564885496,-38.465648854961835,22.65648854961832
1748587670.7011635,0.14501953125,-0.771728515625,0.1748046875,52.36641221374046,-33.961832061068705,21.35114503816794
1748587670.7111642,0.1396484375,-0.74365234375,0.206298828125,50.786259541984734,-28.16030534351145,18.229007633587788
1748587670.7211637,0.131591796875,-0.715576171875,0.23486328125,45.48854961832061,-21.80916030534351,14.19083969465649
1748587670.7311625,0.135498046875,-0.68115234375,0.256103515625,42.267175572519086,-15.251908396946565,10.67175572519084
1748587670.7411642,0.0986328125,-0.634521484375,0.266845703125,40.99236641221374,-9.122137404580153,6.740458015267175
1748587670.7511635,0.091552734375,-0.589599609375,0.270263671875,36.954198473282446,-3.267175572519084,2.5572519083969465
1748587670.7611635,0.05419921875,-0.558837890625,0.29052734375,30.099236641221374,2.015267175572519,-4.435114503816794
1748587670.7711635,0.042236328125,-0.53662109375,0.309326171875,23.732824427480917,10.16793893129771,-12.076335877862595
1748587670.7811635,0.05810546875,-0.55322265625,0.32568359375,17.34351145038168,13.893129770992367,-17.435114503816795
1748587670.7911637,0.0595703125,-0.568603515625,0.306396484375,7.625954198473282,16.374045801526716,-18.480916030534353
1748587670.801164,0.059814453125,-0.578857421875,0.294921875,-3.6259541984732824,17.519083969465647,-17.435114503816795
1748587670.8111637,0.0439453125,-0.590576171875,0.280517578125,-10.748091603053435,15.65648854961832,-17.50381679389313
1748587670.8211632,0.0166015625,-0.5986328125,0.27099609375,-15.404580152671755,17.69465648854962,-18.83969465648855
1748587670.8311644,-0.015380859375,-0.618896484375,0.237060546875,-17.099236641221374,18.587786259541986,-23.358778625954198
1748587670.8411663,0.01416015625,-0.649658203125,0.233642578125,-16.137404580152673,19.18320610687023,-28.66412213740458
1748587670.8511662,0.001708984375,-0.66064453125,0.218994140625,-14.618320610687023,19.6793893129771,-34.49618320610687
1748587670.8612409,0.0029296875,-0.664306640625,0.222412109375,-15.526717557251908,19.6793893129771,-42.083969465648856
1748587670.8711734,0.01708984375,-0.677734375,0.214111328125,-19.389312977099237,19.053435114503817,-45.57251908396947
1748587670.8811624,0.0458984375,-0.708251953125,0.2197265625,-26.366412213740457,16.48854961832061,-46.7557251908397
1748587670.891193,0.052734375,-0.76953125,0.223876953125,-34.55725190839695,13.32824427480916,-44.70992366412214
1748587670.9011686,0.0927734375,-0.849853515625,0.21337890625,-41.33587786259542,11.251908396946565,-40.343511450381676
1748587670.9111688,0.135009765625,-0.915771484375,0.196533203125,-50.45038167938932,11.19083969465649,-34.87786259541985
1748587670.9211707,0.1435546875,-0.972900390625,0.1611328125,-53.80152671755725,13.022900763358779,-31.419847328244273
1748587670.9311652,0.17431640625,-1.017578125,0.139404296875,-53.49618320610687,16.557251908396946,-30.374045801526716
1748587670.941168,0.181396484375,-1.042724609375,0.11328125,-52.06870229007634,19.885496183206108,-30.938931297709924
1748587670.951164,0.1904296875,-1.0537109375,0.09716796875,-52.045801526717554,22.786259541984734,-29.396946564885496
1748587670.9611628,0.202880859375,-1.078857421875,0.090087890625,-53.69465648854962,25.198473282442748,-25.404580152671755
1748587670.9711652,0.179931640625,-1.086669921875,0.052734375,-55.229007633587784,27.65648854961832,-17.33587786259542
1748587670.9811656,0.12548828125,-1.116455078125,0.021484375,-52.48854961832061,29.290076335877863,-15.755725190839694
1748587670.9911652,0.084228515625,-1.127197265625,-0.01953125,-44.25954198473283,29.801526717557252,-20.00763358778626
1748587671.0011642,0.046875,-1.135009765625,-0.0380859375,-35.0763358778626,28.870229007633586,-27.641221374045802
1748587671.011163,0.060546875,-1.101318359375,-0.0341796875,-22.709923664122137,26.328244274809162,-35.05343511450382
1748587671.0211625,0.04443359375,-1.064208984375,-0.01904296875,-16.923664122137403,24.282442748091604,-40.36641221374046
1748587671.0311632,0.068603515625,-1.02734375,-0.0078125,-16.84732824427481,21.732824427480917,-40.31297709923664
1748587671.0411632,0.134765625,-1.012939453125,0.008056640625,-19.801526717557252,20.938931297709924,-33.534351145038165
1748587671.0511642,0.18212890625,-1.025146484375,0.010009765625,-24.221374045801525,21.31297709923664,-24.862595419847327
1748587671.0611649,0.203857421875,-1.045654296875,0.009033203125,-27.748091603053435,22.519083969465647,-19.198473282442748
1748587671.0711644,0.175537109375,-1.05859375,-0.02490234375,-27.954198473282442,24.49618320610687,-19.236641221374047
1748587671.0811627,0.14990234375,-1.056396484375,-0.041259765625,-25.206106870229007,26.389312977099237,-24.47328244274809
1748587671.091164,0.168701171875,-1.05419921875,-0.048828125,-21.244274809160306,28.51145038167939,-29.549618320610687
1748587671.1011631,0.173583984375,-1.060791015625,-0.061767578125,-18.53435114503817,30.69465648854962,-31.641221374045802
1748587671.1111658,0.195068359375,-1.019287109375,-0.054931640625,-17.732824427480917,32.725190839694655,-30.16793893129771
1748587671.1211643,0.195068359375,-1.009033203125,-0.047607421875,-22.81679389312977,33.69465648854962,-27.427480916030536
1748587671.1311634,0.172119140625,-0.99951171875,-0.0498046875,-27.099236641221374,32.7557251908397,-25.259541984732824
1748587671.1411636,0.147705078125,-0.990234375,-0.05615234375,-30.66412213740458,30.106870229007633,-23.633587786259543
1748587671.1511638,0.162353515625,-0.98583984375,-0.06396484375,-34.732824427480914,27.213740458015266,-20.740458015267176
1748587671.1611636,0.1708984375,-0.991455078125,-0.072998046875,-37.82442748091603,24.35114503816794,-18.229007633587788
1748587671.1711628,0.168212890625,-1.001708984375,-0.088623046875,-38.74809160305343,21.900763358778626,-17.717557251908396
1748587671.1811633,0.157958984375,-1.022705078125,-0.088623046875,-37.76335877862596,19.564885496183205,-18.96946564885496
1748587671.1911643,0.20166015625,-1.023681640625,-0.10107421875,-36.603053435114504,19.595419847328245,-19.198473282442748
1748587671.2011638,0.25927734375,-1.034912109375,-0.100341796875,-37.01526717557252,21.198473282442748,-16.3206106870229
1748587671.2111654,0.322265625,-1.05419921875,-0.116943359375,-39.55725190839695,25.83969465648855,-10.717557251908397
1748587671.2211654,0.32763671875,-1.077392578125,-0.117431640625,-42.954198473282446,29.50381679389313,-7.221374045801527
1748587671.2311642,0.292724609375,-1.111083984375,-0.14697265625,-43.770992366412216,35.45038167938932,-7.137404580152672
1748587671.2411637,0.24560546875,-1.115234375,-0.17626953125,-41.396946564885496,37.33587786259542,-9.183206106870228
1748587671.2511637,0.187744140625,-1.0966796875,-0.181640625,-36.847328244274806,37.603053435114504,-9.801526717557252
1748587671.261163,0.1669921875,-1.069580078125,-0.1875,-32.47328244274809,35.961832061068705,-14.229007633587786
1748587671.2711632,0.16455078125,-1.059326171875,-0.20263671875,-28.244274809160306,33.66412213740458,-14.916030534351146
1748587671.2811644,0.17529296875,-1.034912109375,-0.188720703125,-24.68702290076336,32.44274809160305,-14.694656488549619
1748587671.2911637,0.20361328125,-1.025146484375,-0.182373046875,-21.702290076335878,32.412213740458014,-13.83206106870229
1748587671.3011632,0.21240234375,-1.02685546875,-0.19091796875,-18.732824427480917,32.12213740458015,-13.740458015267176
1748587671.3111649,0.201416015625,-1.019287109375,-0.18994140625,-15.053435114503817,31.427480916030536,-14.48091603053435
1748587671.321164,0.1943359375,-1.008544921875,-0.19287109375,-11.534351145038167,30.206106870229007,-13.709923664122137
1748587671.3311641,0.2021484375,-1.01611328125,-0.181884765625,-8.106870229007633,27.641221374045802,-16.442748091603054
1748587671.3411639,0.203125,-1.029052734375,-0.167724609375,-6.702290076335878,26.045801526717558,-16.229007633587788
1748587671.3511636,0.2353515625,-1.007080078125,-0.1455078125,-5.5038167938931295,24.87786259541985,-15.351145038167939
1748587671.361164,0.25830078125,-1.001708984375,-0.156982421875,-4.473282442748092,25.022900763358777,-14.122137404580153
1748587671.3711636,0.2587890625,-0.982666015625,-0.15234375,-3.6793893129770994,27.31297709923664,-14.450381679389313
1748587671.381164,0.25341796875,-0.968994140625,-0.13134765625,-4.312977099236641,23.450381679389313,-13.687022900763358
1748587671.3911629,0.26220703125,-0.955810546875,-0.13330078125,-6.0458015267175576,25.17557251908397,-16.251908396946565
1748587671.401163,0.2724609375,-0.957275390625,-0.131591796875,-8.748091603053435,24.900763358778626,-14.221374045801527
1748587671.4111679,0.292724609375,-0.964599609375,-0.13916015625,-10.946564885496183,24.923664122137403,-10.274809160305344
1748587671.4211652,0.283447265625,-0.960205078125,-0.15234375,-12.351145038167939,25.587786259541986,-8.664122137404581
1748587671.4311666,0.27880859375,-0.96044921875,-0.171630859375,-12.778625954198473,25.85496183206107,-10.206106870229007
1748587671.4411647,0.281005859375,-0.958984375,-0.156982421875,-12.954198473282442,25.519083969465647,-11.51908396946565
1748587671.451163,0.294189453125,-0.9619140625,-0.178466796875,-14.404580152671755,25.27480916030534,-10.13740458015267
1748587671.4611633,0.294921875,-0.970947265625,-0.174072265625,-16.83969465648855,25.0,-7.061068702290076
1748587671.4711635,0.283935546875,-0.9814453125,-0.172607421875,-17.862595419847327,24.87786259541985,-6.221374045801527
1748587671.4811635,0.269775390625,-0.98095703125,-0.1796875,-16.83969465648855,24.923664122137403,-7.015267175572519
1748587671.491164,0.278564453125,-0.98388671875,-0.18896484375,-14.442748091603054,25.740458015267176,-8.893129770992367
1748587671.501163,0.258056640625,-0.958984375,-0.20068359375,-12.083969465648854,26.114503816793892,-11.274809160305344
1748587671.5111642,0.2548828125,-0.96630859375,-0.21044921875,-10.358778625954198,26.022900763358777,-11.748091603053435
1748587671.5211635,0.253173828125,-0.936767578125,-0.193603515625,-9.633587786259541,25.03053435114504,-14.687022900763358
1748587671.531163,0.255615234375,-0.93359375,-0.1796875,-10.412213740458014,23.49618320610687,-13.717557251908397
1748587671.541173,0.27490234375,-0.935302734375,-0.177001953125,-12.900763358778626,22.068702290076335,-11.068702290076336
1748587671.5511634,0.27880859375,-0.9453125,-0.1796875,-15.259541984732824,20.748091603053435,-8.145038167938932
1748587671.561164,0.28271484375,-0.953125,-0.192138671875,-16.541984732824428,20.061068702290076,-6.99236641221374
1748587671.5711637,0.285400390625,-0.964599609375,-0.201416015625,-16.748091603053435,20.076335877862597,-7.190839694656488
1748587671.5811641,0.285888671875,-0.953369140625,-0.21484375,-16.16030534351145,20.19083969465649,-8.305343511450381
1748587671.5911634,0.289794921875,-0.9755859375,-0.2099609375,-16.198473282442748,20.114503816793892,-10.312977099236642
1748587671.6011631,0.300048828125,-1.01318359375,-0.228515625,-15.717557251908397,18.900763358778626,-10.221374045801527
1748587671.6111636,0.303955078125,-1.00439453125,-0.20947265625,-16.213740458015266,17.458015267175572,-6.916030534351145
1748587671.6211634,0.318603515625,-1.005126953125,-0.222900390625,-17.19083969465649,16.15267175572519,-2.9160305343511452
1748587671.6311638,0.305908203125,-0.993408203125,-0.221923828125,-17.6793893129771,15.34351145038168,-0.5419847328244275
1748587671.6411703,0.304931640625,-0.987548828125,-0.242431640625,-15.969465648854962,15.610687022900763,-0.8091603053435115
1748587671.6511636,0.298583984375,-0.990966796875,-0.234375,-13.404580152671755,16.31297709923664,-2.3206106870229006
1748587671.661163,0.28125,-0.995361328125,-0.240966796875,-9.877862595419847,17.114503816793892,-4.0534351145038165
1748587671.6711633,0.28271484375,-0.985595703125,-0.26123046875,-6.572519083969466,17.458015267175572,-6.061068702290076
1748587671.6811633,0.27587890625,-0.98046875,-0.240234375,-3.099236641221374,16.954198473282442,-8.19083969465649
1748587671.691163,0.271728515625,-0.96533203125,-0.248779296875,-0.5648854961832062,16.0381679389313,-9.541984732824428
1748587671.701163,0.285400390625,-0.96728515625,-0.23388671875,0.007633587786259542,16.137404580152673,-8.572519083969466
1748587671.711164,0.30908203125,-0.9560546875,-0.234130859375,1.7557251908396947,17.572519083969464,-7.793893129770993
1748587671.7211635,0.2890625,-0.937255859375,-0.193603515625,-2.2061068702290076,12.977099236641221,-6.267175572519084
1748587671.731163,0.277099609375,-0.935546875,-0.2236328125,1.0458015267175573,11.885496183206106,-4.656488549618321
1748587671.741164,0.27392578125,-0.9296875,-0.196044921875,0.7786259541984732,12.49618320610687,-5.6106870229007635
1748587671.751164,0.26806640625,-0.92138671875,-0.16796875,-3.9389312977099236,14.564885496183207,-8.076335877862595
1748587671.7611632,0.30224609375,-0.951416015625,-0.20068359375,-5.969465648854962,13.625954198473282,-7.511450381679389
1748587671.7711635,0.30126953125,-0.95849609375,-0.210205078125,-0.9083969465648855,11.969465648854962,-7.801526717557252
1748587671.7811644,0.32080078125,-0.97607421875,-0.176513671875,-2.717557251908397,9.83206106870229,-4.519083969465649
1748587671.7911632,0.337646484375,-0.998046875,-0.177978515625,-7.442748091603053,12.458015267175572,-1.9618320610687023
1748587671.801164,0.342529296875,-1.01708984375,-0.204833984375,-6.687022900763359,12.412213740458014,-3.4732824427480917
1748587671.811163,0.34228515625,-1.0107421875,-0.20556640625,-3.648854961832061,11.84732824427481,-4.297709923664122
1748587671.8211632,0.35595703125,-1.01025390625,-0.194091796875,-3.4122137404580153,11.969465648854962,-4.175572519083969
1748587671.8311687,0.373046875,-1.001953125,-0.19873046875,-4.625954198473282,12.236641221374045,-2.0610687022900764
1748587671.841175,0.349609375,-0.98974609375,-0.20068359375,-5.412213740458015,11.793893129770993,-0.07633587786259542
1748587671.851164,0.340087890625,-0.9697265625,-0.201416015625,-5.938931297709924,11.450381679389313,0.6335877862595419
1748587671.861244,0.34130859375,-0.96728515625,-0.204345703125,-6.977099236641221,10.534351145038167,1.3587786259541985
1748587671.8711648,0.322265625,-0.9716796875,-0.2158203125,-6.969465648854962,9.82442748091603,1.9694656488549618
1748587671.8812716,0.337158203125,-0.98193359375,-0.214599609375,-5.786259541984733,9.244274809160306,2.480916030534351
1748587671.8911881,0.328857421875,-0.9755859375,-0.218017578125,-4.6106870229007635,8.770992366412214,2.2442748091603053
1748587671.9011664,0.329345703125,-0.955810546875,-0.2119140625,-3.50381679389313,8.206106870229007,2.595419847328244
1748587671.9111629,0.332763671875,-0.939208984375,-0.203369140625,-3.0229007633587788,5.916030534351145,2.6030534351145036
1748587671.9211643,0.3359375,-0.932373046875,-0.197509765625,-4.022900763358779,7.511450381679389,2.687022900763359
1748587671.9311643,0.3486328125,-0.923828125,-0.2001953125,-6.00763358778626,7.1603053435114505,4.511450381679389
1748587671.9411635,0.347900390625,-0.944091796875,-0.205322265625,-6.9541984732824424,6.450381679389313,7.206106870229007
1748587671.9511673,0.34228515625,-0.933837890625,-0.216552734375,-8.664122137404581,5.4961832061068705,9.061068702290076
1748587671.9611647,0.3310546875,-0.9482421875,-0.21826171875,-11.229007633587786,5.106870229007634,9.038167938931299
1748587671.9711628,0.3232421875,-0.970703125,-0.239013671875,-12.870229007633588,4.259541984732825,8.221374045801527
1748587671.9811623,0.303955078125,-0.9775390625,-0.24853515625,-11.335877862595419,2.7557251908396947,7.862595419847328
1748587671.991163,0.302734375,-0.9833984375,-0.259033203125,-7.0534351145038165,0.7099236641221374,7.3893129770992365
1748587672.0011637,0.30517578125,-0.982666015625,-0.2626953125,-4.099236641221374,-0.9770992366412213,6.473282442748092
1748587672.0111718,0.318603515625,-0.973876953125,-0.24462890625,-3.8473282442748094,-1.816793893129771,4.740458015267175
1748587672.0211637,0.32666015625,-0.974853515625,-0.23583984375,-3.564885496183206,-2.4732824427480917,2.8473282442748094
1748587672.031182,0.33056640625,-0.959716796875,-0.236328125,-1.465648854961832,-2.8702290076335877,2.8625954198473282
1748587672.0411644,0.331787109375,-0.9482421875,-0.232421875,0.22900763358778625,-3.2061068702290076,3.2748091603053435
1748587672.0511642,0.33740234375,-0.94873046875,-0.212158203125,-0.8931297709923665,-3.183206106870229,3.3282442748091605
1748587672.0611646,0.339599609375,-0.936279296875,-0.20947265625,-2.6412213740458017,-4.083969465648855,3.366412213740458
1748587672.0711632,0.329345703125,-0.913818359375,-0.214111328125,-4.534351145038168,-4.32824427480916,1.9770992366412214
1748587672.0811636,0.3291015625,-0.909912109375,-0.2119140625,-6.068702290076335,-4.267175572519084,4.305343511450381
1748587672.0911634,0.331298828125,-0.9150390625,-0.212646484375,-6.702290076335878,-4.4961832061068705,4.9541984732824424
1748587672.1011627,0.327392578125,-0.907958984375,-0.210205078125,-8.702290076335878,-4.3893129770992365,4.778625954198473
1748587672.111165,0.313232421875,-0.898193359375,-0.2099609375,-10.427480916030534,-4.198473282442748,3.9770992366412212
1748587672.1211634,0.306640625,-0.9013671875,-0.211181640625,-11.312977099236642,-4.648854961832061,3.9618320610687023
1748587672.131163,0.303955078125,-0.90771484375,-0.2099609375,-11.282442748091603,-4.755725190839694,2.732824427480916
1748587672.1411629,0.292724609375,-0.902587890625,-0.21044921875,-11.83969465648855,-4.687022900763359,0.9312977099236641
1748587672.1511648,0.308837890625,-0.899658203125,-0.206787109375,-12.67175572519084,-5.038167938931298,-1.9465648854961832
1748587672.1611629,0.305419921875,-0.89599609375,-0.21875,-12.526717557251908,-5.511450381679389,0.7022900763358778
1748587672.1711626,0.315185546875,-0.902587890625,-0.21435546875,-12.450381679389313,-6.564885496183206,2.854961832061069
1748587672.1811638,0.316162109375,-0.90625,-0.2041015625,-13.068702290076336,-6.740458015267175,4.083969465648855
1748587672.191163,0.302490234375,-0.92041015625,-0.21337890625,-13.297709923664122,-6.67175572519084,3.4427480916030535
1748587672.2011635,0.28955078125,-0.92578125,-0.20849609375,-13.67175572519084,-6.809160305343512,2.1526717557251906
1748587672.2111647,0.289794921875,-0.93212890625,-0.21533203125,-9.282442748091603,-5.931297709923665,1.015267175572519
1748587672.221164,0.29248046875,-0.9453125,-0.21533203125,-7.114503816793893,-5.404580152671755,-1.3511450381679388
1748587672.231164,0.29541015625,-0.945556640625,-0.213134765625,-4.893129770992366,-5.091603053435114,-4.0458015267175576
1748587672.2411637,0.285888671875,-0.930908203125,-0.19921875,-3.5267175572519083,-5.061068702290076,-5.083969465648855
1748587672.2511637,0.2998046875,-0.93212890625,-0.18408203125,-4.190839694656488,-5.343511450381679,-4.099236641221374
1748587672.2611625,0.30712890625,-0.928466796875,-0.18359375,-5.312977099236641,-5.5038167938931295,-1.8854961832061068
1748587672.2711637,0.318359375,-0.9375,-0.182861328125,-6.32824427480916,-5.396946564885496,0.19083969465648856
1748587672.281163,0.305419921875,-0.95068359375,-0.18017578125,-7.244274809160306,-4.175572519083969,0.33587786259541985
1748587672.291164,0.296630859375,-0.9443359375,-0.185546875,-7.656488549618321,-3.0916030534351147,-1.0076335877862594
1748587672.3011632,0.295166015625,-0.952880859375,-0.2001953125,-7.587786259541985,-2.435114503816794,-3.9083969465648853
1748587672.3111649,0.295654296875,-0.9677734375,-0.205810546875,-7.122137404580153,-2.969465648854962,-1.7251908396946565
1748587672.321164,0.30224609375,-0.963623046875,-0.21435546875,-7.66412213740458,-4.099236641221374,0.7251908396946565
1748587672.331164,0.2919921875,-0.95458984375,-0.214599609375,-8.511450381679388,-5.137404580152672,3.312977099236641
1748587672.341165,0.306640625,-0.982421875,-0.228271484375,-8.725190839694656,-6.221374045801527,4.587786259541985
1748587672.3511639,0.30078125,-0.982177734375,-0.235107421875,-7.709923664122138,-7.030534351145038,4.862595419847328
1748587672.3611631,0.30322265625,-0.97216796875,-0.23046875,-6.427480916030534,-6.9465648854961835,4.099236641221374
1748587672.3711636,0.302490234375,-0.964111328125,-0.244384765625,-4.061068702290076,-5.977099236641221,3.0763358778625953
1748587672.3811634,0.30419921875,-0.947998046875,-0.25,-0.7404580152671756,-5.091603053435114,1.748091603053435
1748587672.3911638,0.30859375,-0.93310546875,-0.232421875,1.9312977099236641,-3.969465648854962,-0.2900763358778626
1748587672.4011643,0.286865234375,-0.91162109375,-0.25,3.7022900763358777,-3.068702290076336,-3.045801526717557
1748587672.411166,0.296142578125,-0.900634765625,-0.23046875,4.572519083969466,-2.4732824427480917,-4.854961832061068
1748587672.4211636,0.283935546875,-0.867431640625,-0.210205078125,4.33587786259542,-2.3053435114503817,-4.877862595419847
1748587672.4311666,0.2890625,-0.854736328125,-0.2099609375,2.816793893129771,-2.66412213740458,-2.786259541984733
1748587672.4411645,0.291015625,-0.83935546875,-0.207275390625,0.3511450381679389,-2.732824427480916,-0.22137404580152673
1748587672.4511642,0.275634765625,-0.841064453125,-0.206298828125,-1.8931297709923665,-2.687022900763359,-0.061068702290076333
1748587672.4611633,0.271728515625,-0.851806640625,-0.20556640625,-3.114503816793893,-2.1068702290076335,-1.8854961832061068
1748587672.4711642,0.264404296875,-0.849365234375,-0.216064453125,-3.969465648854962,-1.8549618320610688,-4.190839694656488
1748587672.4811635,0.2724609375,-0.869384765625,-0.23291015625,-5.015267175572519,-2.015267175572519,-5.297709923664122
1748587672.4911637,0.2861328125,-0.87548828125,-0.22314453125,-5.748091603053435,-2.030534351145038,-5.419847328244275
1748587672.5011632,0.28759765625,-0.89208984375,-0.227294921875,-6.251908396946565,-2.5801526717557253,-5.3893129770992365
1748587672.5111635,0.293701171875,-0.921630859375,-0.2314453125,-6.1603053435114505,-3.1908396946564888,-5.1679389312977095
1748587672.521165,0.296142578125,-0.9228515625,-0.23046875,-5.8320610687022905,-3.618320610687023,-5.442748091603053
1748587672.5311642,0.30615234375,-0.923583984375,-0.227783203125,-5.7251908396946565,-3.549618320610687,-5.900763358778626
1748587672.5411634,0.29736328125,-0.93798828125,-0.22314453125,-5.480916030534351,-3.3435114503816794,-6.183206106870229
1748587672.5511632,0.325439453125,-0.93701171875,-0.22998046875,-5.137404580152672,-3.0839694656488548,-6.4961832061068705
1748587672.5611677,0.3330078125,-0.941162109375,-0.2197265625,-5.290076335877862,-2.4198473282442747,-6.358778625954199
1748587672.5711682,0.3291015625,-0.943115234375,-0.221923828125,-5.015267175572519,-1.549618320610687,-7.541984732824427
1748587672.5811646,0.3232421875,-0.92333984375,-0.221923828125,-3.9160305343511452,-0.648854961832061,-9.106870229007633
1748587672.5911636,0.31787109375,-0.921875,-0.223876953125,-1.9618320610687023,0.5725190839694656,-10.748091603053435
1748587672.6011653,0.31787109375,-0.892578125,-0.2177734375,-0.3816793893129771,1.9465648854961832,-12.053435114503817
1748587672.611165,0.301025390625,-0.87451171875,-0.19140625,0.3969465648854962,2.6717557251908395,-13.221374045801527
1748587672.621164,0.297119140625,-0.865234375,-0.18603515625,-0.22137404580152673,3.4656488549618323,-13.755725190839694
1748587672.6311638,0.288818359375,-0.855224609375,-0.17431640625,-1.5801526717557253,3.8396946564885495,-13.51908396946565
1748587672.6411636,0.284912109375,-0.8544921875,-0.157470703125,-3.717557251908397,4.236641221374046,-13.618320610687023
1748587672.6511638,0.29248046875,-0.87158203125,-0.171875,-6.3816793893129775,4.396946564885496,-12.83206106870229
1748587672.6611633,0.309326171875,-0.87841796875,-0.160888671875,-9.534351145038167,4.549618320610687,-10.946564885496183
1748587672.6711633,0.324462890625,-0.904541015625,-0.1728515625,-12.450381679389313,5.076335877862595,-8.381679389312977
1748587672.681163,0.328857421875,-0.935302734375,-0.196044921875,-14.16793893129771,5.763358778625954,-7.816793893129771
1748587672.6911654,0.33203125,-0.9580078125,-0.20654296875,-14.641221374045802,6.656488549618321,-5.33587786259542
1748587672.7011645,0.323486328125,-0.97119140625,-0.21875,-14.16793893129771,7.358778625954199,-6.694656488549619
1748587672.711165,0.318115234375,-0.981201171875,-0.23046875,-13.32824427480916,8.076335877862595,-7.66412213740458
1748587672.721165,0.329833984375,-0.982421875,-0.22216796875,-12.854961832061068,7.1603053435114505,-4.534351145038168
1748587672.731164,0.315185546875,-0.99072265625,-0.258056640625,-13.213740458015268,8.145038167938932,-4.541984732824427
1748587672.7411635,0.3154296875,-0.9873046875,-0.237548828125,-13.320610687022901,7.984732824427481,-5.625954198473282
1748587672.751164,0.31640625,-0.9833984375,-0.252197265625,-11.931297709923664,7.9465648854961835,-6.259541984732825
1748587672.7611637,0.327880859375,-0.9599609375,-0.2548828125,-10.65648854961832,8.19083969465649,-5.473282442748092
1748587672.7711635,0.333740234375,-0.940185546875,-0.25146484375,-10.877862595419847,8.435114503816793,-3.9389312977099236
1748587672.7811632,0.3388671875,-0.926513671875,-0.256103515625,-12.16030534351145,8.732824427480915,-2.7022900763358777
1748587672.7911634,0.326416015625,-0.931396484375,-0.2685546875,-12.442748091603054,8.98473282442748,-2.687022900763359
1748587672.8011632,0.30712890625,-0.93408203125,-0.28076171875,-10.641221374045802,8.977099236641221,-4.183206106870229
1748587672.8111649,0.302734375,-0.927978515625,-0.286376953125,-8.32824427480916,8.83206106870229,-5.702290076335878
1748587672.8211641,0.3046875,-0.923828125,-0.269775390625,-5.679389312977099,8.755725190839694,-6.816793893129771
1748587672.8311641,0.317626953125,-0.90966796875,-0.25048828125,-3.427480916030534,8.969465648854962,-8.458015267175572
1748587672.8411658,0.3203125,-0.900634765625,-0.259033203125,-1.9770992366412214,9.427480916030534,-9.664122137404581
1748587672.8511667,0.338623046875,-0.887939453125,-0.246337890625,-0.6717557251908397,10.01526717557252,-10.206106870229007
1748587672.8613799,0.34033203125,-0.873046875,-0.244384765625,0.6641221374045801,11.305343511450381,-11.251908396946565
1748587672.8711689,0.330078125,-0.864501953125,-0.220703125,0.9541984732824428,12.992366412213741,-13.427480916030534
1748587672.8811648,0.3173828125,-0.854736328125,-0.202880859375,0.5267175572519084,14.297709923664122,-13.80916030534351
1748587672.8913496,0.3203125,-0.833251953125,-0.19921875,-0.8778625954198473,14.664122137404581,-16.00763358778626
1748587672.901162,0.319580078125,-0.84130859375,-0.1669921875,-2.2061068702290076,14.877862595419847,-15.129770992366412
1748587672.9111621,0.3212890625,-0.834228515625,-0.1689453125,-3.50381679389313,16.30534351145038,-15.274809160305344
1748587672.9211612,0.326904296875,-0.840576171875,-0.15234375,-3.7099236641221376,17.519083969465647,-17.53435114503817
1748587672.9311664,0.333251953125,-0.83154296875,-0.15283203125,-2.6412213740458017,18.85496183206107,-19.595419847328245
1748587672.9411647,0.354736328125,-0.84326171875,-0.159423828125,0.3053435114503817,20.083969465648856,-23.87786259541985
1748587672.9511626,0.374267578125,-0.85888671875,-0.14794921875,4.732824427480916,19.480916030534353,-24.16793893129771
1748587672.9611623,0.345458984375,-0.8447265625,-0.15087890625,7.580152671755725,20.35114503816794,-26.129770992366414
1748587672.9711628,0.37255859375,-0.844970703125,-0.15478515625,11.938931297709924,21.64885496183206,-34.79389312977099
1748587672.9811661,0.354248046875,-0.894775390625,-0.140380859375,20.50381679389313,26.35114503816794,-42.267175572519086
1748587672.9911637,0.33837890625,-0.893798828125,-0.119873046875,27.0,31.083969465648856,-48.99236641221374
1748587673.0011628,0.355712890625,-0.870849609375,-0.121337890625,33.14503816793893,35.343511450381676,-55.56488549618321
1748587673.0111642,0.403076171875,-0.830810546875,-0.1259765625,34.61068702290076,35.93129770992366,-54.725190839694655
1748587673.021162,0.4365234375,-0.783203125,-0.10302734375,32.534351145038165,35.38931297709924,-51.961832061068705
1748587673.0311627,0.45751953125,-0.7529296875,-0.10302734375,26.9618320610687,35.3206106870229,-49.82442748091603
1748587673.0411623,0.47021484375,-0.791748046875,-0.10888671875,21.33587786259542,33.58015267175573,-50.725190839694655
1748587673.0511632,0.48486328125,-0.817138671875,-0.099853515625,11.007633587786259,31.267175572519083,-41.56488549618321
1748587673.0611646,0.499267578125,-0.73974609375,-0.08251953125,-25.519083969465647,30.99236641221374,-19.84732824427481
1748587673.0711637,0.529052734375,-0.88232421875,-0.141357421875,-42.267175572519086,28.549618320610687,1.618320610687023
1748587673.0811653,0.524658203125,-0.9892578125,-0.25048828125,-32.88549618320611,25.595419847328245,7.114503816793893
1748587673.0911639,0.531005859375,-1.029052734375,-0.252685546875,-16.46564885496183,25.709923664122137,2.427480916030534
1748587673.1011643,0.53955078125,-1.02197265625,-0.21923828125,-14.923664122137405,27.85496183206107,-4.0
1748587673.1111631,0.53515625,-1.00927734375,-0.211669921875,-22.9618320610687,31.748091603053435,-12.389312977099237
1748587673.1211634,0.545166015625,-0.9970703125,-0.24560546875,-26.564885496183205,34.396946564885496,-10.473282442748092
1748587673.1311696,0.563720703125,-0.96923828125,-0.267333984375,-24.229007633587788,34.038167938931295,-2.6259541984732824
1748587673.141165,0.56103515625,-0.95654296875,-0.284912109375,-21.9618320610687,33.786259541984734,3.1068702290076335
1748587673.1511629,0.510009765625,-0.940185546875,-0.30908203125,-21.083969465648856,34.0763358778626,2.854961832061069
1748587673.1611547,0.47412109375,-0.9296875,-0.30224609375,-21.412213740458014,33.6793893129771,-0.9083969465648855
1748587673.171162,0.45263671875,-0.90673828125,-0.325439453125,-19.80916030534351,31.6793893129771,-3.435114503816794
1748587673.1811626,0.460205078125,-0.895751953125,-0.3408203125,-16.099236641221374,29.206106870229007,-2.519083969465649
1748587673.1911612,0.45849609375,-0.89794921875,-0.329345703125,-16.87786259541985,26.84732824427481,-1.0305343511450382
1748587673.2011642,0.456298828125,-0.9013671875,-0.313720703125,-20.259541984732824,24.641221374045802,0.1450381679389313
1748587673.211165,0.46533203125,-0.914794921875,-0.34521484375,-21.954198473282442,22.580152671755727,1.7557251908396947
1748587673.2211676,0.460205078125,-0.92919921875,-0.367431640625,-17.068702290076335,17.72519083969466,5.0458015267175576
1748587673.2311652,0.447265625,-0.935302734375,-0.3525390625,-10.13740458015267,15.98473282442748,5.282442748091603
1748587673.2411613,0.448486328125,-0.926513671875,-0.327392578125,-10.633587786259541,16.65648854961832,1.2290076335877862
1748587673.2511609,0.44921875,-0.915283203125,-0.299560546875,-13.458015267175572,16.900763358778626,-2.801526717557252
1748587673.2611613,0.45751953125,-0.89208984375,-0.2998046875,-12.709923664122137,15.648854961832061,-4.748091603053435
1748587673.2711613,0.456298828125,-0.866943359375,-0.30224609375,-11.595419847328245,12.900763358778626,-5.702290076335878
1748587673.281158,0.465576171875,-0.872802734375,-0.2900390625,-10.045801526717558,11.038167938931299,-5.33587786259542
1748587673.291161,0.496826171875,-0.873779296875,-0.274658203125,-9.251908396946565,9.679389312977099,-3.3053435114503817
1748587673.3011618,0.494140625,-0.88037109375,-0.262451171875,-10.786259541984732,8.732824427480915,-1.549618320610687
1748587673.311161,0.499755859375,-0.8740234375,-0.26416015625,-14.633587786259541,8.412213740458014,0.7480916030534351
1748587673.3211606,0.4853515625,-0.877685546875,-0.262939453125,-17.236641221374047,8.404580152671755,2.786259541984733
1748587673.331161,0.492919921875,-0.88818359375,-0.255859375,-17.763358778625953,8.053435114503817,4.229007633587786
1748587673.3411613,0.49658203125,-0.903076171875,-0.2578125,-16.748091603053435,7.9541984732824424,5.396946564885496
1748587673.3511624,0.503662109375,-0.919189453125,-0.249755859375,-17.587786259541986,7.862595419847328,5.793893129770993
1748587673.3611612,0.5,-0.92333984375,-0.250244140625,-15.603053435114504,8.618320610687023,6.106870229007634
1748587673.3711612,0.499755859375,-0.9326171875,-0.2509765625,-15.053435114503817,9.587786259541986,6.374045801526718
1748587673.3811617,0.49853515625,-0.9375,-0.235107421875,-13.320610687022901,10.625954198473282,5.763358778625954
1748587673.3911605,0.4951171875,-0.9248046875,-0.2412109375,-11.610687022900763,11.251908396946565,5.541984732824427
1748587673.40116,0.50244140625,-0.91845703125,-0.247314453125,-10.17557251908397,11.259541984732824,6.206106870229007
1748587673.4115834,0.497802734375,-0.90673828125,-0.241943359375,-9.282442748091603,11.267175572519085,7.557251908396947
1748587673.4211621,0.5,-0.9111328125,-0.234619140625,-9.541984732824428,11.236641221374045,8.374045801526718
1748587673.4311633,0.4873046875,-0.90673828125,-0.234619140625,-9.923664122137405,11.091603053435115,7.938931297709924
1748587673.4411619,0.47900390625,-0.89453125,-0.243408203125,-9.51908396946565,10.351145038167939,5.885496183206107
1748587673.4511607,0.475830078125,-0.88916015625,-0.239501953125,-9.16793893129771,9.305343511450381,7.770992366412214
1748587673.4611607,0.471923828125,-0.88720703125,-0.249755859375,-9.244274809160306,8.854961832061068,8.106870229007633
1748587673.4711614,0.472412109375,-0.8671875,-0.232421875,-10.083969465648854,8.534351145038167,7.931297709923665
1748587673.4811609,0.479248046875,-0.85400390625,-0.223388671875,-10.183206106870228,7.984732824427481,8.091603053435115
1748587673.4911613,0.477783203125,-0.84716796875,-0.23388671875,-10.854961832061068,7.549618320610687,7.816793893129771
1748587673.5011606,0.474609375,-0.835205078125,-0.2431640625,-10.80916030534351,6.816793893129771,7.67175572519084
1748587673.5111666,0.465576171875,-0.83642578125,-0.231201171875,-11.297709923664122,5.679389312977099,8.129770992366412
1748587673.5211618,0.47900390625,-0.825439453125,-0.238037109375,-12.213740458015268,5.32824427480916,8.129770992366412
1748587673.531162,0.482666015625,-0.82470703125,-0.21923828125,-12.694656488549619,5.106870229007634,7.190839694656488
1748587673.5411627,0.458740234375,-0.818603515625,-0.220458984375,-12.854961832061068,4.816793893129771,5.603053435114504
1748587673.5511608,0.467041015625,-0.820068359375,-0.228271484375,-13.061068702290076,4.847328244274809,4.229007633587786
1748587673.5611608,0.4853515625,-0.81591796875,-0.229736328125,-14.312977099236642,4.977099236641221,4.312977099236641
1748587673.5711613,0.5,-0.8291015625,-0.236572265625,-15.908396946564885,5.038167938931298,5.458015267175573
1748587673.581161,0.511474609375,-0.84375,-0.243408203125,-16.72519083969466,5.709923664122138,6.33587786259542
1748587673.5911617,0.502685546875,-0.850830078125,-0.261474609375,-16.80916030534351,6.4961832061068705,6.152671755725191
1748587673.6011608,0.48583984375,-0.8515625,-0.27294921875,-16.412213740458014,7.0458015267175576,4.519083969465649
1748587673.6111612,0.49072265625,-0.866455078125,-0.272705078125,-15.534351145038167,7.732824427480916,2.8931297709923665
1748587673.6211612,0.489013671875,-0.867431640625,-0.270263671875,-14.374045801526718,8.366412213740459,1.6488549618320612
1748587673.6311612,0.4873046875,-0.872802734375,-0.278564453125,-12.595419847328245,8.572519083969466,0.6335877862595419
1748587673.6411614,0.46875,-0.84130859375,-0.271728515625,-11.351145038167939,8.374045801526718,-0.13740458015267176
1748587673.6511607,0.4716796875,-0.837646484375,-0.278564453125,-10.557251908396946,8.183206106870228,-0.7786259541984732
1748587673.6611612,0.474853515625,-0.8310546875,-0.270263671875,-10.320610687022901,7.6183206106870225,-1.1145038167938932
1748587673.6711605,0.4697265625,-0.82666015625,-0.271240234375,-10.763358778625955,7.137404580152672,-0.8625954198473282
1748587673.6811614,0.479248046875,-0.816650390625,-0.265625,-11.84732824427481,6.595419847328245,-0.16793893129770993
1748587673.6911607,0.47607421875,-0.81640625,-0.270751953125,-13.13740458015267,6.450381679389313,0.46564885496183206
1748587673.701161,0.480712890625,-0.826904296875,-0.270751953125,-14.450381679389313,6.396946564885496,0.2824427480916031
1748587673.7111616,0.471435546875,-0.841552734375,-0.28662109375,-14.732824427480915,6.236641221374046,-0.32061068702290074
1748587673.7211618,0.473876953125,-0.842529296875,-0.30810546875,-13.961832061068701,5.343511450381679,-0.46564885496183206
1748587673.7311614,0.4697265625,-0.855224609375,-0.302490234375,-12.908396946564885,4.557251908396947,-1.0916030534351144
1748587673.7411609,0.467529296875,-0.84765625,-0.3046875,-11.572519083969466,4.106870229007634,-2.5877862595419847
1748587673.7511616,0.468505859375,-0.854248046875,-0.310791015625,-10.129770992366412,3.2290076335877864,-3.312977099236641
1748587673.7611601,0.479248046875,-0.845458984375,-0.2978515625,-8.67175572519084,2.1297709923664123,-2.114503816793893
1748587673.771162,0.49560546875,-0.8291015625,-0.30322265625,-8.206106870229007,1.7938931297709924,-1.5190839694656488
1748587673.7811606,0.466064453125,-0.8369140625,-0.29931640625,-7.587786259541985,1.4809160305343512,-2.854961832061069
1748587673.7911615,0.470458984375,-0.8232421875,-0.293212890625,-6.694656488549619,1.3511450381679388,-4.587786259541985
1748587673.801153,0.4716796875,-0.81494140625,-0.283203125,-6.00763358778626,1.0305343511450382,-5.015267175572519
1748587673.8111613,0.47802734375,-0.811279296875,-0.294921875,-5.709923664122138,0.5648854961832062,-4.1603053435114505
1748587673.8211615,0.477783203125,-0.8095703125,-0.287353515625,-5.854961832061068,0.007633587786259542,-3.3740458015267176
1748587673.8311603,0.48583984375,-0.810546875,-0.290771484375,-6.00763358778626,-0.6870229007633588,-2.946564885496183
1748587673.8411613,0.484619140625,-0.81298828125,-0.28369140625,-6.343511450381679,-0.6946564885496184,-2.954198473282443
1748587673.8511684,0.47607421875,-0.798828125,-0.2900390625,-6.427480916030534,-0.11450381679389313,-3.5267175572519083
1748587673.861181,0.47900390625,-0.828369140625,-0.31103515625,-6.33587786259542,0.09923664122137404,-5.0458015267175576
1748587673.8711689,0.473388671875,-0.818359375,-0.31103515625,-5.916030534351145,-0.11450381679389313,-3.931297709923664
1748587673.8811624,0.46142578125,-0.833251953125,-0.303466796875,-5.083969465648855,-0.8702290076335878,-5.8396946564885495
1748587673.891173,0.471435546875,-0.836669921875,-0.302734375,-4.190839694656488,-1.916030534351145,-5.015267175572519
1748587673.9011652,0.458984375,-0.837890625,-0.29833984375,-3.0076335877862594,-2.267175572519084,-5.068702290076335
1748587673.9111679,0.467041015625,-0.83544921875,-0.287353515625,-3.83206106870229,-2.6259541984732824,-6.755725190839694
1748587673.9211671,0.482177734375,-0.835205078125,-0.28515625,-1.5419847328244274,-2.236641221374046,-8.030534351145038
1748587673.9311643,0.469482421875,-0.8359375,-0.2822265625,-1.618320610687023,-2.2900763358778624,-8.419847328244275
1748587673.941163,0.476318359375,-0.828369140625,-0.279052734375,-2.4885496183206106,-2.4885496183206106,-7.2748091603053435
1748587673.9511635,0.490234375,-0.84765625,-0.27197265625,-3.312977099236641,-2.6412213740458017,-5.870229007633588
1748587673.9611623,0.48291015625,-0.832275390625,-0.276611328125,-3.595419847328244,-2.6946564885496183,-4.961832061068702
1748587673.9711635,0.488037109375,-0.8623046875,-0.275146484375,-3.648854961832061,-2.2748091603053435,-5.557251908396947
1748587673.9811609,0.489013671875,-0.86376953125,-0.283447265625,-3.145038167938931,-1.786259541984733,-6.587786259541985
1748587673.9911602,0.494140625,-0.86767578125,-0.279541015625,-2.5877862595419847,-0.7251908396946565,-7.2748091603053435
1748587674.0011604,0.50341796875,-0.86181640625,-0.27978515625,-2.015267175572519,-0.5267175572519084,-5.9465648854961835
1748587674.0111601,0.49560546875,-0.86572265625,-0.2841796875,-2.2595419847328246,-0.6335877862595419,-3.8244274809160306
1748587674.0211601,0.4990234375,-0.86572265625,-0.2802734375,-3.2900763358778624,-0.5343511450381679,-2.8625954198473282
1748587674.031165,0.49169921875,-0.861572265625,-0.283203125,-3.3969465648854964,-0.35877862595419846,-3.3587786259541983
1748587674.0411596,0.487060546875,-0.869384765625,-0.2998046875,-2.7404580152671754,-0.2748091603053435,-3.7404580152671754
1748587674.0511663,0.482421875,-0.8701171875,-0.29736328125,-1.5954198473282444,-0.16793893129770993,-3.3206106870229006
1748587674.0611687,0.4716796875,-0.8642578125,-0.2958984375,-0.7938931297709924,0.1297709923664122,-3.4656488549618323
1748587674.0711646,0.475830078125,-0.860595703125,-0.302490234375,-0.5343511450381679,0.16793893129770993,-3.6717557251908395
1748587674.081164,0.48291015625,-0.85205078125,-0.306396484375,-0.183206106870229,-0.25190839694656486,-2.6412213740458017
1748587674.091163,0.477294921875,-0.850830078125,-0.31005859375,0.3053435114503817,-0.816793893129771,-1.4427480916030535
1748587674.1011627,0.4697265625,-0.847900390625,-0.304443359375,0.5038167938931297,-1.297709923664122,-0.9007633587786259
1748587674.111165,0.483154296875,-0.830810546875,-0.321044921875,0.7175572519083969,-1.534351145038168,-1.0687022900763359
1748587674.1211653,0.467041015625,-0.850341796875,-0.307373046875,1.1755725190839694,-2.145038167938931,-1.3206106870229009
1748587674.1311631,0.467529296875,-0.837890625,-0.307861328125,1.5877862595419847,-2.351145038167939,-1.1374045801526718
1748587674.1411638,0.466796875,-0.841064453125,-0.299072265625,1.7404580152671756,-2.618320610687023,-0.8931297709923665
1748587674.151188,0.464599609375,-0.832275390625,-0.293701171875,1.4351145038167938,-2.816793893129771,-1.3435114503816794
1748587674.161164,0.4697265625,-0.833984375,-0.2998046875,1.1603053435114503,-2.9618320610687023,-1.1526717557251909
1748587674.1711624,0.47998046875,-0.83642578125,-0.295166015625,0.6793893129770993,-3.1297709923664123,-0.3435114503816794
1748587674.1811635,0.473388671875,-0.8359375,-0.28369140625,-0.29770992366412213,-3.404580152671756,0.5801526717557252
1748587674.191164,0.48046875,-0.83154296875,-0.312255859375,-1.2748091603053435,-3.2595419847328246,1.2213740458015268
1748587674.2011642,0.469970703125,-0.84033203125,-0.30322265625,-1.5725190839694656,-3.4656488549618323,1.1603053435114503
1748587674.2111685,0.464599609375,-0.851806640625,-0.300048828125,-1.717557251908397,-4.229007633587786,2.0763358778625953
1748587674.2211645,0.464599609375,-0.847900390625,-0.30810546875,-1.0763358778625953,-4.251908396946565,2.2061068702290076
1748587674.2311635,0.450927734375,-0.8447265625,-0.31103515625,0.25190839694656486,-4.229007633587786,0.2824427480916031
1748587674.2411637,0.456787109375,-0.84912109375,-0.30859375,1.4961832061068703,-4.122137404580153,-2.145038167938931
1748587674.2511725,0.459228515625,-0.852294921875,-0.299560546875,2.1526717557251906,-4.183206106870229,-3.0381679389312977
1748587674.2611647,0.48388671875,-0.83984375,-0.2890625,2.3053435114503817,-4.343511450381679,-2.877862595419847
1748587674.2711637,0.4716796875,-0.841796875,-0.2861328125,1.450381679389313,-5.465648854961832,-2.786259541984733
1748587674.2811627,0.477783203125,-0.835693359375,-0.291748046875,0.6335877862595419,-5.0458015267175576,-1.8778625954198473
1748587674.2911634,0.484619140625,-0.84033203125,-0.298828125,0.37404580152671757,-5.320610687022901,-1.5801526717557253
1748587674.301164,0.48193359375,-0.835205078125,-0.282470703125,0.3511450381679389,-4.908396946564886,-2.687022900763359
1748587674.3111656,0.47412109375,-0.83447265625,-0.28466796875,0.32061068702290074,-3.7480916030534353,-4.984732824427481
1748587674.321164,0.483154296875,-0.825439453125,-0.286865234375,1.0458015267175573,-3.068702290076336,-6.862595419847328
1748587674.3311636,0.473388671875,-0.8154296875,-0.2890625,0.8091603053435115,-1.9923664122137406,-8.98473282442748
1748587674.3411627,0.472900390625,-0.820556640625,-0.279052734375,0.22900763358778625,-1.6259541984732824,-10.473282442748092
1748587674.3511708,0.4697265625,-0.818603515625,-0.2919921875,0.015267175572519083,-1.717557251908397,-9.793893129770993
1748587674.3611648,0.466064453125,-0.8251953125,-0.295166015625,-0.16030534351145037,-2.0076335877862594,-13.0
1748587674.3711705,0.483154296875,-0.823486328125,-0.286865234375,-0.11450381679389313,-2.3282442748091605,-13.335877862595419
1748587674.3811643,0.48583984375,-0.82958984375,-0.2802734375,0.25190839694656486,-2.66412213740458,-12.610687022900763
1748587674.391163,0.494140625,-0.837158203125,-0.281982421875,0.1297709923664122,-2.6412213740458017,-11.946564885496183
1748587674.4011638,0.50439453125,-0.84375,-0.2734375,-0.732824427480916,-2.312977099236641,-10.786259541984732
1748587674.4111657,0.513427734375,-0.854736328125,-0.274658203125,-0.06870229007633588,-2.4198473282442747,-9.442748091603054
1748587674.4211633,0.5234375,-0.874267578125,-0.273193359375,-3.572519083969466,-2.1755725190839694,-7.038167938931298
1748587674.431164,0.522216796875,-0.864013671875,-0.312255859375,-4.122137404580153,-1.6946564885496183,-4.923664122137405
1748587674.4411628,0.519775390625,-0.86279296875,-0.289794921875,-5.8320610687022905,-1.6946564885496183,-3.5267175572519083
1748587674.4511707,0.519287109375,-0.86669921875,-0.28369140625,-3.0763358778625953,-1.0763358778625953,-3.122137404580153
1748587674.4611635,0.5068359375,-0.86669921875,-0.29931640625,-2.381679389312977,0.2366412213740458,-3.7480916030534353
1748587674.471164,0.497314453125,-0.86669921875,-0.306640625,-1.3587786259541985,0.7251908396946565,-4.67175572519084
1748587674.4811642,0.500732421875,-0.86181640625,-0.303955078125,0.7633587786259542,0.31297709923664124,-5.152671755725191
1748587674.491164,0.51513671875,-0.8447265625,-0.30859375,1.8625954198473282,0.05343511450381679,-4.709923664122138
1748587674.5011635,0.487548828125,-0.833740234375,-0.298828125,1.8091603053435115,-0.2824427480916031,-3.786259541984733
1748587674.5111642,0.50390625,-0.8271484375,-0.291015625,1.4122137404580153,-0.549618320610687,-2.3893129770992365
1748587674.5211632,0.510009765625,-0.817138671875,-0.29736328125,0.6335877862595419,-0.5725190839694656,-1.3969465648854962
1748587674.5311632,0.505126953125,-0.822021484375,-0.28759765625,0.17557251908396945,-1.1374045801526718,-0.0916030534351145
1748587674.541164,0.5087890625,-0.815185546875,-0.29833984375,-0.6641221374045801,-1.1221374045801527,0.6870229007633588
1748587674.5511703,0.5,-0.814208984375,-0.28466796875,-0.7938931297709924,-1.16793893129771,0.816793893129771
1748587674.5611641,0.4931640625,-0.8125,-0.29248046875,-1.5267175572519085,-1.1068702290076335,-0.21374045801526717
1748587674.5711644,0.49169921875,-0.8095703125,-0.29541015625,-1.5114503816793894,-0.46564885496183206,-1.0610687022900764
1748587674.5811634,0.49169921875,-0.802734375,-0.293701171875,-0.4732824427480916,-0.1984732824427481,-1.2290076335877862
1748587674.591164,0.498779296875,-0.803466796875,-0.290283203125,-0.2366412213740458,-0.2748091603053435,-1.3129770992366412
1748587674.6011639,0.487548828125,-0.8046875,-0.293212890625,-0.916030534351145,-0.16793893129770993,-1.3435114503816794
1748587674.6111636,0.481201171875,-0.80712890625,-0.28369140625,-1.6946564885496183,-0.3893129770992366,-1.3358778625954197
1748587674.6211624,0.486572265625,-0.806640625,-0.280517578125,-2.5343511450381677,-0.22900763358778625,-1.4809160305343512
1748587674.6311646,0.47412109375,-0.81103515625,-0.290283203125,-2.450381679389313,0.022900763358778626,-2.068702290076336
1748587674.6411636,0.476318359375,-0.811279296875,-0.28466796875,-2.2900763358778624,0.12213740458015267,-2.816793893129771
1748587674.6511698,0.474853515625,-0.811767578125,-0.28125,-1.916030534351145,0.2595419847328244,-4.061068702290076
1748587674.6611638,0.471923828125,-0.819580078125,-0.279052734375,-1.5954198473282444,0.4580152671755725,-4.770992366412214
1748587674.6711645,0.46875,-0.8046875,-0.2705078125,-1.549618320610687,0.5954198473282443,-4.900763358778626
1748587674.6811633,0.477294921875,-0.7998046875,-0.25732421875,-2.816793893129771,0.21374045801526717,-5.679389312977099
1748587674.6911628,0.4814453125,-0.8037109375,-0.26318359375,-3.5801526717557253,0.17557251908396945,-6.587786259541985
1748587674.7011633,0.48828125,-0.809814453125,-0.249755859375,-4.206106870229007,1.9465648854961832,-8.259541984732824
1748587674.711164,0.495849609375,-0.803955078125,-0.25,-4.435114503816794,-0.32061068702290074,-7.854961832061068
1748587674.7211633,0.5126953125,-0.803955078125,-0.251708984375,-4.572519083969466,0.2366412213740458,-11.206106870229007
1748587674.7311633,0.534912109375,-0.810302734375,-0.23095703125,-5.106870229007634,1.450381679389313,-11.633587786259541
1748587674.741163,0.553466796875,-0.80029296875,-0.234130859375,-6.419847328244275,2.9389312977099236,-11.80916030534351
1748587674.751163,0.557373046875,-0.810302734375,-0.23046875,-7.114503816793893,4.480916030534351,-11.267175572519085
1748587674.7611635,0.5556640625,-0.789794921875,-0.229248046875,-7.793893129770993,5.465648854961832,-10.366412213740459
1748587674.7711632,0.558837890625,-0.810546875,-0.2197265625,-8.916030534351146,5.969465648854962,-9.740458015267176
1748587674.7811642,0.557373046875,-0.80419921875,-0.237548828125,-9.877862595419847,6.061068702290076,-4.854961832061068
1748587674.7911634,0.543701171875,-0.812744140625,-0.2509765625,-11.091603053435115,6.106870229007634,-3.0381679389312977
1748587674.8011632,0.53955078125,-0.831787109375,-0.26318359375,-11.442748091603054,6.175572519083969,-2.282442748091603
1748587674.8111634,0.537353515625,-0.83544921875,-0.263916015625,-11.625954198473282,6.633587786259542,-1.9694656488549618
1748587674.8211641,0.53955078125,-0.83447265625,-0.264892578125,-12.122137404580153,7.648854961832061,-1.4122137404580153
1748587674.8311646,0.56201171875,-0.840576171875,-0.27880859375,-12.648854961832061,8.732824427480915,-0.05343511450381679
1748587674.841166,0.5458984375,-0.841552734375,-0.290283203125,-12.48091603053435,9.687022900763358,0.5877862595419847
1748587674.8511655,0.525634765625,-0.837646484375,-0.30029296875,-11.580152671755725,10.709923664122137,0.2366412213740458
1748587674.8612175,0.50634765625,-0.814208984375,-0.298583984375,-9.908396946564885,11.297709923664122,-1.1068702290076335
1748587674.8722558,0.49658203125,-0.821533203125,-0.322265625,-9.282442748091603,11.351145038167939,-1.7557251908396947
1748587674.8811686,0.488525390625,-0.8125,-0.322998046875,-8.854961832061068,10.587786259541986,-1.6030534351145038
1748587674.8911755,0.4970703125,-0.806884765625,-0.330322265625,-8.82442748091603,9.801526717557252,-1.3893129770992367
1748587674.9011655,0.488525390625,-0.8125,-0.333740234375,-9.34351145038168,8.625954198473282,-1.1221374045801527
1748587674.911165,0.493896484375,-0.789794921875,-0.3173828125,-9.488549618320612,8.083969465648854,-0.8473282442748091
1748587674.9211636,0.50048828125,-0.802734375,-0.325439453125,-10.969465648854962,7.709923664122138,-1.786259541984733
1748587674.931163,0.514404296875,-0.815185546875,-0.33642578125,-11.15267175572519,7.557251908396947,-0.7099236641221374
1748587674.9411635,0.52587890625,-0.815185546875,-0.32763671875,-10.34351145038168,7.33587786259542,0.31297709923664124
1748587674.9511657,0.51953125,-0.82080078125,-0.341796875,-9.870229007633588,7.33587786259542,1.1145038167938932
1748587674.9611633,0.5224609375,-0.82275390625,-0.3427734375,-9.374045801526718,7.473282442748092,0.8549618320610687
1748587674.9711635,0.509765625,-0.81787109375,-0.34619140625,-9.770992366412214,7.885496183206107,-0.6412213740458015
1748587674.9811625,0.51123046875,-0.8134765625,-0.336181640625,-9.67175572519084,7.908396946564886,-1.916030534351145
1748587674.9911625,0.5126953125,-0.8115234375,-0.341552734375,-8.366412213740459,7.732824427480916,-2.9160305343511452
1748587675.001163,0.52099609375,-0.805908203125,-0.330322265625,-7.603053435114504,7.778625954198473,-4.580152671755725
1748587675.0111644,0.515869140625,-0.803466796875,-0.31396484375,-7.687022900763359,7.9465648854961835,-6.076335877862595
1748587675.021165,0.52587890625,-0.790771484375,-0.3271484375,-7.175572519083969,7.885496183206107,-7.4961832061068705
1748587675.031163,0.544677734375,-0.78857421875,-0.310302734375,-7.213740458015267,8.16030534351145,-8.694656488549619
1748587675.0411627,0.540283203125,-0.776611328125,-0.30224609375,-8.099236641221374,8.16030534351145,-9.732824427480915
1748587675.0511642,0.557861328125,-0.7724609375,-0.29541015625,-8.694656488549619,8.763358778625955,-9.419847328244275
1748587675.0611641,0.57080078125,-0.7744140625,-0.299560546875,-9.625954198473282,9.038167938931299,-8.488549618320612
1748587675.0711637,0.572509765625,-0.771728515625,-0.2900390625,-10.198473282442748,9.83969465648855,-7.633587786259542
1748587675.0811725,0.577880859375,-0.767333984375,-0.296875,-10.129770992366412,10.534351145038167,-7.603053435114504
1748587675.0911658,0.55419921875,-0.77197265625,-0.3095703125,-11.679389312977099,11.374045801526718,-8.82442748091603
1748587675.1011643,0.54736328125,-0.7724609375,-0.301025390625,-8.86259541984733,12.16793893129771,-10.0
1748587675.111164,0.546875,-0.77001953125,-0.29541015625,-7.862595419847328,12.770992366412214,-10.50381679389313
1748587675.1211636,0.54931640625,-0.77294921875,-0.301513671875,-7.1603053435114505,12.687022900763358,-10.473282442748092
1748587675.131164,0.54248046875,-0.783935546875,-0.292236328125,-7.251908396946565,12.061068702290076,-9.229007633587786
1748587675.1411638,0.545166015625,-0.784423828125,-0.2939453125,-7.32824427480916,11.030534351145038,-8.091603053435115
1748587675.1511645,0.537841796875,-0.774658203125,-0.29736328125,-7.473282442748092,10.564885496183207,-7.984732824427481
1748587675.161164,0.552490234375,-0.789794921875,-0.30859375,-7.625954198473282,11.702290076335878,-8.435114503816793
1748587675.1711643,0.548828125,-0.7978515625,-0.299560546875,-7.66412213740458,9.83969465648855,-8.091603053435115
1748587675.1811635,0.569580078125,-0.80419921875,-0.305419921875,-7.694656488549619,9.954198473282442,-7.519083969465649
1748587675.1911643,0.57666015625,-0.819580078125,-0.311767578125,-7.694656488549619,9.80916030534351,-6.198473282442748
1748587675.2011638,0.574951171875,-0.82177734375,-0.31591796875,-7.229007633587786,9.702290076335878,-4.648854961832061
1748587675.2111645,0.561279296875,-0.82421875,-0.310791015625,-6.427480916030534,9.51908396946565,-4.221374045801527
1748587675.2211637,0.56005859375,-0.806884765625,-0.32177734375,-5.396946564885496,9.381679389312977,-5.358778625954199
1748587675.2311635,0.546875,-0.790283203125,-0.31982421875,-5.366412213740458,9.229007633587786,-6.038167938931298
1748587675.241167,0.567138671875,-0.788330078125,-0.3232421875,-6.206106870229007,8.961832061068701,-5.236641221374046
1748587675.2511683,0.5732421875,-0.796630859375,-0.3408203125,-7.480916030534351,8.603053435114504,-5.862595419847328
1748587675.261165,0.5576171875,-0.7939453125,-0.3251953125,-8.351145038167939,7.877862595419847,-3.4580152671755724
1748587675.2711654,0.560546875,-0.8017578125,-0.330078125,-8.755725190839694,6.778625954198473,-3.2900763358778624
1748587675.2811646,0.559814453125,-0.798095703125,-0.3349609375,-7.587786259541985,5.236641221374046,-2.6412213740458017
1748587675.2911637,0.571044921875,-0.791748046875,-0.335205078125,-6.320610687022901,5.8396946564885495,-1.3893129770992367
1748587675.3011644,0.57763671875,-0.799560546875,-0.34228515625,-6.320610687022901,3.900763358778626,-0.9389312977099237
1748587675.3111656,0.566650390625,-0.816162109375,-0.337158203125,-7.152671755725191,4.343511450381679,-1.381679389312977
1748587675.3211648,0.551513671875,-0.80224609375,-0.3583984375,-7.229007633587786,4.633587786259542,-2.236641221374046
1748587675.3311641,0.54833984375,-0.81591796875,-0.3466796875,-6.00763358778626,4.908396946564886,-3.0229007633587788
1748587675.3411644,0.56689453125,-0.799560546875,-0.35107421875,-5.343511450381679,5.038167938931298,-3.450381679389313
1748587675.3511639,0.565673828125,-0.811279296875,-0.345458984375,-3.931297709923664,4.969465648854962,-2.480916030534351
1748587675.3611646,0.56982421875,-0.802978515625,-0.350341796875,-4.190839694656488,4.267175572519084,-2.9618320610687023
1748587675.3711646,0.561279296875,-0.788330078125,-0.353271484375,-3.7938931297709924,4.442748091603053,-2.7786259541984735
1748587675.381164,0.534912109375,-0.78271484375,-0.3515625,-3.549618320610687,3.5343511450381677,-3.519083969465649
1748587675.3911636,0.537353515625,-0.776123046875,-0.355224609375,-2.6717557251908395,2.267175572519084,-3.648854961832061
1748587675.4011638,0.54443359375,-0.775634765625,-0.343505859375,-2.564885496183206,1.4122137404580153,-3.3053435114503817
1748587675.4111662,0.5322265625,-0.766845703125,-0.33935546875,-3.8244274809160306,0.08396946564885496,-2.2595419847328246
1748587675.4211657,0.553466796875,-0.7685546875,-0.341064453125,-5.793893129770993,-0.816793893129771,-1.297709923664122
1748587675.4311662,0.560546875,-0.78173828125,-0.349365234375,-7.0,-1.7786259541984732,0.29770992366412213
1748587675.441169,0.567138671875,-0.787109375,-0.3623046875,-7.67175572519084,-2.9236641221374047,1.6564885496183206
1748587675.451165,0.565185546875,-0.794189453125,-0.363037109375,-7.595419847328245,-3.66412213740458,1.5190839694656488
1748587675.461164,0.5732421875,-0.807373046875,-0.360107421875,-6.763358778625954,-3.4580152671755724,0.9389312977099237
1748587675.4711652,0.577880859375,-0.80517578125,-0.37744140625,-4.984732824427481,-3.183206106870229,0.007633587786259542
1748587675.4811633,0.575927734375,-0.797119140625,-0.36474609375,-2.6259541984732824,-2.564885496183206,-1.2595419847328244
1748587675.4911637,0.551025390625,-0.79150390625,-0.357177734375,-0.6641221374045801,-2.633587786259542,-2.83206106870229
1748587675.5011637,0.5390625,-0.76611328125,-0.347900390625,1.2366412213740459,-2.5114503816793894,-4.824427480916031
1748587675.5111635,0.5458984375,-0.752197265625,-0.3359375,2.183206106870229,-2.7786259541984735,-5.732824427480916
1748587675.5211627,0.549560546875,-0.743896484375,-0.31396484375,1.6641221374045803,-3.2748091603053435,-4.854961832061068
1748587675.5311658,0.551513671875,-0.730224609375,-0.304443359375,0.44274809160305345,-3.717557251908397,-3.2595419847328246
1748587675.541164,0.558349609375,-0.72900390625,-0.299072265625,-1.2366412213740459,-4.198473282442748,-1.5801526717557253
1748587675.5511634,0.553955078125,-0.742431640625,-0.289306640625,-2.83206106870229,-4.083969465648855,-0.8854961832061069
1748587675.5611641,0.55810546875,-0.7353515625,-0.294677734375,-1.984732824427481,-3.6564885496183206,-0.9007633587786259
1748587675.5711634,0.56201171875,-0.76416015625,-0.3017578125,-4.129770992366412,-3.122137404580153,-1.4809160305343512
1748587675.581163,0.544921875,-0.778564453125,-0.296142578125,-3.687022900763359,-2.595419847328244,-2.16793893129771
1748587675.591165,0.55224609375,-0.785400390625,-0.300537109375,-3.7022900763358777,-2.1755725190839694,-2.3282442748091605
1748587675.6011636,0.55322265625,-0.788330078125,-0.292236328125,-4.412213740458015,-3.877862595419847,-2.0
1748587675.6111639,0.558349609375,-0.79296875,-0.296630859375,-4.977099236641221,-1.9694656488549618,-1.8625954198473282
1748587675.6211636,0.563720703125,-0.799560546875,-0.287109375,-5.1603053435114505,-2.0381679389312977,-1.0763358778625953
1748587675.631164,0.58203125,-0.806396484375,-0.29296875,-5.9541984732824424,-0.04580152671755725,-0.015267175572519083
1748587675.6411648,0.583251953125,-0.813232421875,-0.30224609375,-6.480916030534351,-1.5801526717557253,1.5190839694656488
1748587675.6511636,0.592041015625,-0.841796875,-0.30224609375,-6.229007633587786,-1.0687022900763359,2.7404580152671754
1748587675.6611636,0.593994140625,-0.8310546875,-0.324462890625,-5.465648854961832,-0.2748091603053435,3.6564885496183206
1748587675.6711636,0.58935546875,-0.83154296875,-0.31103515625,-4.343511450381679,1.1145038167938932,3.6717557251908395
1748587675.681164,0.58935546875,-0.826904296875,-0.3203125,-3.236641221374046,2.1374045801526718,3.404580152671756
1748587675.6911645,0.5791015625,-0.81982421875,-0.330078125,-1.3511450381679388,2.7099236641221376,2.7938931297709924
1748587675.7011645,0.579345703125,-0.815673828125,-0.32568359375,0.3816793893129771,3.4732824427480917,2.7022900763358777
1748587675.7111645,0.570068359375,-0.788818359375,-0.330322265625,1.8931297709923665,3.8473282442748094,2.6106870229007635
1748587675.7211633,0.565185546875,-0.795654296875,-0.32568359375,2.732824427480916,3.8396946564885495,2.786259541984733
1748587675.731164,0.561767578125,-0.7587890625,-0.322021484375,2.687022900763359,3.7480916030534353,2.7099236641221376
1748587675.7411633,0.548095703125,-0.749267578125,-0.343505859375,2.854961832061069,3.6793893129770994,1.4885496183206106
1748587675.751164,0.5419921875,-0.744140625,-0.343017578125,3.381679389312977,2.8702290076335877,0.06870229007633588
1748587675.761164,0.53955078125,-0.7373046875,-0.335693359375,3.984732824427481,2.4580152671755724,-1.7404580152671756
1748587675.7711632,0.54296875,-0.731689453125,-0.341064453125,4.847328244274809,1.7709923664122138,-3.687022900763359
1748587675.7811637,0.545654296875,-0.723876953125,-0.322021484375,4.893129770992366,1.0,-5.137404580152672
1748587675.7911637,0.558837890625,-0.71240234375,-0.329345703125,4.183206106870229,0.9694656488549618,-5.732824427480916
1748587675.8011644,0.57421875,-0.715576171875,-0.321533203125,3.564885496183206,0.6030534351145038,-4.549618320610687
1748587675.811164,0.5859375,-0.704345703125,-0.31884765625,2.6259541984732824,0.37404580152671757,-3.366412213740458
1748587675.8211641,0.5859375,-0.71484375,-0.319091796875,1.5877862595419847,0.549618320610687,-3.66412213740458
1748587675.8311646,0.57080078125,-0.7177734375,-0.32373046875,1.618320610687023,0.7786259541984732,-5.152671755725191
1748587675.8411663,0.56298828125,-0.71630859375,-0.303955078125,2.068702290076336,1.3511450381679388,-7.343511450381679
1748587675.8511662,0.554443359375,-0.705078125,-0.309814453125,2.236641221374046,0.030534351145038167,-9.114503816793894
1748587675.8612075,0.5595703125,-0.679931640625,-0.296630859375,1.465648854961832,2.595419847328244,-9.977099236641221
1748587675.8716002,0.56787109375,-0.671630859375,-0.298583984375,0.7022900763358778,2.519083969465649,-11.312977099236642
1748587675.881164,0.553955078125,-0.65771484375,-0.30615234375,-0.366412213740458,2.6259541984732824,-12.725190839694656
1748587675.8911743,0.57470703125,-0.675537109375,-0.298095703125,-1.3206106870229009,2.8702290076335877,-13.34351145038168
1748587675.9011614,0.564697265625,-0.679443359375,-0.3037109375,-1.6412213740458015,2.3969465648854964,-13.50381679389313
1748587675.9111612,0.56298828125,-0.6953125,-0.2978515625,-2.33587786259542,2.145038167938931,-14.206106870229007
1748587675.9211607,0.5771484375,-0.71728515625,-0.313720703125,-2.5114503816793894,1.9541984732824427,-14.954198473282442
1748587675.931169,0.58349609375,-0.731689453125,-0.320068359375,-1.7633587786259541,2.2213740458015265,-15.320610687022901
1748587675.941164,0.591552734375,-0.755126953125,-0.31640625,-1.0763358778625953,3.8702290076335877,-17.30534351145038
1748587675.9511623,0.615966796875,-0.746337890625,-0.30615234375,-1.7557251908396947,2.480916030534351,-15.709923664122137
1748587675.9611638,0.614013671875,-0.754150390625,-0.310302734375,-2.0916030534351147,3.0229007633587788,-15.801526717557252
1748587675.9711614,0.622802734375,-0.774658203125,-0.32421875,-1.8854961832061068,3.5572519083969465,-16.83969465648855
1748587675.981163,0.634765625,-0.78515625,-0.320068359375,-1.6488549618320612,3.7251908396946565,-16.732824427480917
1748587675.9911633,0.63916015625,-0.789794921875,-0.311279296875,-2.045801526717557,3.618320610687023,-17.564885496183205
1748587676.0011623,0.6259765625,-0.7900390625,-0.310302734375,-2.6946564885496183,3.5572519083969465,-14.099236641221374
1748587676.0111668,0.622314453125,-0.791015625,-0.330810546875,-2.1908396946564888,3.0076335877862594,-13.305343511450381
1748587676.0211642,0.623779296875,-0.786376953125,-0.331298828125,-0.7022900763358778,2.7404580152671754,-13.01526717557252
1748587676.031166,0.63916015625,-0.787353515625,-0.330322265625,-0.2595419847328244,2.427480916030534,-13.076335877862595
1748587676.041164,0.63037109375,-0.76708984375,-0.328857421875,-1.2366412213740459,2.015267175572519,-12.557251908396946
1748587676.0511625,0.6337890625,-0.7880859375,-0.323486328125,-2.3740458015267176,1.7709923664122138,-10.595419847328245
1748587676.0611656,0.63525390625,-0.791748046875,-0.316650390625,-2.5572519083969465,1.0534351145038168,-9.618320610687023
1748587676.0711644,0.62890625,-0.80078125,-0.3173828125,-2.3053435114503817,0.3282442748091603,-6.083969465648855
1748587676.0811634,0.615234375,-0.7939453125,-0.334716796875,-1.6946564885496183,0.06870229007633588,-6.305343511450381
1748587676.0911636,0.603759765625,-0.77880859375,-0.33154296875,-0.648854961832061,0.04580152671755725,-5.923664122137405
1748587676.1011643,0.60888671875,-0.777099609375,-0.341064453125,0.183206106870229,-0.29770992366412213,-9.17557251908397
1748587676.1111634,0.59521484375,-0.77001953125,-0.3330078125,-0.26717557251908397,-0.7251908396946565,-9.068702290076336
1748587676.1211638,0.616943359375,-0.7705078125,-0.328369140625,-2.1603053435114505,-1.8473282442748091,-7.5038167938931295
1748587676.1311631,0.61181640625,-0.772705078125,-0.330078125,-4.114503816793893,-3.3969465648854964,-4.7251908396946565
1748587676.1411643,0.627685546875,-0.77001953125,-0.337646484375,-5.083969465648855,-5.267175572519084,-1.633587786259542
1748587676.1511633,0.625,-0.795166015625,-0.32958984375,-4.977099236641221,-6.1603053435114505,-0.015267175572519083
1748587676.1611636,0.62548828125,-0.807861328125,-0.347900390625,-4.122137404580153,-6.32824427480916,0.5343511450381679
1748587676.1711636,0.627685546875,-0.8134765625,-0.359375,-3.900763358778626,-5.931297709923665,-0.4351145038167939
1748587676.1811628,0.622314453125,-0.81494140625,-0.36376953125,0.45038167938931295,-5.679389312977099,-2.480916030534351
1748587676.1911633,0.624267578125,-0.799560546875,-0.359130859375,2.1068702290076335,-5.641221374045801,-3.2900763358778624
1748587676.2011633,0.625732421875,-0.79638671875,-0.365966796875,3.0229007633587788,-6.068702290076335,-3.0916030534351147
1748587676.2111638,0.609375,-0.767333984375,-0.364990234375,2.687022900763359,-7.0458015267175576,-1.6946564885496183
1748587676.2211642,0.63134765625,-0.758056640625,-0.365234375,1.618320610687023,-8.389312977099237,-0.22137404580152673
1748587676.2311645,0.61767578125,-0.75146484375,-0.385498046875,1.0610687022900764,-9.770992366412214,0.183206106870229
1748587676.241164,0.60400390625,-0.7431640625,-0.381103515625,1.5725190839694656,-11.221374045801527,-0.816793893129771
1748587676.2511632,0.6083984375,-0.74267578125,-0.416015625,2.7709923664122136,-13.320610687022901,-2.33587786259542
1748587676.2611654,0.60400390625,-0.743408203125,-0.433349609375,4.786259541984733,-14.992366412213741,-4.137404580152672
1748587676.271164,0.595458984375,-0.7412109375,-0.447021484375,6.015267175572519,-17.12213740458015,-6.091603053435114
1748587676.2811644,0.620849609375,-0.72900390625,-0.443603515625,10.877862595419847,-18.6793893129771,-8.335877862595419
1748587676.2911646,0.60986328125,-0.706298828125,-0.45263671875,11.732824427480915,-19.15267175572519,-11.061068702290076
1748587676.3011644,0.624267578125,-0.692138671875,-0.406494140625,17.213740458015266,-19.419847328244273,-14.13740458015267
1748587676.311163,0.601806640625,-0.665771484375,-0.394775390625,20.702290076335878,-20.068702290076335,-17.206106870229007
1748587676.3211632,0.591064453125,-0.6318359375,-0.369140625,22.38167938931298,-20.106870229007633,-20.091603053435115
1748587676.3311636,0.598876953125,-0.62646484375,-0.3369140625,21.068702290076335,-19.984732824427482,-21.045801526717558
1748587676.341164,0.619384765625,-0.6220703125,-0.310791015625,16.954198473282442,-19.801526717557252,-19.603053435114504
1748587676.3511636,0.634765625,-0.623291015625,-0.298828125,11.427480916030534,-19.0381679389313,-16.83206106870229
1748587676.3611639,0.62451171875,-0.635986328125,-0.2890625,6.259541984732825,-18.290076335877863,-14.755725190839694
1748587676.3711648,0.6044921875,-0.650146484375,-0.2900390625,3.381679389312977,-18.35114503816794,-13.320610687022901
1748587676.3811636,0.590576171875,-0.665771484375,-0.276611328125,1.6106870229007633,-18.03053435114504,-12.229007633587786
1748587676.3911672,0.59130859375,-0.679443359375,-0.27978515625,0.3282442748091603,-16.65648854961832,-11.908396946564885
1748587676.401164,0.581298828125,-0.687255859375,-0.26806640625,-1.8854961832061068,-15.0,-12.51908396946565
1748587676.4111648,0.578857421875,-0.69873046875,-0.266845703125,-4.290076335877862,-13.091603053435115,-13.580152671755725
1748587676.421163,0.5810546875,-0.703125,-0.257080078125,-6.3816793893129775,-11.854961832061068,-14.183206106870228
1748587676.4311638,0.580322265625,-0.71923828125,-0.267578125,-8.32824427480916,-10.610687022900763,-14.274809160305344
1748587676.4411619,0.5859375,-0.73779296875,-0.251708984375,-10.206106870229007,-9.893129770992367,-13.305343511450381
1748587676.4511638,0.59130859375,-0.763427734375,-0.27099609375,-11.625954198473282,-9.366412213740459,-11.17557251908397
1748587676.4611738,0.600830078125,-0.786376953125,-0.2724609375,-12.366412213740459,-9.458015267175572,-8.908396946564885
1748587676.4711645,0.612060546875,-0.80908203125,-0.275146484375,-12.610687022900763,-9.259541984732824,-6.702290076335878
1748587676.4811628,0.618896484375,-0.825439453125,-0.2734375,-13.038167938931299,-8.145038167938932,-5.549618320610687
1748587676.4911625,0.62890625,-0.849365234375,-0.285888671875,-12.229007633587786,-6.3816793893129775,-5.076335877862595
1748587676.501164,0.631591796875,-0.85986328125,-0.292724609375,-10.50381679389313,-4.801526717557252,-4.648854961832061
1748587676.5111632,0.635986328125,-0.86328125,-0.293701171875,-9.687022900763358,-3.236641221374046,-3.9389312977099236
1748587676.5211642,0.636474609375,-0.861083984375,-0.30615234375,-5.465648854961832,-1.6564885496183206,-3.633587786259542
1748587676.531163,0.638427734375,-0.84521484375,-0.300537109375,-3.6030534351145036,-1.9541984732824427,-3.4198473282442747
1748587676.5411632,0.635498046875,-0.839111328125,-0.302978515625,-1.1526717557251909,1.366412213740458,-2.2213740458015265
1748587676.5511632,0.627685546875,-0.814208984375,-0.3037109375,0.7557251908396947,2.198473282442748,-0.8625954198473282
1748587676.5611644,0.615966796875,-0.778564453125,-0.322509765625,1.9694656488549618,2.519083969465649,0.3435114503816794
1748587676.5711632,0.60888671875,-0.7490234375,-0.34814453125,2.572519083969466,2.633587786259542,0.17557251908396945
1748587676.5811636,0.601806640625,-0.727783203125,-0.36767578125,2.954198473282443,1.7251908396946565,-0.37404580152671757
1748587676.5911624,0.60400390625,-0.704345703125,-0.393310546875,2.312977099236641,0.015267175572519083,-0.12213740458015267
1748587676.6011639,0.608154296875,-0.701416015625,-0.428466796875,2.099236641221374,-3.1068702290076335,-0.33587786259541985
1748587676.611163,0.603759765625,-0.6982421875,-0.471435546875,3.1908396946564888,-7.374045801526718,-0.6412213740458015
1748587676.6211636,0.58056640625,-0.733154296875,-0.488037109375,7.595419847328245,-12.274809160305344,-4.862595419847328
1748587676.631163,0.572998046875,-0.72021484375,-0.528076171875,13.893129770992367,-14.664122137404581,-13.229007633587786
1748587676.6411629,0.54345703125,-0.764892578125,-0.58544921875,26.65648854961832,-14.931297709923664,-27.15267175572519
1748587676.651163,0.573974609375,-0.7041015625,-0.4775390625,38.02290076335878,-17.862595419847327,-38.61832061068702
1748587676.661164,0.630126953125,-0.65185546875,-0.465576171875,45.56488549618321,-16.48854961832061,-43.595419847328245
1748587676.6711636,0.653076171875,-0.601806640625,-0.4248046875,52.36641221374046,-15.755725190839694,-46.51145038167939
1748587676.6811633,0.683349609375,-0.56982421875,-0.3408203125,53.6793893129771,-14.259541984732824,-47.87786259541985
1748587676.6911633,0.7109375,-0.5263671875,-0.29443359375,49.88549618320611,-12.435114503816793,-45.41984732824427
1748587676.7011638,0.731689453125,-0.507080078125,-0.25634765625,43.23664122137404,-10.19083969465649,-41.2442748091603
1748587676.711164,0.724609375,-0.498291015625,-0.219482421875,33.541984732824424,-8.145038167938932,-37.45038167938932
1748587676.721163,0.722900390625,-0.49951171875,-0.210693359375,21.717557251908396,-7.694656488549619,-32.725190839694655
1748587676.7311633,0.705322265625,-0.517578125,-0.190673828125,11.366412213740459,-7.6106870229007635,-27.244274809160306
1748587676.7411647,0.6962890625,-0.529541015625,-0.204833984375,-2.8702290076335877,-8.49618320610687,-17.80916030534351
1748587676.7511635,0.6943359375,-0.5732421875,-0.216796875,-15.16030534351145,-9.221374045801527,-11.358778625954198
1748587676.7611632,0.70068359375,-0.639892578125,-0.257568359375,-24.66412213740458,-8.641221374045802,-9.091603053435115
1748587676.7711642,0.67236328125,-0.683837890625,-0.28076171875,-29.732824427480917,-7.717557251908397,-9.267175572519085
1748587676.781163,0.66748046875,-0.722412109375,-0.3388671875,-31.404580152671755,-6.2748091603053435,-9.549618320610687
1748587676.7911642,0.6611328125,-0.78759765625,-0.345947265625,-30.61832061068702,-5.870229007633588,-9.48091603053435
1748587676.8011634,0.662353515625,-0.81494140625,-0.347412109375,-30.81679389312977,-5.473282442748092,-8.83969465648855
1748587676.8111637,0.6591796875,-0.8349609375,-0.3603515625,-29.137404580152673,-5.190839694656488,-8.625954198473282
1748587676.8211632,0.65478515625,-0.840087890625,-0.369384765625,-26.099236641221374,-5.297709923664122,-7.022900763358779
1748587676.831164,0.65771484375,-0.85693359375,-0.3779296875,-22.64885496183206,-3.6259541984732824,-6.137404580152672
1748587676.8411686,0.650390625,-0.851318359375,-0.3720703125,-17.748091603053435,-3.053435114503817,-6.022900763358779
1748587676.851167,0.625732421875,-0.857177734375,-0.368408203125,-14.229007633587786,-2.404580152671756,-5.755725190839694
1748587676.8611934,0.628662109375,-0.833740234375,-0.363037109375,-11.290076335877863,-2.50381679389313,-5.145038167938932
1748587676.8712325,0.633544921875,-0.82275390625,-0.362060546875,-9.15267175572519,-3.312977099236641,-3.6717557251908395
1748587676.881165,0.630615234375,-0.831298828125,-0.349853515625,-6.320610687022901,-4.236641221374046,-0.3053435114503817
1748587676.891174,0.639404296875,-0.8125,-0.341796875,-4.473282442748092,-4.961832061068702,2.519083969465649
1748587676.9011614,0.63427734375,-0.8056640625,-0.33740234375,-1.5267175572519085,-5.305343511450381,3.7557251908396947
1748587676.9112668,0.632568359375,-0.79638671875,-0.333251953125,1.4122137404580153,-4.33587786259542,2.732824427480916
1748587676.9211695,0.617431640625,-0.79541015625,-0.34765625,5.412213740458015,-3.9618320610687023,-0.7557251908396947
1748587676.9311666,0.59765625,-0.793212890625,-0.337890625,10.740458015267176,-3.5572519083969465,-2.0076335877862594
1748587676.9411666,0.61767578125,-0.741455078125,-0.316162109375,13.83969465648855,-5.312977099236641,-2.099236641221374
1748587676.9511683,0.6279296875,-0.713623046875,-0.290771484375,17.770992366412212,-8.312977099236642,4.099236641221374
1748587676.961168,0.67041015625,-0.669189453125,-0.24658203125,14.267175572519085,-9.358778625954198,14.687022900763358
1748587676.9711676,0.663818359375,-0.66455078125,-0.2431640625,8.129770992366412,-9.740458015267176,17.35114503816794
1748587676.981179,0.64697265625,-0.659912109375,-0.24951171875,1.4732824427480915,-5.290076335877862,15.67175572519084
1748587676.991163,0.639892578125,-0.660400390625,-0.269775390625,-1.7404580152671756,-2.954198473282443,14.236641221374045
1748587677.001161,0.65869140625,-0.669921875,-0.283447265625,-3.5343511450381677,-1.1374045801526718,11.732824427480915
1748587677.011161,0.65771484375,-0.68115234375,-0.30029296875,-4.236641221374046,1.16793893129771,12.770992366412214
1748587677.021161,0.644775390625,-0.695068359375,-0.3095703125,-4.015267175572519,4.213740458015267,8.16030534351145
1748587677.031161,0.63525390625,-0.704833984375,-0.3271484375,-2.267175572519084,7.809160305343512,1.534351145038168
1748587677.0416932,0.623046875,-0.7021484375,-0.3193359375,1.2900763358778626,10.755725190839694,-7.687022900763359
1748587677.0511734,0.628173828125,-0.696533203125,-0.31640625,3.549618320610687,12.450381679389313,-11.51908396946565
1748587677.0611653,0.657958984375,-0.661865234375,-0.305908203125,3.786259541984733,14.557251908396946,-11.854961832061068
1748587677.0711696,0.670654296875,-0.632080078125,-0.306640625,2.0839694656488548,17.48854961832061,-10.045801526717558
1748587677.0815742,0.698486328125,-0.62744140625,-0.29443359375,-2.8702290076335877,13.687022900763358,-4.549618320610687
1748587677.091232,0.690673828125,-0.6279296875,-0.302001953125,-4.229007633587786,13.51908396946565,-3.1297709923664123
1748587677.101219,0.679443359375,-0.65185546875,-0.310546875,-0.5801526717557252,14.007633587786259,-4.213740458015267
1748587677.1111767,0.660888671875,-0.632568359375,-0.284912109375,-5.427480916030534,14.297709923664122,-2.0916030534351147
1748587677.1211646,0.656982421875,-0.62255859375,-0.3046875,-11.305343511450381,13.236641221374045,1.2671755725190839
1748587677.131162,0.664306640625,-0.654052734375,-0.328125,-7.419847328244275,13.13740458015267,1.6717557251908397
1748587677.141162,0.684326171875,-0.6533203125,-0.314208984375,-6.152671755725191,14.16030534351145,3.1068702290076335
1748587677.1511612,0.68701171875,-0.65185546875,-0.30712890625,-10.007633587786259,14.610687022900763,3.0839694656488548
1748587677.1611602,0.677734375,-0.65380859375,-0.33154296875,-11.770992366412214,14.51908396946565,2.404580152671756
1748587677.1711612,0.68310546875,-0.6669921875,-0.337158203125,-12.641221374045802,15.610687022900763,4.595419847328245
1748587677.1811872,0.6806640625,-0.68359375,-0.331298828125,-12.526717557251908,12.633587786259541,6.916030534351145
1748587677.1911612,0.678955078125,-0.69189453125,-0.352783203125,-12.396946564885496,12.061068702290076,6.961832061068702
1748587677.201161,0.6650390625,-0.71923828125,-0.36767578125,-11.221374045801527,12.290076335877863,4.793893129770993
1748587677.2111616,0.6669921875,-0.7265625,-0.384033203125,-8.01526717557252,12.427480916030534,2.549618320610687
1748587677.221161,0.669189453125,-0.71875,-0.36474609375,-4.67175572519084,12.854961832061068,0.44274809160305345
1748587677.2311606,0.667724609375,-0.705810546875,-0.36572265625,-2.7557251908396947,13.030534351145038,-1.4351145038167938
1748587677.2411625,0.6728515625,-0.693359375,-0.365234375,-2.404580152671756,12.961832061068701,-2.763358778625954
1748587677.2511616,0.669189453125,-0.6884765625,-0.3623046875,-2.9236641221374047,11.450381679389313,-2.3969465648854964
1748587677.2611613,0.67041015625,-0.67431640625,-0.352783203125,-3.8931297709923665,9.893129770992367,-1.1297709923664123
1748587677.2711604,0.664794921875,-0.69189453125,-0.36376953125,-4.778625954198473,8.267175572519085,-0.24427480916030533
1748587677.281161,0.65673828125,-0.693359375,-0.365234375,-5.6183206106870225,7.190839694656488,-0.1984732824427481
1748587677.291161,0.668212890625,-0.70361328125,-0.360595703125,-5.557251908396947,6.740458015267175,-0.6106870229007634
1748587677.3011608,0.673583984375,-0.711669921875,-0.390625,-4.847328244274809,6.091603053435114,-0.5267175572519084
1748587677.3111608,0.674560546875,-0.699951171875,-0.375,-4.267175572519084,5.488549618320611,-0.8931297709923665
1748587677.3211603,0.65283203125,-0.698486328125,-0.384765625,-3.198473282442748,5.32824427480916,-2.381679389312977
1748587677.3311603,0.646484375,-0.687744140625,-0.3857421875,-1.7709923664122138,4.770992366412214,-4.282442748091603
1748587677.3411605,0.6513671875,-0.67724609375,-0.3720703125,-1.1145038167938932,4.022900763358779,-4.9465648854961835
1748587677.35116,0.6640625,-0.673095703125,-0.36279296875,-1.1145038167938932,2.648854961832061,-3.931297709923664
1748587677.3611608,0.666748046875,-0.68505859375,-0.366455078125,-2.2442748091603053,1.5267175572519085,-3.33587786259542
1748587677.37116,0.65966796875,-0.686279296875,-0.38720703125,-2.7404580152671754,0.7175572519083969,-4.175572519083969
1748587677.3811607,0.66162109375,-0.688232421875,-0.379638671875,-2.1297709923664123,0.12213740458015267,-5.175572519083969
1748587677.3911602,0.670166015625,-0.68115234375,-0.373046875,-0.5419847328244275,0.0916030534351145,-5.648854961832061
1748587677.4011607,0.66357421875,-0.67333984375,-0.361083984375,0.5801526717557252,-0.015267175572519083,-6.0
1748587677.4111602,0.6630859375,-0.662109375,-0.349365234375,1.0381679389312977,0.2366412213740458,-6.259541984732825
1748587677.4211605,0.66357421875,-0.641357421875,-0.33251953125,0.3435114503816794,0.13740458015267176,-5.870229007633588
1748587677.431162,0.669189453125,-0.646484375,-0.33984375,-1.7709923664122138,0.2900763358778626,-4.083969465648855
1748587677.4411604,0.676025390625,-0.671875,-0.332275390625,-5.5038167938931295,-0.21374045801526717,-2.015267175572519
1748587677.451161,0.66748046875,-0.663818359375,-0.340087890625,-8.969465648854962,-1.1450381679389312,-0.48091603053435117
1748587677.46116,0.67138671875,-0.685546875,-0.361572265625,-9.664122137404581,-3.8244274809160306,1.4809160305343512
1748587677.4711628,0.673828125,-0.701171875,-0.362548828125,-4.984732824427481,-1.7251908396946565,2.450381679389313
1748587677.4811616,0.667724609375,-0.71240234375,-0.341552734375,-5.969465648854962,-0.4961832061068702,0.8091603053435115
1748587677.4911616,0.654296875,-0.71240234375,-0.371826171875,-6.2748091603053435,-0.366412213740458,-0.16793893129770993
1748587677.5011613,0.653076171875,-0.70556640625,-0.382568359375,-4.0,-1.3969465648854962,-0.6641221374045801
1748587677.5111601,0.636962890625,-0.7109375,-0.3876953125,-3.3587786259541983,-1.465648854961832,-1.0763358778625953
1748587677.5211604,0.64306640625,-0.70751953125,-0.375244140625,-3.1068702290076335,-3.5877862595419847,-0.061068702290076333
1748587677.5311608,0.636474609375,-0.723388671875,-0.40185546875,-0.9770992366412213,-6.091603053435114,0.5114503816793893
1748587677.5411682,0.61865234375,-0.7421875,-0.4111328125,3.6946564885496183,-9.114503816793894,-1.6793893129770991
1748587677.551172,0.6298828125,-0.75146484375,-0.411376953125,6.0458015267175576,-10.213740458015268,-1.984732824427481
1748587677.5611725,0.625244140625,-0.719970703125,-0.373291015625,12.618320610687023,-10.51908396946565,-7.679389312977099
1748587677.5711606,0.6513671875,-0.687744140625,-0.34814453125,14.49618320610687,-10.374045801526718,-10.98473282442748
1748587677.5811694,0.684814453125,-0.67236328125,-0.323974609375,15.694656488549619,-9.358778625954198,-11.732824427480915
1748587677.591167,0.68896484375,-0.66552734375,-0.311767578125,15.51908396946565,-8.007633587786259,-10.259541984732824
1748587677.6011195,0.709228515625,-0.650390625,-0.294921875,14.595419847328245,-6.809160305343512,-9.01526717557252
1748587677.61116,0.69873046875,-0.64697265625,-0.28857421875,12.488549618320612,-5.4961832061068705,-8.335877862595419
1748587677.6211603,0.707763671875,-0.63720703125,-0.26611328125,9.053435114503817,-4.801526717557252,-7.038167938931298
1748587677.631177,0.7060546875,-0.642333984375,-0.294189453125,4.9541984732824424,-4.320610687022901,-4.900763358778626
1748587677.6411633,0.7109375,-0.6435546875,-0.2861328125,1.9770992366412214,-3.6717557251908395,-2.3282442748091605
1748587677.651161,0.7080078125,-0.652587890625,-0.286865234375,0.09923664122137404,-3.3587786259541983,-0.10687022900763359
1748587677.6611629,0.7021484375,-0.658447265625,-0.295654296875,-1.1145038167938932,-2.7099236641221376,0.1450381679389313
1748587677.6711633,0.677978515625,-0.6611328125,-0.311767578125,-1.6793893129770991,-2.198473282442748,-0.916030534351145
1748587677.6811595,0.6708984375,-0.668212890625,-0.3095703125,-1.5572519083969465,-1.6870229007633588,-1.6412213740458015
1748587677.6911724,0.663330078125,-0.6689453125,-0.31298828125,-0.9083969465648855,-1.16793893129771,-2.3206106870229006
1748587677.7011604,0.66064453125,-0.6708984375,-0.322021484375,0.12213740458015267,-1.213740458015267,-2.8244274809160306
1748587677.7111628,0.6533203125,-0.665771484375,-0.30224609375,0.48091603053435117,-1.2595419847328244,-3.7709923664122136
1748587677.7211728,0.663330078125,-0.665771484375,-0.287109375,0.09923664122137404,-1.3282442748091603,-3.3053435114503817
1748587677.731162,0.669677734375,-0.68505859375,-0.280029296875,-1.3053435114503817,-1.450381679389313,-0.9389312977099237
1748587677.7411656,0.67724609375,-0.67822265625,-0.292236328125,-2.4732824427480917,-1.1068702290076335,0.5801526717557252
1748587677.751205,0.67138671875,-0.692138671875,-0.288818359375,-3.633587786259542,-0.42748091603053434,0.366412213740458
1748587677.7618883,0.6748046875,-0.693603515625,-0.292724609375,-4.931297709923665,0.5419847328244275,0.061068702290076333
1748587677.7711625,0.6865234375,-0.705322265625,-0.303466796875,-5.320610687022901,0.9083969465648855,-0.4198473282442748
1748587677.7811608,0.685791015625,-0.724365234375,-0.324462890625,-4.374045801526718,1.7709923664122138,-0.33587786259541985
1748587677.7911592,0.682861328125,-0.728271484375,-0.325927734375,-2.7557251908396947,2.122137404580153,-1.465648854961832
1748587677.8011594,0.6884765625,-0.73876953125,-0.33837890625,-0.8473282442748091,2.5267175572519083,-3.8091603053435112
1748587677.811159,0.687744140625,-0.730224609375,-0.335693359375,1.2213740458015268,2.885496183206107,-5.969465648854962
1748587677.8211596,0.69775390625,-0.7099609375,-0.330810546875,2.564885496183206,3.8091603053435112,-6.824427480916031
1748587677.8311596,0.714111328125,-0.697509765625,-0.314697265625,2.1603053435114505,4.572519083969466,-5.091603053435114
1748587677.8411593,0.7197265625,-0.696044921875,-0.30712890625,0.2900763358778626,5.374045801526718,-2.0076335877862594
1748587677.851144,0.728515625,-0.689208984375,-0.325439453125,-2.145038167938931,5.519083969465649,0.9923664122137404
1748587677.86116,0.709228515625,-0.691162109375,-0.327392578125,-4.267175572519084,6.0458015267175576,2.7404580152671754
1748587677.8711596,0.699951171875,-0.695068359375,-0.3291015625,-4.923664122137405,6.190839694656488,3.5801526717557253
1748587677.8811598,0.684814453125,-0.69970703125,-0.358154296875,-4.595419847328245,6.129770992366412,3.3435114503816794
1748587677.8911588,0.66357421875,-0.697998046875,-0.3720703125,-3.068702290076336,5.709923664122138,2.4580152671755724
1748587677.901159,0.647705078125,-0.697021484375,-0.36865234375,-1.2213740458015268,4.801526717557252,0.7709923664122137
1748587677.9111593,0.64208984375,-0.70263671875,-0.372314453125,0.6335877862595419,3.786259541984733,-0.9923664122137404
1748587677.9211595,0.655517578125,-0.681884765625,-0.360107421875,1.8549618320610688,2.8091603053435112,-1.4885496183206106
1748587677.9311588,0.6640625,-0.679931640625,-0.344970703125,1.8931297709923665,1.4427480916030535,-0.6259541984732825
1748587677.9411588,0.6708984375,-0.6728515625,-0.34521484375,1.2061068702290076,0.5877862595419847,0.8702290076335878
1748587677.951159,0.676025390625,-0.674072265625,-0.347412109375,0.7099236641221374,-0.1297709923664122,1.4351145038167938
1748587677.9611592,0.673583984375,-0.66845703125,-0.35205078125,0.40458015267175573,-0.732824427480916,0.8015267175572519
1748587677.9711597,0.6796875,-0.67138671875,-0.355224609375,0.7251908396946565,-1.0763358778625953,-0.5343511450381679
1748587677.9811592,0.67236328125,-0.679443359375,-0.350830078125,1.1068702290076335,-1.534351145038168,-0.8854961832061069
1748587677.9911597,0.669677734375,-0.6787109375,-0.33203125,1.6870229007633588,-1.6488549618320612,-0.9694656488549618
1748587678.001115,0.675048828125,-0.66357421875,-0.324462890625,1.8625954198473282,-1.5114503816793894,-1.0763358778625953
1748587678.0111592,0.671142578125,-0.6611328125,-0.315673828125,0.7404580152671756,-1.2290076335877862,-1.5572519083969465
1748587678.021161,0.684814453125,-0.658935546875,-0.310546875,-0.17557251908396945,-0.8473282442748091,-1.0
1748587678.0311592,0.674560546875,-0.658447265625,-0.301025390625,-1.7709923664122138,-0.7022900763358778,-1.8625954198473282
1748587678.0411596,0.67822265625,-0.6640625,-0.31982421875,-3.3969465648854964,-0.9618320610687023,2.053435114503817
1748587678.05116,0.669677734375,-0.680419921875,-0.319091796875,-3.7938931297709924,-0.9694656488549618,2.9618320610687023
1748587678.0611603,0.66796875,-0.702392578125,-0.327392578125,-2.7938931297709924,-0.6259541984732825,2.450381679389313
1748587678.071159,0.638916015625,-0.691650390625,-0.326904296875,-0.4198473282442748,0.11450381679389313,0.10687022900763359
1748587678.0811596,0.63525390625,-0.67431640625,-0.322021484375,1.7251908396946565,1.0076335877862594,-2.213740458015267
1748587678.0911593,0.654296875,-0.66943359375,-0.2998046875,3.114503816793893,2.450381679389313,-3.1068702290076335
1748587678.1011586,0.650390625,-0.649658203125,-0.276611328125,4.0458015267175576,4.580152671755725,-4.603053435114504
1748587678.1111588,0.652587890625,-0.644775390625,-0.241455078125,4.465648854961832,6.305343511450381,-6.206106870229007
1748587678.1211598,0.649169921875,-0.62646484375,-0.239013671875,5.152671755725191,8.86259541984733,-5.748091603053435
1748587678.1311593,0.662109375,-0.614501953125,-0.193603515625,5.557251908396947,8.419847328244275,-2.4427480916030535
1748587678.1411593,0.71728515625,-0.656005859375,-0.177001953125,12.335877862595419,4.038167938931298,-9.244274809160306
1748587678.1511161,0.69921875,-0.646728515625,-0.065185546875,13.381679389312977,10.664122137404581,-10.473282442748092
1748587678.1611593,0.656005859375,-0.610107421875,-0.05712890625,-3.0763358778625953,21.931297709923665,-10.099236641221374
1748587678.1711597,0.662109375,-0.614013671875,-0.0751953125,-10.770992366412214,28.27480916030534,-13.16793893129771
1748587678.181159,0.564697265625,-0.574951171875,-0.080322265625,-14.15267175572519,31.549618320610687,-19.709923664122137
1748587678.1911592,0.530517578125,-0.59326171875,-0.0703125,-11.992366412213741,43.89312977099237,-17.740458015267176
1748587678.2011595,0.52880859375,-0.609130859375,-0.04736328125,-12.465648854961833,52.099236641221374,-13.038167938931299
1748587678.2111592,0.517333984375,-0.593017578125,-0.090087890625,-10.572519083969466,53.89312977099237,-9.732824427480915
1748587678.2211595,0.5029296875,-0.565673828125,-0.09814453125,-1.8549618320610688,57.42748091603053,-1.4809160305343512
1748587678.2311583,0.470947265625,-0.549072265625,-0.10400390625,7.312977099236641,60.274809160305345,7.488549618320611
1748587678.2411594,0.470703125,-0.57080078125,-0.06689453125,7.67175572519084,60.091603053435115,16.427480916030536
1748587678.2511594,0.546630859375,-0.543701171875,-0.090087890625,4.709923664122138,61.25190839694657,21.251908396946565
1748587678.2611592,0.607421875,-0.540771484375,-0.0673828125,-1.1603053435114503,67.0381679389313,22.80916030534351
1748587678.2711587,0.6748046875,-0.621826171875,-0.060546875,23.267175572519083,75.00763358778626,14.473282442748092
1748587678.2811587,0.65380859375,-0.5146484375,-0.060791015625,41.43511450381679,81.61832061068702,-2.7786259541984735
1748587678.2911596,0.673095703125,-0.533203125,0.01025390625,46.89312977099237,89.91603053435115,-7.938931297709924
1748587678.3011594,0.699462890625,-0.5732421875,0.023681640625,27.801526717557252,93.14503816793894,-4.083969465648855
1748587678.3111596,0.638916015625,-0.585205078125,-0.0029296875,9.083969465648854,91.29770992366412,0.07633587786259542
1748587678.3211608,0.51513671875,-0.62109375,-0.08935546875,3.6564885496183206,81.52671755725191,6.374045801526718
1748587678.3311589,0.41650390625,-0.626708984375,-0.14111328125,7.343511450381679,73.6793893129771,1.9923664122137406
1748587678.3411605,0.456298828125,-0.66015625,-0.15576171875,15.15267175572519,67.38167938931298,-0.08396946564885496
1748587678.3511593,0.57568359375,-0.719970703125,-0.11962890625,21.770992366412212,63.74045801526717,1.702290076335878
1748587678.3611598,0.681640625,-0.699462890625,-0.083251953125,30.603053435114504,63.74809160305343,-3.854961832061069
1748587678.3711596,0.6669921875,-0.671630859375,-0.04296875,38.12213740458015,71.08396946564885,-21.572519083969464
1748587678.3811588,0.64697265625,-0.635009765625,-0.033935546875,44.93129770992366,79.52671755725191,-48.267175572519086
1748587678.3911593,0.675537109375,-0.596435546875,-0.007568359375,48.80916030534351,85.2824427480916,-72.40458015267176
1748587678.401159,0.78955078125,-0.6708984375,0.018798828125,42.465648854961835,89.34351145038168,-81.66412213740458
1748587678.4111593,0.849609375,-0.7705078125,0.000244140625,31.99236641221374,83.41984732824427,-71.72519083969466
1748587678.4211597,0.8388671875,-0.798583984375,-0.00830078125,18.84732824427481,72.58778625954199,-46.2442748091603
1748587678.4311595,0.821044921875,-0.7939453125,-0.054443359375,10.419847328244275,61.35114503816794,-23.80916030534351
1748587678.4411597,0.89013671875,-0.848876953125,-0.069091796875,9.732824427480915,54.908396946564885,-17.114503816793892
1748587678.4511607,0.985595703125,-0.99658203125,-0.002685546875,5.900763358778626,54.969465648854964,-14.702290076335878
1748587678.4611592,1.06298828125,-1.070068359375,-0.00390625,8.610687022900763,62.93129770992366,-14.465648854961833
1748587678.4711597,1.039306640625,-1.009765625,0.014404296875,11.801526717557252,66.22137404580153,-15.679389312977099
1748587678.4811597,0.990478515625,-0.908935546875,0.011474609375,19.16030534351145,65.25954198473282,-21.916030534351144
1748587678.491159,1.013671875,-0.929931640625,0.020263671875,18.82442748091603,61.58015267175573,-22.633587786259543
1748587678.501159,1.074951171875,-1.017822265625,-0.005615234375,10.038167938931299,55.93129770992366,-23.862595419847327
1748587678.5111597,1.095947265625,-1.10546875,-0.01318359375,-1.6564885496183206,46.57251908396947,-35.30534351145038
1748587678.5211592,1.090576171875,-1.100830078125,0.006103515625,-7.099236641221374,43.16793893129771,-34.49618320610687
1748587678.5311592,1.098388671875,-1.037841796875,-0.021484375,-3.198473282442748,37.52671755725191,-12.099236641221374
1748587678.5411594,1.16259765625,-0.9794921875,0.003662109375,9.49618320610687,34.274809160305345,12.885496183206106
1748587678.5511587,1.269775390625,-0.958251953125,0.033935546875,25.045801526717558,36.98473282442748,30.106870229007633
1748587678.5611594,1.331787109375,-0.9873046875,0.049560546875,38.47328244274809,48.29770992366412,21.709923664122137
1748587678.571159,1.341552734375,-1.017333984375,0.06884765625,50.80916030534351,70.58015267175573,7.526717557251908
1748587678.5811155,1.23681640625,-0.89404296875,0.08251953125,70.99236641221374,84.64885496183206,-10.083969465648854
1748587678.591159,1.046630859375,-0.781005859375,0.166015625,117.78625954198473,87.09160305343511,-16.47328244274809
1748587678.6011598,1.05517578125,-0.67724609375,0.0869140625,127.02290076335878,85.97709923664122,-7.473282442748092
1748587678.6111596,0.913330078125,-0.503662109375,0.14013671875,107.99236641221374,73.07633587786259,15.145038167938932
1748587678.62116,0.8779296875,-0.452392578125,0.1748046875,68.3969465648855,62.52671755725191,30.114503816793892
1748587678.631159,0.892578125,-0.41162109375,0.24755859375,46.13740458015267,50.0763358778626,22.778625954198475
1748587678.6411598,0.82421875,-0.329833984375,0.124267578125,11.725190839694656,52.099236641221374,12.625954198473282
1748587678.651159,0.87646484375,-0.4248046875,0.148193359375,-9.549618320610687,34.12213740458015,13.603053435114504
1748587678.6611588,0.74072265625,-0.4501953125,0.0634765625,-20.076335877862597,28.282442748091604,30.96946564885496
1748587678.6711588,0.800537109375,-0.436767578125,0.1005859375,-26.587786259541986,15.282442748091603,46.19083969465649
1748587678.681159,0.92578125,-0.5302734375,0.107177734375,-26.198473282442748,7.862595419847328,48.74809160305343
1748587678.6911592,0.79638671875,-0.51513671875,0.169677734375,-53.38931297709924,7.442748091603053,29.786259541984734
1748587678.7011597,0.836669921875,-0.516845703125,0.125732421875,-62.54961832061068,9.664122137404581,20.450381679389313
1748587678.7111595,0.8291015625,-0.517578125,0.08642578125,-49.12977099236641,9.572519083969466,24.419847328244273
1748587678.7211597,0.77001953125,-0.471435546875,0.101806640625,-38.099236641221374,4.687022900763359,25.80916030534351
1748587678.7311585,0.666015625,-0.465576171875,0.109375,-49.74809160305343,1.7099236641221374,12.961832061068701
1748587678.741159,0.635986328125,-0.528076171875,0.098388671875,-72.16793893129771,-0.24427480916030533,-0.8549618320610687
1748587678.7511606,0.69580078125,-0.601806640625,0.03515625,-70.80152671755725,-3.2213740458015265,-2.687022900763359
1748587678.7611594,0.7177734375,-0.5986328125,0.017333984375,-53.2442748091603,-5.931297709923665,6.33587786259542
1748587678.7711596,0.7333984375,-0.5634765625,0.02392578125,-38.19847328244275,-5.595419847328245,14.358778625954198
1748587678.781159,0.8583984375,-0.645263671875,0.011962890625,-3.2061068702290076,-6.66412213740458,12.351145038167939
1748587678.7911596,0.828125,-0.618896484375,0.100830078125,5.824427480916031,-1.3740458015267176,0.2366412213740458
1748587678.8011587,0.7509765625,-0.603515625,0.1953125,-13.50381679389313,-2.282442748091603,-5.885496183206107
1748587678.8111591,0.6513671875,-0.617919921875,0.15673828125,-43.41984732824427,-8.885496183206106,2.3969465648854964
1748587678.821159,0.605712890625,-0.574951171875,0.084716796875,-68.10687022900764,-17.12213740458015,14.877862595419847
1748587678.8311589,0.71875,-0.57763671875,0.094970703125,-69.61832061068702,-20.0,26.053435114503817
1748587678.8411615,0.901123046875,-0.615966796875,0.1240234375,-61.0,-17.053435114503817,31.03053435114504
