Time,AccX,AccY,AccZ,GyroX,GyroY,GyroZ
2.6226043701171875e-06,0.02294921875,-1.0,0.27294921875,-0.6717557251908397,-0.1984732824427481,-1.0763358778625953
0.01005864143371582,0.02734375,-0.99072265625,0.281005859375,-0.6641221374045801,0.1984732824427481,-1.083969465648855
0.020057201385498047,0.0205078125,-0.99169921875,0.270263671875,-1.0305343511450382,-0.08396946564885496,-1.1984732824427482
0.030058860778808594,0.0205078125,-0.989013671875,0.280517578125,-1.3053435114503817,-0.04580152671755725,-1.1908396946564885
0.04005622863769531,0.021240234375,-0.984375,0.278076171875,-1.1374045801526718,-0.04580152671755725,-0.9618320610687023
0.05005502700805664,0.027099609375,-0.99365234375,0.266845703125,-1.4198473282442747,-0.26717557251908397,-1.1374045801526718
0.06005549430847168,0.025390625,-0.98486328125,0.268310546875,-0.9923664122137404,0.08396946564885496,-1.2442748091603053
0.07005572319030762,0.021240234375,-0.988037109375,0.271240234375,-1.0610687022900764,-0.26717557251908397,-1.183206106870229
0.08005642890930176,0.027099609375,-0.989013671875,0.27587890625,-0.9770992366412213,-0.1984732824427481,-1.2900763358778626
0.09005522727966309,0.02734375,-0.996826171875,0.2734375,-0.8778625954198473,0.09923664122137404,-1.0610687022900764
0.10005593299865723,0.021484375,-0.99609375,0.27001953125,-1.0534351145038168,-1.9465648854961832,-0.9923664122137404
0.11005496978759766,0.023681640625,-0.98876953125,0.27099609375,-0.8854961832061069,0.03816793893129771,-0.9847328244274809
0.1200554370880127,0.02490234375,-0.988525390625,0.276611328125,-0.8854961832061069,0.0,-1.015267175572519
0.13005781173706055,0.020263671875,-0.988525390625,0.278076171875,-1.0610687022900764,-0.061068702290076333,-1.2366412213740459
0.1400589942932129,0.025390625,-0.987060546875,0.275146484375,-0.648854961832061,-0.16793893129770993,-1.0916030534351144
0.15005779266357422,0.0244140625,-0.986328125,0.281005859375,-0.8473282442748091,-0.06870229007633588,-1.2900763358778626
0.16005873680114746,0.021728515625,-0.99169921875,0.28564453125,-1.0458015267175573,-0.1450381679389313,-1.1450381679389312
0.1700575351715088,0.02197265625,-0.985595703125,0.27880859375,-1.2595419847328244,0.08396946564885496,-1.0610687022900764
0.18005776405334473,0.01953125,-0.99072265625,0.275390625,-1.083969465648855,-0.061068702290076333,-0.8015267175572519
0.19005823135375977,0.018310546875,-0.99072265625,0.275634765625,-1.0305343511450382,-0.19083969465648856,-1.1526717557251909
0.2000575065612793,0.0244140625,-0.98779296875,0.28662109375,-0.9007633587786259,0.0,-1.1297709923664123
0.21005749702453613,0.017822265625,-0.99072265625,0.275390625,-0.9236641221374046,-0.1450381679389313,-1.1450381679389312
0.22005820274353027,0.0283203125,-0.9921875,0.28076171875,-0.9541984732824428,-1.900763358778626,-1.0763358778625953
0.2300586700439453,0.02392578125,-0.983154296875,0.27685546875,-1.1450381679389312,-0.24427480916030533,-1.1984732824427482
0.24005913734436035,0.0283203125,-0.98681640625,0.2783203125,-1.2290076335877862,0.022900763358778626,-0.9694656488549618
0.250058650970459,0.0234375,-0.98876953125,0.28662109375,-1.16793893129771,1.9465648854961832,-1.0
0.26006007194519043,0.015869140625,-0.987548828125,0.269287109375,-1.0458015267175573,-1.9541984732824427,-1.0687022900763359
0.27005839347839355,0.0224609375,-0.985595703125,0.26953125,-0.7251908396946565,-0.2900763358778626,-1.0687022900763359
0.2800588607788086,0.01953125,-0.99072265625,0.253173828125,-0.7709923664122137,-0.16793893129770993,-1.0687022900763359
0.290057897567749,0.02685546875,-0.98828125,0.271728515625,-0.8015267175572519,-0.32061068702290074,-1.015267175572519
0.30005860328674316,0.0224609375,-0.9912109375,0.279541015625,-0.7633587786259542,-0.13740458015267176,-1.0229007633587786
0.3100581169128418,0.01953125,-0.98779296875,0.269287109375,-0.9312977099236641,1.9083969465648856,-1.0381679389312977
0.32005929946899414,0.024658203125,-0.98974609375,0.2783203125,-1.0076335877862594,0.04580152671755725,-1.2213740458015268
0.33005833625793457,0.025390625,-0.983154296875,0.2646484375,-1.0305343511450382,0.03816793893129771,-1.2366412213740459
0.3400588035583496,0.02001953125,-0.98974609375,0.26513671875,-0.9007633587786259,0.030534351145038167,-1.1755725190839694
0.35005760192871094,0.006103515625,-0.995849609375,0.276611328125,-1.0763358778625953,-0.12213740458015267,-1.0458015267175573
0.3600585460662842,0.02734375,-0.990478515625,0.27978515625,-1.0763358778625953,-0.2748091603053435,-1.0458015267175573
0.3700575828552246,0.021240234375,-0.999755859375,0.27685546875,-0.7251908396946565,-0.15267175572519084,-1.0
0.38005948066711426,0.02734375,-0.98193359375,0.279541015625,-0.8702290076335878,-0.015267175572519083,-1.1526717557251909
0.3900585174560547,0.0234375,-0.986083984375,0.26953125,-0.7480916030534351,0.11450381679389313,-0.9465648854961832
0.4000585079193115,0.024658203125,-0.991455078125,0.282958984375,-0.9770992366412213,0.03816793893129771,-1.1526717557251909
0.41005849838256836,0.029052734375,-0.98681640625,0.27783203125,-1.16793893129771,1.9465648854961832,-1.0076335877862594
0.4200582504272461,0.0244140625,-0.991455078125,0.268310546875,-1.1603053435114503,-0.10687022900763359,-1.099236641221374
0.4300563335418701,0.02490234375,-0.998779296875,0.27197265625,-1.0610687022900764,-0.1450381679389313,-1.1450381679389312
0.44005703926086426,0.025390625,-0.989501953125,0.271484375,-1.1526717557251909,-0.183206106870229,-1.1526717557251909
0.4500565528869629,0.0224609375,-0.98681640625,0.276611328125,-0.7557251908396947,-1.9541984732824427,-1.083969465648855
0.4600563049316406,0.0244140625,-0.998779296875,0.275634765625,-0.9847328244274809,-0.08396946564885496,-1.0305343511450382
0.47005677223205566,0.023193359375,-0.991455078125,0.27783203125,-1.0229007633587786,-0.10687022900763359,-1.1603053435114503
0.4800529479980469,0.029052734375,-0.989990234375,0.2783203125,-1.083969465648855,1.9236641221374047,-1.1755725190839694
0.49005627632141113,0.0224609375,-0.989013671875,0.278076171875,-1.4427480916030535,-0.08396946564885496,-0.9694656488549618
0.5000574588775635,0.0234375,-0.9892578125,0.2705078125,-0.9389312977099237,-0.21374045801526717,-1.0916030534351144
0.510056734085083,0.021484375,-1.0,0.272216796875,-0.7404580152671756,-1.9465648854961832,-0.9770992366412213
0.5200567245483398,0.0244140625,-0.98974609375,0.27490234375,-0.7404580152671756,-0.04580152671755725,-1.083969465648855
0.5300562381744385,0.025634765625,-0.991943359375,0.26611328125,-0.8778625954198473,-0.04580152671755725,-1.083969465648855
0.5400571823120117,0.029052734375,-0.995361328125,0.276123046875,-1.1145038167938932,1.900763358778626,-1.0610687022900764
0.5500578880310059,0.024169921875,-0.99365234375,0.287353515625,-1.1221374045801527,0.04580152671755725,-1.0305343511450382
0.5600569248199463,0.02490234375,-0.989013671875,0.275634765625,-1.2442748091603053,0.03816793893129771,-0.9618320610687023
0.570056676864624,0.018798828125,-0.9892578125,0.273681640625,-0.6183206106870229,0.04580152671755725,-1.213740458015267
0.5800566673278809,0.026123046875,-0.987548828125,0.269775390625,-0.7786259541984732,-0.08396946564885496,-1.0229007633587786
0.5900559425354004,0.0302734375,-0.991455078125,0.27783203125,-0.9694656488549618,-0.0916030534351145,-1.1526717557251909
0.6000571250915527,0.02783203125,-0.98974609375,0.287841796875,-0.7862595419847328,0.061068702290076333,-1.0458015267175573
0.6100561618804932,0.025146484375,-0.990478515625,0.295654296875,-0.9389312977099237,-0.06870229007633588,-1.213740458015267
0.6200556755065918,0.013916015625,-0.98583984375,0.279541015625,-1.1603053435114503,1.8854961832061068,-1.1908396946564885
0.6300561428070068,0.028076171875,-0.9833984375,0.273193359375,-1.3511450381679388,-0.12213740458015267,-1.2671755725190839
0.6400570869445801,0.020263671875,-0.99267578125,0.2705078125,-0.9389312977099237,-0.20610687022900764,-1.099236641221374
0.6500568389892578,0.021484375,-0.989501953125,0.26953125,-0.7862595419847328,-0.11450381679389313,-1.1068702290076335
0.6600568294525146,0.028564453125,-0.990478515625,0.278076171875,-0.6793893129770993,1.900763358778626,-1.0229007633587786
0.6700565814971924,0.024658203125,-0.985595703125,0.27685546875,-0.9694656488549618,-0.09923664122137404,-1.1755725190839694
0.6800580024719238,0.017578125,-0.99169921875,0.269775390625,-0.9541984732824428,0.0916030534351145,-0.9847328244274809
0.690056562423706,0.026123046875,-0.988525390625,0.27490234375,-1.1297709923664123,-0.1984732824427481,-0.9923664122137404
0.700056791305542,0.019775390625,-0.991455078125,0.273193359375,-1.2442748091603053,-0.061068702290076333,-0.8702290076335878
0.7100555896759033,0.024169921875,-0.99609375,0.2724609375,-1.4045801526717556,-1.083969465648855,-1.0534351145038168
0.7200570106506348,0.03076171875,-0.97607421875,0.273681640625,-0.7404580152671756,-0.1984732824427481,-1.015267175572519
0.7300570011138916,0.015869140625,-0.987060546875,0.27685546875,-0.6870229007633588,-0.7862595419847328,-1.0534351145038168
0.7400586605072021,0.0244140625,-0.986083984375,0.266845703125,-0.5801526717557252,-0.10687022900763359,-0.9847328244274809
0.750056266784668,0.017333984375,-0.986572265625,0.282470703125,-0.6030534351145038,0.1297709923664122,-1.1221374045801527
0.7600572109222412,0.02294921875,-0.990966796875,0.2841796875,-1.1603053435114503,0.2748091603053435,-1.0229007633587786
0.7700564861297607,0.024169921875,-0.989013671875,0.26708984375,-1.1603053435114503,-0.11450381679389313,-1.0763358778625953
0.7800569534301758,0.024658203125,-0.98681640625,0.26904296875,-1.2900763358778626,-0.007633587786259542,-1.2748091603053435
0.7900557518005371,0.026611328125,-0.9921875,0.277587890625,-1.5267175572519085,-0.07633587786259542,-1.0458015267175573
0.8000571727752686,0.02490234375,-0.986328125,0.271484375,-0.8091603053435115,-0.19083969465648856,-1.2366412213740459
0.8100495338439941,0.021484375,-0.987060546875,0.285400390625,-0.6946564885496184,-0.16030534351145037,-1.0763358778625953
0.8200569152832031,0.02880859375,-0.987060546875,0.27490234375,-1.1603053435114503,-0.022900763358778626,-1.1221374045801527
0.8300566673278809,0.02099609375,-0.986572265625,0.284912109375,-0.9236641221374046,1.9312977099236641,-1.1984732824427482
0.8400571346282959,0.01611328125,-0.988037109375,0.274169921875,-0.8702290076335878,1.9389312977099236,-1.0458015267175573
0.8500556945800781,0.02734375,-0.9912109375,0.274169921875,-1.3587786259541985,-0.2748091603053435,-1.2748091603053435
0.8600571155548096,0.0283203125,-0.98583984375,0.268798828125,-1.213740458015267,-0.10687022900763359,-0.9923664122137404
0.87005615234375,0.02197265625,-0.98974609375,0.278564453125,-0.6564885496183206,1.8625954198473282,-0.9541984732824428
0.8800563812255859,0.02099609375,-0.988037109375,0.268310546875,-0.8931297709923665,-0.22900763358778625,-0.9847328244274809
0.8900566101074219,0.022216796875,-0.98779296875,0.271728515625,-0.8396946564885496,-1.9465648854961832,-1.099236641221374
0.900057315826416,0.01953125,-0.987548828125,0.27978515625,-0.6641221374045801,-0.0916030534351145,-1.0458015267175573
0.9100565910339355,0.022705078125,-0.992919921875,0.276611328125,-0.816793893129771,0.022900763358778626,-1.1068702290076335
0.9200568199157715,0.02197265625,-0.9892578125,0.27978515625,-1.2061068702290076,-0.061068702290076333,-1.0610687022900764
0.9300563335418701,0.023193359375,-0.991943359375,0.27197265625,-1.3358778625954197,-0.08396946564885496,-1.1526717557251909
0.9400577545166016,0.025146484375,-0.992919921875,0.279296875,-1.297709923664122,-0.10687022900763359,-1.1068702290076335
0.950056791305542,0.0224609375,-0.988525390625,0.2724609375,-0.9465648854961832,-1.9465648854961832,-1.2061068702290076
0.9600582122802734,0.019287109375,-0.990966796875,0.2724609375,-0.9923664122137404,1.9236641221374047,-1.1908396946564885
0.9700565338134766,0.020751953125,-0.9912109375,0.270751953125,-0.7022900763358778,-0.05343511450381679,-1.0305343511450382
0.9800565242767334,0.023681640625,-0.986328125,0.27783203125,-0.7557251908396947,-0.015267175572519083,-1.0610687022900764
0.990056037902832,0.025634765625,-0.98876953125,0.2783203125,-1.0534351145038168,0.10687022900763359,-1.2290076335877862
1.0000572204589844,0.020263671875,-0.98681640625,0.279541015625,-0.9694656488549618,-0.22137404580152673,-1.1068702290076335
1.0100572109222412,0.024658203125,-0.986328125,0.280029296875,-0.9465648854961832,0.1450381679389313,-1.0534351145038168
1.0200591087341309,0.020263671875,-0.989990234375,0.27880859375,-0.9923664122137404,0.11450381679389313,-1.0610687022900764
1.0300579071044922,0.016357421875,-0.9892578125,0.27685546875,-0.9312977099236641,-0.061068702290076333,-0.9847328244274809
1.0400571823120117,0.025634765625,-0.990966796875,0.274169921875,-0.8396946564885496,-0.12213740458015267,-1.0076335877862594
1.0500564575195312,0.02099609375,-0.988525390625,0.272216796875,-0.9236641221374046,1.9083969465648856,-1.1984732824427482
1.0600571632385254,0.026123046875,-0.987548828125,0.280029296875,-1.0229007633587786,1.900763358778626,-1.1908396946564885
1.070056438446045,0.02490234375,-0.987548828125,0.27197265625,-1.2290076335877862,-0.061068702290076333,-1.0687022900763359
1.08005690574646,0.018798828125,-0.992919921875,0.274658203125,-1.1603053435114503,0.04580152671755725,-1.1145038167938932
1.0900533199310303,0.014892578125,-0.992431640625,0.26318359375,-1.099236641221374,-0.24427480916030533,-1.2213740458015268
1.1000597476959229,0.01953125,-0.99072265625,0.270263671875,-1.1068702290076335,-0.015267175572519083,-1.099236641221374
1.1100592613220215,0.025146484375,-0.988525390625,0.273193359375,-0.7862595419847328,-1.9541984732824427,-1.1297709923664123
1.1200590133666992,0.0048828125,-0.9873046875,0.275634765625,-0.8625954198473282,-0.030534351145038167,-1.2671755725190839
1.130068063735962,0.026123046875,-0.9765625,0.274169921875,-0.6717557251908397,-0.1297709923664122,-1.0763358778625953
1.140058994293213,0.026611328125,-0.9892578125,0.26611328125,-0.8625954198473282,0.06870229007633588,-1.2366412213740459
1.1500587463378906,0.033447265625,-0.9794921875,0.27734375,-1.1603053435114503,0.16030534351145037,-1.1984732824427482
1.1600596904754639,0.020751953125,-0.98779296875,0.2744140625,-1.0458015267175573,0.015267175572519083,-1.0
1.170058250427246,0.022216796875,-0.984375,0.270751953125,-1.0610687022900764,1.8396946564885497,-1.16793893129771
1.1800591945648193,0.018798828125,-0.985107421875,0.267333984375,-1.0076335877862594,-0.24427480916030533,-0.9007633587786259
1.1900577545166016,0.0205078125,-0.99267578125,0.267578125,-0.7175572519083969,-0.22137404580152673,-1.0305343511450382
1.200058937072754,0.02001953125,-0.9912109375,0.276611328125,-0.8625954198473282,-0.19083969465648856,-1.1908396946564885
1.2100582122802734,0.0224609375,-0.989990234375,0.27490234375,-0.9007633587786259,-1.9541984732824427,-0.8702290076335878
1.2200593948364258,0.02001953125,-0.987060546875,0.278076171875,-0.9847328244274809,0.04580152671755725,-1.0916030534351144
1.2300631999969482,0.019775390625,-0.986328125,0.279541015625,-1.1450381679389312,-0.07633587786259542,-1.099236641221374
1.2400593757629395,0.02197265625,-0.990478515625,0.275634765625,-1.16793893129771,-0.21374045801526717,-1.1068702290076335
1.2500579357147217,0.023193359375,-0.989501953125,0.27490234375,-1.1068702290076335,-0.15267175572519084,-1.1068702290076335
1.2600581645965576,0.02099609375,-0.99072265625,0.275146484375,-1.1068702290076335,-0.25190839694656486,-1.1297709923664123
1.2700588703155518,0.018310546875,-0.98876953125,0.267822265625,-1.0534351145038168,-0.12213740458015267,-1.0763358778625953
1.280057668685913,0.017578125,-0.97216796875,0.27685546875,-0.8931297709923665,0.061068702290076333,-1.0687022900763359
1.290057897567749,0.0244140625,-0.989013671875,0.29296875,-0.732824427480916,-0.030534351145038167,-1.0534351145038168
1.300058126449585,0.0234375,-0.98583984375,0.27880859375,-1.0458015267175573,0.030534351145038167,-0.9847328244274809
1.3100600242614746,0.0205078125,-0.994873046875,0.275390625,-1.1297709923664123,0.19083969465648856,-1.015267175572519
1.3200581073760986,0.019775390625,-0.984130859375,0.268310546875,-1.2213740458015268,-0.366412213740458,-1.1984732824427482
1.3300633430480957,0.02099609375,-0.990966796875,0.27490234375,-1.1984732824427482,-0.1297709923664122,-0.9541984732824428
1.3400592803955078,0.025390625,-0.9921875,0.276611328125,-1.0229007633587786,-0.20610687022900764,-0.9847328244274809
1.35005784034729,0.0234375,-0.9892578125,0.27880859375,-0.916030534351145,-0.183206106870229,-1.099236641221374
1.3600594997406006,0.027099609375,-0.989990234375,0.27734375,-0.7557251908396947,0.07633587786259542,-0.9694656488549618
1.3700587749481201,0.025634765625,-0.999267578125,0.27490234375,-1.1145038167938932,-0.183206106870229,-1.1145038167938932
1.3800592422485352,0.02294921875,-0.991455078125,0.291748046875,-1.213740458015267,1.9389312977099236,-1.213740458015267
1.3900582790374756,0.02099609375,-0.992919921875,0.25244140625,-1.1297709923664123,0.06870229007633588,-0.9541984732824428
1.400059700012207,0.023681640625,-0.9873046875,0.268310546875,-1.015267175572519,-0.16793893129770993,-0.9618320610687023
1.4100584983825684,0.02685546875,-0.990966796875,0.274658203125,-0.9236641221374046,-0.21374045801526717,-1.183206106870229
1.4200592041015625,0.024658203125,-0.992919921875,0.27490234375,-0.7938931297709924,-0.11450381679389313,-1.297709923664122
1.4300634860992432,0.0224609375,-0.991455078125,0.28076171875,-0.9007633587786259,0.015267175572519083,-1.1145038167938932
1.4400622844696045,0.01708984375,-0.991943359375,0.272705078125,-1.0381679389312977,0.03816793893129771,-0.9465648854961832
1.4500584602355957,0.024658203125,-0.985107421875,0.272705078125,-1.2061068702290076,0.1297709923664122,-1.16793893129771
1.4600586891174316,0.02099609375,-0.98681640625,0.2685546875,-0.9465648854961832,-0.061068702290076333,-0.9618320610687023
1.4700579643249512,0.01953125,-0.99072265625,0.271484375,-1.083969465648855,-0.015267175572519083,-1.0687022900763359
1.4800591468811035,0.025390625,-0.990478515625,0.2734375,-0.916030534351145,-0.04580152671755725,-1.083969465648855
1.4900588989257812,0.0205078125,-0.988037109375,0.272216796875,-0.8702290076335878,-0.12213740458015267,-1.0610687022900764
1.5000593662261963,0.02099609375,-0.98828125,0.27734375,-0.9694656488549618,-0.15267175572519084,-0.8931297709923665
1.5100622177124023,0.028564453125,-0.992919921875,0.270751953125,-0.9465648854961832,-1.9541984732824427,-0.9923664122137404
1.5200605392456055,0.0224609375,-0.990966796875,0.276123046875,-0.9312977099236641,-0.13740458015267176,-1.2290076335877862
1.530064582824707,0.02001953125,-0.98486328125,0.277099609375,-1.183206106870229,-0.022900763358778626,-1.1526717557251909
1.5400583744049072,0.023193359375,-0.988525390625,0.268310546875,-1.16793893129771,0.22137404580152673,-1.1221374045801527
1.550058126449585,0.018310546875,-0.988037109375,0.271240234375,-1.2900763358778626,-0.25190839694656486,-1.1068702290076335
1.5600593090057373,0.019775390625,-0.974609375,0.2744140625,-0.7938931297709924,-0.11450381679389313,-1.1068702290076335
1.5700578689575195,0.0205078125,-0.988037109375,0.27783203125,-0.8778625954198473,0.03816793893129771,-1.2595419847328244
1.5800583362579346,0.024169921875,-0.985107421875,0.2734375,-0.7938931297709924,0.22137404580152673,-1.1068702290076335
1.5900583267211914,0.023193359375,-0.988525390625,0.281982421875,-1.015267175572519,0.16030534351145037,-1.0381679389312977
1.6000587940216064,0.023193359375,-0.98388671875,0.27197265625,-1.0687022900763359,-0.030534351145038167,-1.1297709923664123
1.6100578308105469,0.026123046875,-0.988037109375,0.277099609375,-1.1374045801526718,1.9389312977099236,-1.0229007633587786
1.6200594902038574,0.017822265625,-0.992919921875,0.2724609375,-1.1755725190839694,-0.05343511450381679,-1.0763358778625953
1.630063772201538,0.02490234375,-0.990966796875,0.2802734375,-0.9847328244274809,-0.2824427480916031,-1.1374045801526718
1.6400582790374756,0.022216796875,-0.989013671875,0.272705078125,-1.0534351145038168,0.10687022900763359,-1.1068702290076335
1.6500587463378906,0.014404296875,-0.989013671875,0.275634765625,-0.916030534351145,-0.1450381679389313,-1.1526717557251909
1.6600587368011475,0.02392578125,-0.988525390625,0.28076171875,-0.9770992366412213,-0.10687022900763359,-0.9694656488549618
1.6700575351715088,0.029541015625,-0.98486328125,0.271240234375,-0.9236641221374046,0.007633587786259542,-1.083969465648855
1.6800596714019775,0.0166015625,-0.987548828125,0.27392578125,-1.0076335877862594,-0.08396946564885496,-1.2442748091603053
1.6900579929351807,0.016357421875,-0.99169921875,0.26953125,-1.2900763358778626,0.22900763358778625,-1.2671755725190839
1.700059175491333,0.0244140625,-0.9853515625,0.267333984375,-1.083969465648855,1.8931297709923665,-1.16793893129771
1.7100579738616943,0.0205078125,-0.99365234375,0.27099609375,-1.1374045801526718,-0.030534351145038167,-1.1450381679389312
1.7200589179992676,0.021484375,-0.990478515625,0.266357421875,-0.8549618320610687,-0.12213740458015267,-1.0229007633587786
1.7300660610198975,0.0244140625,-0.990478515625,0.27587890625,-0.9923664122137404,1.9083969465648856,-1.083969465648855
1.7400586605072021,0.02392578125,-0.988037109375,0.2783203125,-0.9389312977099237,0.022900763358778626,-1.1603053435114503
1.7500591278076172,0.02587890625,-0.985595703125,0.2744140625,-0.8320610687022901,0.015267175572519083,-1.16793893129771
1.7600603103637695,0.021728515625,-0.989990234375,0.280029296875,-0.8778625954198473,-0.061068702290076333,-1.1450381679389312
1.7700583934783936,0.024169921875,-0.98828125,0.27294921875,-0.9236641221374046,-0.03816793893129771,-0.9007633587786259
1.7800588607788086,0.02587890625,-0.984130859375,0.27734375,-1.1068702290076335,-0.13740458015267176,-1.1221374045801527
1.7900586128234863,0.027099609375,-0.990234375,0.277099609375,-0.9770992366412213,-0.10687022900763359,-0.9694656488549618
1.8000588417053223,0.022705078125,-0.98046875,0.279541015625,-0.8931297709923665,1.916030534351145,-1.1297709923664123
1.8100578784942627,0.0234375,-0.988525390625,0.28271484375,-0.9923664122137404,-0.11450381679389313,-1.0534351145038168
1.8200592994689941,0.021240234375,-0.989013671875,0.278076171875,-0.9770992366412213,-0.13740458015267176,-1.0458015267175573
1.8300633430480957,0.02734375,-0.984130859375,0.270751953125,-0.916030534351145,-0.12213740458015267,-1.1984732824427482
1.840059757232666,0.021484375,-0.9912109375,0.283935546875,-0.7480916030534351,-1.9389312977099236,-1.183206106870229
1.8500580787658691,0.025146484375,-0.9921875,0.273193359375,-0.9694656488549618,-0.022900763358778626,-0.7251908396946565
1.8600594997406006,0.023681640625,-0.99462890625,0.280029296875,-0.9007633587786259,-1.8931297709923665,-1.1297709923664123
1.8700573444366455,0.023193359375,-0.987060546875,0.277587890625,-1.0381679389312977,-0.07633587786259542,-0.9847328244274809
1.8800594806671143,0.0224609375,-0.9921875,0.27880859375,-0.8244274809160306,0.183206106870229,-1.0305343511450382
1.8900580406188965,0.0234375,-0.985107421875,0.27197265625,-1.0,-0.12213740458015267,-0.9465648854961832
1.9000585079193115,0.027587890625,-0.988037109375,0.27587890625,-1.16793893129771,-0.08396946564885496,-1.083969465648855
1.9100587368011475,0.018310546875,-0.984130859375,0.275146484375,-1.1908396946564885,-0.1297709923664122,-1.282442748091603
1.9200587272644043,0.020263671875,-0.986328125,0.27294921875,-1.1068702290076335,-0.16793893129770993,-1.2213740458015268
1.9300644397735596,0.0224609375,-0.98876953125,0.280029296875,-1.0687022900763359,-0.15267175572519084,-1.2595419847328244
1.9400620460510254,0.016845703125,-0.991943359375,0.2861328125,-1.0076335877862594,-0.21374045801526717,-1.1145038167938932
1.9500582218170166,0.023193359375,-0.986572265625,0.275634765625,-1.0458015267175573,0.015267175572519083,-1.1374045801526718
1.9600574970245361,0.024169921875,-0.98876953125,0.271728515625,-1.0229007633587786,0.13740458015267176,-0.9083969465648855
1.9700582027435303,0.023681640625,-0.990966796875,0.274169921875,-0.8625954198473282,-0.061068702290076333,-1.1450381679389312
1.9800596237182617,0.023681640625,-0.98583984375,0.276611328125,-0.9847328244274809,1.8854961832061068,-1.1221374045801527
1.9900588989257812,0.024658203125,-0.992919921875,0.27587890625,-0.8854961832061069,-0.015267175572519083,-1.1984732824427482
2.000060796737671,0.02001953125,-0.98828125,0.2783203125,-0.8854961832061069,-0.15267175572519084,-1.1755725190839694
2.0100605487823486,0.024169921875,-0.9873046875,0.27880859375,-0.9312977099236641,-0.06870229007633588,-1.1068702290076335
2.0200588703155518,0.020263671875,-0.979248046875,0.270263671875,-1.0534351145038168,-0.030534351145038167,-1.0534351145038168
2.0300583839416504,0.0244140625,-0.99462890625,0.278076171875,-1.0458015267175573,-0.06870229007633588,-1.0687022900763359
2.040032386779785,0.02197265625,-0.991455078125,0.280029296875,-0.9618320610687023,-0.17557251908396945,-1.0687022900763359
2.0500564575195312,0.025390625,-0.988037109375,0.269775390625,-1.1374045801526718,-0.1297709923664122,-1.1068702290076335
2.0600571632385254,0.0205078125,-0.986328125,0.271484375,-0.9389312977099237,-0.1297709923664122,-1.1450381679389312
2.070056200027466,0.0244140625,-1.0,0.274169921875,-0.9312977099236641,-0.15267175572519084,-1.183206106870229
2.080057144165039,0.020263671875,-0.988525390625,0.266357421875,-1.0305343511450382,0.25190839694656486,-1.0458015267175573
2.0900561809539795,0.0244140625,-0.987060546875,0.275634765625,-0.9923664122137404,-0.1297709923664122,-1.0763358778625953
2.1000566482543945,0.020263671875,-0.991943359375,0.27001953125,-0.9083969465648855,-0.1450381679389313,-1.0
2.110058546066284,0.018310546875,-0.98486328125,0.27099609375,-1.1984732824427482,0.15267175572519084,-1.0305343511450382
2.12005615234375,0.02294921875,-0.982421875,0.2734375,-0.7709923664122137,-0.022900763358778626,-1.1068702290076335
2.130056619644165,0.019287109375,-0.999755859375,0.2841796875,-0.9923664122137404,0.06870229007633588,-0.9923664122137404
2.140056610107422,0.01806640625,-0.99462890625,0.274169921875,-0.8091603053435115,-0.08396946564885496,-1.0458015267175573
2.1500563621520996,0.023193359375,-0.9892578125,0.27001953125,-0.8854961832061069,-0.07633587786259542,-1.1297709923664123
2.1600568294525146,0.0234375,-0.991455078125,0.271240234375,-0.7404580152671756,-0.08396946564885496,-1.2061068702290076
2.1700568199157715,0.021240234375,-0.988525390625,0.26806640625,-1.16793893129771,0.19083969465648856,-1.0305343511450382
2.1800568103790283,0.0263671875,-0.984619140625,0.271728515625,-1.0534351145038168,0.03816793893129771,-0.9770992366412213
2.190056085586548,0.019287109375,-0.988525390625,0.279541015625,-1.099236641221374,-0.03816793893129771,-1.1221374045801527
2.2000577449798584,0.025390625,-0.990234375,0.273193359375,-0.8931297709923665,-0.08396946564885496,-1.2061068702290076
2.210056781768799,0.017822265625,-0.98779296875,0.27978515625,-1.0763358778625953,-1.9389312977099236,-1.0076335877862594
2.220057249069214,0.0224609375,-0.9873046875,0.27197265625,-0.7786259541984732,-0.061068702290076333,-1.1603053435114503
2.2300562858581543,0.023193359375,-0.986572265625,0.278076171875,-0.9312977099236641,0.21374045801526717,-1.0076335877862594
2.2400577068328857,0.015625,-0.992431640625,0.267578125,-0.7862595419847328,0.09923664122137404,-1.0305343511450382
2.250056266784668,0.017333984375,-0.989501953125,0.274658203125,-1.083969465648855,-0.09923664122137404,-1.2366412213740459
2.260056972503662,0.023193359375,-0.98583984375,0.26953125,-1.2290076335877862,-0.13740458015267176,-1.1984732824427482
2.27005672454834,0.023193359375,-0.986083984375,0.27783203125,-1.0229007633587786,-0.22900763358778625,-1.1374045801526718
2.280057191848755,0.023681640625,-0.990478515625,0.272216796875,-0.9541984732824428,1.900763358778626,-1.0534351145038168
2.290055990219116,0.027099609375,-0.991455078125,0.2744140625,-0.8854961832061069,-0.16793893129770993,-1.0381679389312977
2.3000569343566895,0.02490234375,-0.991943359375,0.280029296875,-0.7938931297709924,-1.9312977099236641,-1.0534351145038168
2.310056447982788,0.02392578125,-0.986328125,0.274658203125,-0.9389312977099237,-0.04580152671755725,-1.1145038167938932
2.3200557231903076,0.030029296875,-0.987548828125,0.276123046875,-1.0076335877862594,-0.1297709923664122,-1.2061068702290076
2.330056667327881,0.021240234375,-0.98583984375,0.25048828125,-1.0229007633587786,-0.06870229007633588,-1.2061068702290076
2.3400566577911377,0.025390625,-0.9853515625,0.2705078125,-1.2900763358778626,-0.05343511450381679,-1.16793893129771
2.3500564098358154,0.02685546875,-0.99560546875,0.27392578125,-1.1068702290076335,-0.08396946564885496,-1.2595419847328244
2.3600564002990723,0.023193359375,-0.98486328125,0.270751953125,-0.8854961832061069,0.022900763358778626,-0.9541984732824428
2.37005615234375,0.02294921875,-0.990478515625,0.272216796875,-0.8931297709923665,0.0,-1.015267175572519
2.3800573348999023,0.025634765625,-0.9814453125,0.275634765625,-0.9389312977099237,-0.007633587786259542,-1.1068702290076335
2.390056610107422,0.024658203125,-0.972412109375,0.27294921875,-1.0229007633587786,-1.9541984732824427,-1.1603053435114503
2.400057077407837,0.021484375,-0.97216796875,0.276123046875,-0.8244274809160306,0.08396946564885496,-1.0458015267175573
2.4100582599639893,0.027587890625,-0.96923828125,0.27783203125,-1.0076335877862594,0.0916030534351145,-1.1221374045801527
2.420058012008667,0.02294921875,-0.99560546875,0.278076171875,-1.16793893129771,-0.22900763358778625,-1.213740458015267
2.4300568103790283,0.026611328125,-0.987060546875,0.273681640625,-0.9618320610687023,-0.04580152671755725,-1.1374045801526718
2.4400575160980225,0.028076171875,-0.988525390625,0.27490234375,-0.7786259541984732,-0.022900763358778626,-0.9770992366412213
2.450057029724121,0.024658203125,-0.990478515625,0.271728515625,-0.9312977099236641,0.12213740458015267,-1.1068702290076335
2.4600563049316406,0.02783203125,-0.98779296875,0.283447265625,-0.9541984732824428,-0.1297709923664122,-1.1908396946564885
2.4700567722320557,0.016357421875,-0.986572265625,0.266357421875,-1.0229007633587786,0.007633587786259542,-1.0534351145038168
2.4800593852996826,0.024169921875,-0.984619140625,0.27783203125,-0.9541984732824428,-0.09923664122137404,-1.0534351145038168
2.4900565147399902,0.021728515625,-0.987548828125,0.265869140625,-1.2213740458015268,-0.007633587786259542,-1.0381679389312977
2.5000569820404053,0.019775390625,-0.984619140625,0.27685546875,-1.0076335877862594,-0.11450381679389313,-1.1297709923664123
2.510056734085083,0.01904296875,-0.988037109375,0.270263671875,-1.0610687022900764,-0.17557251908396945,-1.099236641221374
2.520057439804077,0.025146484375,-0.993896484375,0.275634765625,-1.0610687022900764,-0.1450381679389313,-1.083969465648855
2.5300564765930176,0.0263671875,-0.986328125,0.268310546875,-0.9083969465648855,-0.16030534351145037,-1.0458015267175573
2.540057420730591,0.019775390625,-0.990478515625,0.27734375,-0.8320610687022901,0.015267175572519083,-1.1755725190839694
2.5500576496124268,0.01953125,-0.987060546875,0.2705078125,-0.9007633587786259,-0.15267175572519084,-1.083969465648855
2.5600571632385254,0.029541015625,-0.99267578125,0.285400390625,-0.9312977099236641,-0.16030534351145037,-1.083969465648855
2.570056438446045,0.025390625,-0.992431640625,0.276123046875,-0.9770992366412213,-0.12213740458015267,-0.9770992366412213
2.5800578594207764,0.023681640625,-0.994140625,0.27734375,-0.9923664122137404,-0.05343511450381679,-1.1603053435114503
2.590055465698242,0.025390625,-0.98779296875,0.282958984375,-1.0763358778625953,0.03816793893129771,-1.183206106870229
2.6000568866729736,0.025634765625,-0.98828125,0.2734375,-1.1526717557251909,-0.09923664122137404,-1.1297709923664123
2.610056161880493,0.0283203125,-0.993896484375,0.275634765625,-1.0,0.183206106870229,-1.16793893129771
2.620049476623535,0.017333984375,-0.989501953125,0.27099609375,-0.8625954198473282,0.15267175572519084,-1.0381679389312977
2.630056858062744,0.016845703125,-0.9873046875,0.282958984375,-0.8702290076335878,1.916030534351145,-1.1221374045801527
2.640057325363159,0.02197265625,-0.982666015625,0.272216796875,-0.8396946564885496,-0.12213740458015267,-1.1374045801526718
2.6500563621520996,0.02392578125,-0.989501953125,0.2763671875,-1.0076335877862594,-0.19083969465648856,-1.16793893129771
2.660057306289673,0.02197265625,-0.98828125,0.272216796875,-0.9923664122137404,-0.16030534351145037,-1.1908396946564885
2.6700565814971924,0.024658203125,-0.990478515625,0.267822265625,-1.083969465648855,-0.03816793893129771,-1.1984732824427482
2.68005633354187,0.01953125,-0.991455078125,0.27392578125,-1.1145038167938932,-0.2824427480916031,-1.2595419847328244
2.690051555633545,0.025146484375,-0.983642578125,0.2763671875,-0.9770992366412213,-0.2748091603053435,-1.0687022900763359
2.700056314468384,0.023681640625,-0.9853515625,0.273193359375,-1.0610687022900764,0.05343511450381679,-1.1297709923664123
2.710056781768799,0.027099609375,-0.989501953125,0.277099609375,-0.8625954198473282,-0.0916030534351145,-0.9618320610687023
2.720057249069214,0.02392578125,-0.991455078125,0.2734375,-0.9312977099236641,1.9465648854961832,-1.1068702290076335
2.7300570011138916,0.022705078125,-0.988525390625,0.275634765625,-1.0687022900763359,-0.16030534351145037,-1.1374045801526718
2.7400572299957275,0.027099609375,-0.9814453125,0.2685546875,-1.1374045801526718,-0.030534351145038167,-1.0610687022900764
2.750056743621826,0.016845703125,-0.989013671875,0.267578125,-1.1297709923664123,1.9465648854961832,-1.2290076335877862
2.7600536346435547,0.02197265625,-0.99365234375,0.2724609375,-1.1068702290076335,-0.061068702290076333,-0.9694656488549618
2.77005672454834,0.0205078125,-0.986328125,0.276123046875,-0.9694656488549618,1.916030534351145,-1.2290076335877862
2.780057191848755,0.0205078125,-0.9931640625,0.275390625,-0.8015267175572519,-1.9312977099236641,-1.0610687022900764
2.7900564670562744,0.025390625,-0.988525390625,0.269775390625,-0.7862595419847328,1.8854961832061068,-1.16793893129771
2.8000574111938477,0.022216796875,-0.989990234375,0.276611328125,-0.9389312977099237,0.09923664122137404,-1.1374045801526718
2.810055732727051,0.0234375,-0.986083984375,0.28076171875,-1.2213740458015268,1.900763358778626,-1.0687022900763359
2.820056676864624,0.0263671875,-0.98583984375,0.270263671875,-1.3587786259541985,0.0916030534351145,-1.0229007633587786
2.830056667327881,0.024658203125,-0.98779296875,0.277587890625,-1.099236641221374,-0.22137404580152673,-0.9923664122137404
2.840057373046875,0.022216796875,-0.98828125,0.275390625,-1.0458015267175573,-0.1297709923664122,-1.2748091603053435
2.850055694580078,0.0234375,-0.987548828125,0.26220703125,-1.1145038167938932,-0.10687022900763359,-1.0916030534351144
2.8600566387176514,0.021240234375,-0.984619140625,0.276611328125,-0.9236641221374046,0.06870229007633588,-1.0534351145038168
2.870056390762329,0.017822265625,-0.990478515625,0.272216796875,-0.8702290076335878,-0.061068702290076333,-1.0229007633587786
2.8800573348999023,0.02490234375,-0.9873046875,0.278564453125,-0.9923664122137404,-1.9465648854961832,-1.16793893129771
2.890056610107422,0.0244140625,-0.987060546875,0.27783203125,-1.16793893129771,-1.9389312977099236,-1.0610687022900764
2.9000561237335205,0.02587890625,-0.991455078125,0.26953125,-1.0534351145038168,0.0916030534351145,-1.0381679389312977
2.9100565910339355,0.020751953125,-0.994873046875,0.275634765625,-0.8396946564885496,-0.13740458015267176,-1.1068702290076335
2.9200587272644043,0.01953125,-0.99267578125,0.279541015625,-0.8625954198473282,-0.10687022900763359,-1.0610687022900764
2.93005633354187,0.0234375,-0.99072265625,0.271484375,-0.9847328244274809,-0.15267175572519084,-1.083969465648855
2.9400570392608643,0.025390625,-0.988037109375,0.27685546875,-0.9389312977099237,-0.030534351145038167,-1.0229007633587786
2.950056791305542,0.02099609375,-0.985107421875,0.2744140625,-0.8244274809160306,0.1297709923664122,-1.099236641221374
2.960057258605957,0.02197265625,-0.98193359375,0.26953125,-0.9847328244274809,-0.007633587786259542,-1.1145038167938932
2.9700567722320557,0.023193359375,-0.987060546875,0.27978515625,-1.1221374045801527,-1.9236641221374047,-1.0763358778625953
2.9800565242767334,0.0263671875,-0.98583984375,0.2724609375,-0.9694656488549618,0.03816793893129771,-1.1221374045801527
2.9900577068328857,0.022705078125,-0.984619140625,0.271240234375,-0.8015267175572519,0.17557251908396945,-1.099236641221374
3.000058174133301,0.0205078125,-0.9912109375,0.27197265625,-0.8702290076335878,-0.09923664122137404,-0.9083969465648855
3.010056734085083,0.021728515625,-0.98486328125,0.26708984375,-0.9465648854961832,-0.08396946564885496,-1.0916030534351144
3.020057439804077,0.0224609375,-0.9892578125,0.27685546875,-0.8244274809160306,-0.13740458015267176,-1.1908396946564885
3.0300590991973877,0.027587890625,-0.987060546875,0.2666015625,-1.3587786259541985,0.11450381679389313,-1.0076335877862594
3.040013551712036,0.028076171875,-0.987060546875,0.272705078125,-1.381679389312977,0.1984732824427481,-0.9312977099236641
3.050055980682373,0.0322265625,-0.987548828125,0.27978515625,-1.3282442748091603,-0.45038167938931295,-1.251908396946565
3.0600574016571045,0.02880859375,-0.982177734375,0.28564453125,-0.7633587786259542,0.40458015267175573,-1.0610687022900764
3.0700554847717285,0.008056640625,-0.990478515625,0.272216796875,-1.0687022900763359,-0.3816793893129771,-0.9770992366412213
3.08005690574646,0.02197265625,-0.98828125,0.274169921875,-0.8015267175572519,0.26717557251908397,-0.7709923664122137
3.0900559425354004,0.02197265625,-0.98974609375,0.277587890625,-0.5419847328244275,0.0,-0.9847328244274809
3.100057601928711,0.020263671875,-0.97314453125,0.270263671875,-1.0534351145038168,-1.9312977099236641,-0.9465648854961832
3.110056161880493,0.019775390625,-0.9951171875,0.269287109375,-0.7480916030534351,1.9465648854961832,-1.1068702290076335
3.1200568675994873,0.021240234375,-0.988525390625,0.26953125,-0.7480916030534351,-0.061068702290076333,-1.0076335877862594
3.130056858062744,0.025146484375,-0.985595703125,0.276611328125,-0.7022900763358778,0.08396946564885496,-1.213740458015267
3.1400575637817383,0.018798828125,-0.991943359375,0.26708984375,-1.2366412213740459,1.9236641221374047,-1.1984732824427482
3.1500556468963623,0.02734375,-0.990234375,0.274169921875,-1.4274809160305344,-0.26717557251908397,-1.1526717557251909
3.1600561141967773,0.029541015625,-0.99365234375,0.282958984375,-1.916030534351145,-0.1984732824427481,-1.1374045801526718
3.1700565814971924,0.0302734375,-0.97265625,0.267333984375,-1.4427480916030535,-0.3053435114503817,-1.2442748091603053
3.1800498962402344,0.027099609375,-0.989013671875,0.27294921875,-0.7480916030534351,-0.3435114503816794,-0.9923664122137404
3.190056324005127,0.029052734375,-0.9921875,0.27587890625,-0.44274809160305345,0.26717557251908397,-1.0229007633587786
3.200056552886963,0.02099609375,-0.99072265625,0.28076171875,-0.32061068702290074,0.09923664122137404,-1.2442748091603053
3.2100560665130615,0.027099609375,-0.987548828125,0.2744140625,-0.48854961832061067,0.2366412213740458,-1.1526717557251909
3.2200565338134766,0.029296875,-0.989013671875,0.27734375,-0.9083969465648855,0.030534351145038167,-1.1908396946564885
3.230055809020996,0.014892578125,-0.982666015625,0.272216796875,-1.213740458015267,0.22137404580152673,-1.3282442748091603
3.2400572299957275,0.0087890625,-0.997314453125,0.26220703125,-1.6641221374045803,-0.9465648854961832,-1.5572519083969465
3.2500526905059814,0.03173828125,-0.982666015625,0.2744140625,-0.7480916030534351,0.12213740458015267,-1.2366412213740459
3.2600576877593994,0.0244140625,-0.987548828125,0.275390625,-0.16793893129770993,-0.0916030534351145,-1.1221374045801527
3.2700560092926025,0.024169921875,-0.999755859375,0.27001953125,-0.5954198473282443,-1.8549618320610688,-1.213740458015267
3.2800564765930176,0.030517578125,-0.993408203125,0.279541015625,1.916030534351145,0.32061068702290074,-1.083969465648855
3.2900569438934326,0.021728515625,-0.98974609375,0.290283203125,-0.3511450381679389,0.1984732824427481,-1.0916030534351144
3.3000564575195312,0.027099609375,-0.990234375,0.270263671875,-0.8854961832061069,0.25190839694656486,-1.5038167938931297
3.31005597114563,0.00341796875,-0.982421875,0.280517578125,-2.1908396946564888,1.8091603053435115,-1.3435114503816794
3.3200488090515137,0.021728515625,-0.99462890625,0.2626953125,-2.6564885496183206,-1.1603053435114503,-1.1145038167938932
3.3300559520721436,0.029296875,-0.98486328125,0.267822265625,-0.6946564885496184,-0.4198473282442748,-0.9236641221374046
3.340057611465454,0.029052734375,-0.98974609375,0.288818359375,0.5954198473282443,-0.22137404580152673,-0.7709923664122137
3.350055694580078,0.0244140625,-0.97998046875,0.287353515625,0.7786259541984732,0.9312977099236641,-1.0
3.3600575923919678,0.020751953125,-0.989013671875,0.28125,1.9236641221374047,0.35877862595419846,-1.1603053435114503
3.370055675506592,0.03076171875,-0.989990234375,0.28125,-1.8854961832061068,1.0458015267175573,-0.6183206106870229
3.3800570964813232,0.02001953125,-0.991455078125,0.2685546875,-2.8244274809160306,-0.7786259541984732,-1.0458015267175573
3.390056610107422,0.03564453125,-0.978515625,0.27001953125,-2.2213740458015265,0.1984732824427481,-1.3206106870229009
3.4000566005706787,0.015380859375,-0.991943359375,0.263671875,-1.9694656488549618,-1.1526717557251909,-1.3969465648854962
3.4100499153137207,0.003662109375,-0.985595703125,0.2607421875,-1.4427480916030535,-0.31297709923664124,-1.2366412213740459
3.4200565814971924,0.01806640625,-0.99755859375,0.27294921875,0.08396946564885496,-0.42748091603053434,-0.9312977099236641
3.43005633354187,0.02783203125,-0.990234375,0.294921875,0.4580152671755725,0.44274809160305345,-0.8854961832061069
3.440056800842285,0.026611328125,-0.984375,0.285888671875,0.12213740458015267,0.46564885496183206,-1.1755725190839694
3.4500560760498047,0.0263671875,-0.98681640625,0.282470703125,-0.7022900763358778,0.16793893129770993,-0.9923664122137404
3.4600565433502197,0.0244140625,-0.991943359375,0.279052734375,-1.8702290076335877,-0.06870229007633588,-1.1755725190839694
3.4700562953948975,0.02734375,-0.99609375,0.269287109375,-3.8931297709923665,-0.3969465648854962,-1.0916030534351144
3.4800491333007812,0.025390625,-0.99755859375,0.2783203125,-1.3282442748091603,-0.29770992366412213,-1.1068702290076335
3.4900593757629395,0.016357421875,-0.992431640625,0.274169921875,-0.7786259541984732,-0.5038167938931297,-0.9541984732824428
3.5000576972961426,0.021484375,-0.986328125,0.27978515625,-0.3053435114503817,0.07633587786259542,-1.0381679389312977
3.5100624561309814,0.02294921875,-0.990234375,0.267333984375,-0.42748091603053434,0.015267175572519083,-0.916030534351145
3.5200607776641846,0.020751953125,-0.98291015625,0.279541015625,-1.0534351145038168,0.33587786259541985,-1.1526717557251909
3.5300590991973877,0.020263671875,-0.99658203125,0.272216796875,-1.900763358778626,0.022900763358778626,-1.3053435114503817
3.5400588512420654,0.026611328125,-0.987060546875,0.26904296875,-2.099236641221374,-0.09923664122137404,-1.2748091603053435
3.550058126449585,0.027099609375,-0.9853515625,0.265869140625,-1.4885496183206106,-0.2748091603053435,-1.2290076335877862
3.5600593090057373,0.025634765625,-0.9833984375,0.26953125,-0.916030534351145,-0.2595419847328244,-1.0458015267175573
3.5700581073760986,0.0205078125,-0.992919921875,0.26953125,-0.3511450381679389,-0.06870229007633588,-1.0381679389312977
3.5800578594207764,0.019775390625,-0.98876953125,0.279052734375,-0.26717557251908397,0.07633587786259542,-0.916030534351145
3.590057611465454,0.024658203125,-0.97021484375,0.283203125,-0.5877862595419847,0.16030534351145037,-1.1908396946564885
3.600057601928711,0.023193359375,-0.984619140625,0.265869140625,-0.9083969465648855,0.1984732824427481,-1.0763358778625953
3.6100573539733887,0.02685546875,-0.9736328125,0.27685546875,-1.3740458015267176,0.26717557251908397,-1.297709923664122
3.620058536529541,0.01806640625,-0.987060546875,0.27490234375,-1.5419847328244274,-0.19083969465648856,-1.2748091603053435
3.6300594806671143,0.02294921875,-0.9912109375,0.276123046875,-1.3511450381679388,-0.21374045801526717,-1.297709923664122
3.6400582790374756,0.02392578125,-0.992431640625,0.27880859375,-0.9312977099236641,-0.366412213740458,-1.2061068702290076
3.6500582695007324,0.0224609375,-0.98828125,0.27978515625,-0.7557251908396947,-0.19083969465648856,-1.015267175572519
3.6600594520568848,0.02490234375,-0.98828125,0.27734375,-0.7251908396946565,0.05343511450381679,-0.9770992366412213
3.670057773590088,0.024658203125,-0.98486328125,0.272705078125,-1.2366412213740459,0.183206106870229,-1.015267175572519
3.680058002471924,0.02392578125,-0.991943359375,0.26806640625,-1.3358778625954197,0.13740458015267176,-1.1297709923664123
3.6900575160980225,0.02197265625,-0.98779296875,0.280517578125,-1.4580152671755726,0.17557251908396945,-0.8473282442748091
3.700059413909912,0.02490234375,-0.990234375,0.266357421875,-0.9847328244274809,-0.061068702290076333,-0.9694656488549618
3.710057497024536,0.0244140625,-0.98779296875,0.278564453125,-0.8625954198473282,-0.40458015267175573,-1.0534351145038168
3.7200591564178467,0.01953125,-0.9892578125,0.27734375,-0.6870229007633588,-0.061068702290076333,-1.1068702290076335
3.730062246322632,0.021484375,-0.9892578125,0.283447265625,-0.6564885496183206,-0.1450381679389313,-0.9541984732824428
3.7400588989257812,0.025634765625,-0.98876953125,0.287841796875,-0.8931297709923665,0.20610687022900764,-1.0916030534351144
3.750058650970459,0.02197265625,-0.988525390625,0.281982421875,-1.3358778625954197,-0.10687022900763359,-1.2442748091603053
3.7600584030151367,0.026123046875,-0.9873046875,0.27294921875,-1.5419847328244274,-1.9465648854961832,-1.1908396946564885
3.7700576782226562,0.01611328125,-0.98779296875,0.275634765625,-1.251908396946565,-0.11450381679389313,-1.1908396946564885
3.780059814453125,0.00146484375,-0.989501953125,0.266357421875,-1.1526717557251909,-0.1297709923664122,-1.1984732824427482
3.7900586128234863,0.023681640625,-0.990234375,0.268798828125,-0.9389312977099237,-0.16793893129770993,-0.9770992366412213
3.8000588417053223,0.028076171875,-0.98193359375,0.273193359375,-0.9083969465648855,0.030534351145038167,-0.9847328244274809
3.810058832168579,0.027587890625,-0.986328125,0.273681640625,-0.8549618320610687,-0.17557251908396945,-1.0687022900763359
3.8200581073760986,0.0244140625,-0.988525390625,0.28125,-1.1068702290076335,0.1297709923664122,-1.1603053435114503
3.8300583362579346,0.023681640625,-0.990478515625,0.27880859375,-1.1145038167938932,-1.8854961832061068,-1.1450381679389312
3.840066432952881,0.03076171875,-0.9892578125,0.268310546875,-0.9541984732824428,0.09923664122137404,-1.0305343511450382
3.8500587940216064,0.0224609375,-0.992431640625,0.275146484375,-0.916030534351145,-0.2366412213740458,-1.1068702290076335
3.8600594997406006,0.02294921875,-0.9755859375,0.27685546875,-0.5801526717557252,-0.030534351145038167,-1.2213740458015268
3.870058298110962,0.018798828125,-0.9921875,0.273193359375,-0.6870229007633588,0.05343511450381679,-1.0534351145038168
3.8800594806671143,0.02197265625,-0.986572265625,0.281494140625,-0.8854961832061069,0.061068702290076333,-1.1526717557251909
3.8900580406188965,0.02197265625,-0.989501953125,0.27734375,-1.2900763358778626,0.022900763358778626,-1.282442748091603
3.900059700012207,0.01904296875,-0.984375,0.273193359375,-1.297709923664122,-0.015267175572519083,-0.9465648854961832
3.9100587368011475,0.017333984375,-0.990478515625,0.275146484375,-1.282442748091603,-0.06870229007633588,-1.1145038167938932
3.920057773590088,0.01953125,-0.99072265625,0.272216796875,-1.1374045801526718,-0.15267175572519084,-1.083969465648855
3.930060625076294,0.02197265625,-0.990478515625,0.27099609375,-0.9465648854961832,0.030534351145038167,-0.9923664122137404
3.940059185028076,0.02490234375,-0.99169921875,0.276611328125,-0.5954198473282443,0.15267175572519084,-0.9847328244274809
3.9500584602355957,0.02880859375,-0.991943359375,0.27490234375,-0.5801526717557252,-0.04580152671755725,-1.099236641221374
3.9600603580474854,0.02490234375,-0.98583984375,0.291748046875,-0.7557251908396947,-0.1297709923664122,-1.0763358778625953
3.9700589179992676,0.023681640625,-0.99560546875,0.270263671875,-1.0229007633587786,-0.1450381679389313,-1.083969465648855
3.9800589084625244,0.024658203125,-0.978759765625,0.2734375,-1.0916030534351144,1.9236641221374047,-1.2061068702290076
3.990058660507202,0.021240234375,-0.986328125,0.27783203125,-1.1984732824427482,-0.061068702290076333,-1.1450381679389312
4.000060081481934,0.02392578125,-0.989013671875,0.262451171875,-1.3206106870229009,-0.1450381679389313,-1.083969465648855
4.0100603103637695,0.025634765625,-0.990234375,0.271240234375,-1.3435114503816794,0.022900763358778626,-0.7938931297709924
4.020058631896973,0.0224609375,-0.98876953125,0.271484375,-0.916030534351145,1.9236641221374047,-0.916030534351145
4.030059576034546,0.02001953125,-0.997314453125,0.279541015625,-0.8015267175572519,0.061068702290076333,-0.9465648854961832
4.040058135986328,0.021728515625,-0.970703125,0.271728515625,-0.8778625954198473,0.17557251908396945,-1.1068702290076335
4.050057888031006,0.020751953125,-0.99951171875,0.278076171875,-0.8473282442748091,-0.16030534351145037,-1.251908396946565
4.060059547424316,0.0205078125,-0.987548828125,0.27490234375,-0.8702290076335878,-0.19083969465648856,-1.0763358778625953
4.070058584213257,0.0263671875,-0.99609375,0.281982421875,-0.9312977099236641,0.10687022900763359,-1.0687022900763359
4.080060243606567,0.0205078125,-0.989013671875,0.28564453125,-0.9541984732824428,0.16030534351145037,-0.8702290076335878
4.090058088302612,0.015869140625,-0.986328125,0.272216796875,-1.0076335877862594,0.061068702290076333,-1.16793893129771
4.100059747695923,0.022216796875,-0.98974609375,0.264892578125,-1.3511450381679388,-0.20610687022900764,-1.2671755725190839
4.110057592391968,0.017578125,-0.98681640625,0.273193359375,-1.297709923664122,-0.11450381679389313,-1.16793893129771
4.120059251785278,0.02587890625,-0.997314453125,0.27783203125,-1.0305343511450382,-0.08396946564885496,-1.1068702290076335
4.130058765411377,0.026123046875,-0.992919921875,0.277099609375,-0.8549618320610687,0.12213740458015267,-1.0687022900763359
4.140059471130371,0.0234375,-0.98681640625,0.2822265625,-0.8702290076335878,0.19083969465648856,-1.0458015267175573
4.150058269500732,0.022216796875,-0.984375,0.271728515625,-1.0534351145038168,-0.03816793893129771,-1.0763358778625953
4.1600587368011475,0.021240234375,-0.9853515625,0.271240234375,-1.0610687022900764,-0.1984732824427481,-1.0610687022900764
4.170058727264404,0.026123046875,-0.989501953125,0.27587890625,-0.7404580152671756,-0.1450381679389313,-1.1374045801526718
4.1800596714019775,0.019775390625,-0.989013671875,0.26806640625,-0.9083969465648855,0.007633587786259542,-1.1145038167938932
4.19005823135376,0.02880859375,-1.0,0.279052734375,-1.0610687022900764,0.1984732824427481,-0.9923664122137404
4.200058221817017,0.022216796875,-0.98974609375,0.271728515625,-0.8778625954198473,-0.1450381679389313,-1.16793893129771
4.210057735443115,0.02880859375,-0.98876953125,0.278076171875,-0.9847328244274809,-0.05343511450381679,-1.0687022900763359
4.22005820274353,0.025634765625,-0.971435546875,0.2724609375,-1.2366412213740459,-0.1450381679389313,-1.099236641221374
4.230057716369629,0.031005859375,-0.99365234375,0.27197265625,-1.015267175572519,-0.16793893129770993,-1.1221374045801527
4.2400593757629395,0.0263671875,-0.990234375,0.26904296875,-1.1145038167938932,-0.1450381679389313,-0.916030534351145
4.25005841255188,0.021240234375,-0.98681640625,0.263427734375,-0.9618320610687023,-0.1984732824427481,-1.1374045801526718
4.260057687759399,0.02392578125,-0.987060546875,0.270263671875,-0.9770992366412213,-0.16793893129770993,-1.2061068702290076
4.2700583934783936,0.02294921875,-0.98828125,0.2802734375,-0.8091603053435115,0.11450381679389313,-1.1450381679389312
4.280058860778809,0.0185546875,-0.995849609375,0.27685546875,-0.916030534351145,0.022900763358778626,-1.1221374045801527
4.290058612823486,0.020263671875,-0.98193359375,0.269287109375,-1.0687022900763359,0.1297709923664122,-1.0610687022900764
4.300058841705322,0.02001953125,-0.9853515625,0.26806640625,-1.1145038167938932,-0.17557251908396945,-1.0534351145038168
4.310059070587158,0.019287109375,-0.996337890625,0.27587890625,-1.1374045801526718,-0.25190839694656486,-1.183206106870229
4.32006049156189,0.026123046875,-0.990234375,0.27197265625,-0.9770992366412213,-1.9083969465648856,-0.9847328244274809
4.330057859420776,0.0185546875,-0.991455078125,0.2724609375,-1.0458015267175573,0.04580152671755725,-1.1603053435114503
4.340058326721191,0.026611328125,-0.99365234375,0.274658203125,-0.9618320610687023,0.0,-1.083969465648855
4.350058317184448,0.02197265625,-0.986083984375,0.2783203125,-0.9694656488549618,-1.8778625954198473,-1.0610687022900764
4.360055923461914,0.019775390625,-0.98876953125,0.277587890625,-0.8931297709923665,-0.007633587786259542,-1.1984732824427482
4.370055913925171,0.0283203125,-0.98828125,0.27587890625,-0.8778625954198473,-0.19083969465648856,-1.183206106870229
4.380056858062744,0.0224609375,-0.986083984375,0.2744140625,-1.0229007633587786,-0.10687022900763359,-1.0076335877862594
4.390056371688843,0.004150390625,-0.987548828125,0.269775390625,-0.9312977099236641,-0.15267175572519084,-1.2061068702290076
4.400057077407837,0.021240234375,-0.9892578125,0.274658203125,-0.916030534351145,-0.1450381679389313,-0.9618320610687023
4.410056114196777,0.029296875,-0.989013671875,0.27392578125,-1.0076335877862594,-0.04580152671755725,-1.0458015267175573
4.420057058334351,0.021484375,-0.9921875,0.27490234375,-0.5801526717557252,0.6793893129770993,-1.4580152671755726
4.43005633354187,0.003662109375,-0.9716796875,0.284912109375,0.13740458015267176,0.40458015267175573,-2.6564885496183206
4.440056800842285,0.005126953125,-0.975830078125,0.262939453125,-1.6106870229007633,-1.4427480916030535,-2.8091603053435112
4.4500572681427,0.03662109375,-1.004150390625,0.2607421875,-2.5267175572519083,-1.1068702290076335,-2.045801526717557
4.460057497024536,0.0283203125,-1.006103515625,0.290283203125,-1.5877862595419847,-0.732824427480916,-1.297709923664122
4.470056533813477,0.02734375,-0.995361328125,0.290771484375,-0.4732824427480916,0.3893129770992366,-0.9312977099236641
4.480056524276733,0.0234375,-0.98974609375,0.279541015625,-1.251908396946565,0.3969465648854962,-0.8854961832061069
4.490056037902832,0.02587890625,-0.98486328125,0.263916015625,-1.5801526717557253,-0.15267175572519084,-0.9923664122137404
4.500056266784668,0.028564453125,-0.9814453125,0.265869140625,-1.1145038167938932,1.9083969465648856,-1.1603053435114503
4.510058879852295,0.02294921875,-0.985107421875,0.26953125,-0.7557251908396947,-0.31297709923664124,-1.1450381679389312
4.520057439804077,0.0244140625,-0.98828125,0.26953125,-0.648854961832061,-1.8778625954198473,-1.1450381679389312
4.530055999755859,0.02880859375,-0.9931640625,0.27490234375,-0.5343511450381679,-0.12213740458015267,-0.8702290076335878
4.5400567054748535,0.024658203125,-0.989501953125,0.26806640625,-0.183206106870229,1.8931297709923665,-1.0305343511450382
4.550055980682373,0.023681640625,-0.98779296875,0.277587890625,-0.5190839694656488,1.900763358778626,-1.0229007633587786
4.560056209564209,0.0263671875,-0.987060546875,0.2783203125,-0.7786259541984732,0.3053435114503817,-1.1603053435114503
4.570055723190308,0.0244140625,-0.983154296875,0.28369140625,-1.7099236641221374,0.0916030534351145,-1.1450381679389312
4.580057382583618,0.023681640625,-0.995361328125,0.27197265625,-1.3740458015267176,-0.17557251908396945,-1.213740458015267
4.590056657791138,0.030029296875,-0.98828125,0.269287109375,-1.2213740458015268,0.04580152671755725,-1.1908396946564885
4.600056886672974,0.0205078125,-0.9931640625,0.27099609375,-1.2290076335877862,-0.3053435114503817,-1.282442748091603
4.61005711555481,0.0302734375,-0.98486328125,0.26904296875,-1.099236641221374,-0.25190839694656486,-1.251908396946565
4.620056390762329,0.0224609375,-0.98876953125,0.27392578125,-1.0,0.26717557251908397,-1.1297709923664123
4.630056858062744,0.02734375,-0.992919921875,0.2783203125,-1.381679389312977,0.007633587786259542,-1.1603053435114503
4.64005708694458,0.0263671875,-0.98974609375,0.268798828125,-1.0,-1.900763358778626,-0.9770992366412213
4.650056600570679,0.025146484375,-0.9912109375,0.279052734375,-0.7175572519083969,0.1450381679389313,-0.816793893129771
4.66005802154541,0.021484375,-0.98583984375,0.27587890625,-0.648854961832061,0.0916030534351145,-0.9694656488549618
4.670056343078613,0.022216796875,-0.985595703125,0.268798828125,-0.816793893129771,0.366412213740458,-1.251908396946565
4.6800572872161865,0.017822265625,-0.993896484375,0.276123046875,-0.8778625954198473,-0.31297709923664124,-1.251908396946565
4.690055847167969,0.025634765625,-0.984375,0.274169921875,-1.1603053435114503,-0.17557251908396945,-1.1145038167938932
4.700057506561279,0.015869140625,-0.994140625,0.27783203125,-1.2442748091603053,-0.15267175572519084,-1.0763358778625953
4.71005654335022,0.017822265625,-0.9873046875,0.27880859375,-1.0,0.16030534351145037,-0.9923664122137404
4.720057487487793,0.023681640625,-0.97021484375,0.27099609375,-1.0229007633587786,-0.061068702290076333,-1.1603053435114503
4.730055809020996,0.028564453125,-0.986328125,0.27587890625,-1.0916030534351144,0.022900763358778626,-1.0534351145038168
4.740056276321411,0.017822265625,-0.9951171875,0.26806640625,-1.1374045801526718,-0.21374045801526717,-1.1908396946564885
4.750056505203247,0.023681640625,-0.9951171875,0.27880859375,-0.8854961832061069,-0.05343511450381679,-1.1526717557251909
4.760056495666504,0.02734375,-0.9912109375,0.2763671875,-0.9618320610687023,1.9236641221374047,-0.9465648854961832
4.770056486129761,0.021484375,-0.989501953125,0.279296875,-0.8473282442748091,-1.9312977099236641,-0.9236641221374046
4.780057191848755,0.02001953125,-0.987548828125,0.2705078125,-0.7786259541984732,-0.10687022900763359,-1.0916030534351144
4.790056228637695,0.023681640625,-0.988525390625,0.281005859375,-0.816793893129771,0.19083969465648856,-1.0
4.800048351287842,0.0205078125,-0.989990234375,0.27734375,-1.0,1.9465648854961832,-1.1908396946564885
4.810056447982788,0.026611328125,-0.992919921875,0.28515625,-0.916030534351145,-0.16030534351145037,-1.0305343511450382
4.820057392120361,0.0234375,-0.98486328125,0.280029296875,-0.9847328244274809,-0.09923664122137404,-1.0763358778625953
4.830056190490723,0.0283203125,-0.99072265625,0.278076171875,-1.1374045801526718,-0.030534351145038167,-1.0610687022900764
4.840056419372559,0.023193359375,-0.984375,0.279052734375,-0.9465648854961832,0.20610687022900764,-1.1908396946564885
4.850055694580078,0.02001953125,-0.98779296875,0.27099609375,-1.0,-0.08396946564885496,-1.3129770992366412
4.860057592391968,0.0263671875,-0.99267578125,0.277099609375,-1.4427480916030535,-0.2900763358778626,-1.1755725190839694
4.870047569274902,0.025390625,-0.995361328125,0.267333984375,-0.9541984732824428,-0.20610687022900764,-1.16793893129771
4.880056619644165,0.025634765625,-0.998046875,0.279052734375,-0.7557251908396947,0.0916030534351145,-1.0229007633587786
4.890056610107422,0.022216796875,-0.987548828125,0.276123046875,-0.9389312977099237,0.0,-1.213740458015267
4.900056600570679,0.0234375,-0.98974609375,0.267822265625,-1.2213740458015268,-0.07633587786259542,-1.1603053435114503
4.910056114196777,0.029052734375,-0.99169921875,0.268310546875,-1.2595419847328244,-0.22900763358778625,-1.183206106870229
4.920057058334351,0.022216796875,-0.99072265625,0.278564453125,-0.9312977099236641,1.9312977099236641,-0.916030534351145
4.930056571960449,0.024169921875,-0.987548828125,0.269287109375,-0.7251908396946565,-0.015267175572519083,-0.816793893129771
4.9400575160980225,0.02294921875,-0.986083984375,0.27880859375,-0.9618320610687023,0.0916030534351145,-0.8778625954198473
4.950057029724121,0.023193359375,-0.982666015625,0.27685546875,-0.8396946564885496,0.1297709923664122,-1.1374045801526718
4.960058689117432,0.031005859375,-0.98583984375,0.27685546875,-0.9541984732824428,-0.3969465648854962,-1.1526717557251909
4.970055818557739,0.022216796875,-0.98095703125,0.27294921875,-0.6641221374045801,0.42748091603053434,-1.3969465648854962
4.980058193206787,0.02392578125,-0.992431640625,0.2734375,-1.4045801526717556,-0.7022900763358778,-1.5190839694656488
4.990056276321411,0.018310546875,-0.998046875,0.27392578125,-1.366412213740458,0.10687022900763359,-0.7404580152671756
5.0000574588775635,0.028076171875,-0.986083984375,0.27490234375,-0.9389312977099237,-0.06870229007633588,-0.6335877862595419
5.01005744934082,0.01806640625,-0.978515625,0.275390625,-0.44274809160305345,0.7404580152671756,-0.8931297709923665
5.020057201385498,0.025634765625,-0.976806640625,0.275146484375,-0.7709923664122137,-0.1450381679389313,-1.1526717557251909
5.030059099197388,0.023681640625,-0.985595703125,0.26708984375,-1.3053435114503817,-0.42748091603053434,-1.0916030534351144
5.040057182312012,0.025390625,-0.995361328125,0.27392578125,-0.8854961832061069,-0.4198473282442748,-1.1450381679389312
5.050056219100952,0.023193359375,-0.99169921875,0.280029296875,-0.6183206106870229,0.183206106870229,-0.9770992366412213
5.060057163238525,0.020263671875,-0.96923828125,0.27880859375,-0.7099236641221374,0.07633587786259542,-1.0076335877862594
5.070055961608887,0.021484375,-0.97998046875,0.271240234375,-1.2900763358778626,-1.900763358778626,-0.9083969465648855
5.080056667327881,0.025390625,-0.98876953125,0.275390625,-1.0916030534351144,0.16030534351145037,-1.2061068702290076
5.090056657791138,0.017578125,-0.989990234375,0.280517578125,-1.2366412213740459,-0.21374045801526717,-1.3587786259541985
5.100057125091553,0.03125,-0.988525390625,0.271240234375,-1.1374045801526718,-0.2748091603053435,-1.0076335877862594
5.110055685043335,0.025390625,-0.99365234375,0.27001953125,-1.0610687022900764,-0.15267175572519084,-0.9007633587786259
5.120057582855225,0.01806640625,-0.99609375,0.268798828125,-0.6946564885496184,-1.8625954198473282,-0.7480916030534351
5.130056619644165,0.01708984375,-0.984375,0.267333984375,-0.5267175572519084,0.2900763358778626,-0.9923664122137404
5.140057802200317,0.021728515625,-1.0,0.269287109375,-1.0076335877862594,0.183206106870229,-1.2061068702290076
5.1500513553619385,0.017822265625,-0.98681640625,0.274169921875,-1.1374045801526718,-0.2748091603053435,-1.2595419847328244
5.160057306289673,0.025390625,-0.997802734375,0.271484375,-0.9770992366412213,-0.35877862595419846,-1.4198473282442747
5.170057058334351,0.02978515625,-0.99365234375,0.265625,-0.9236641221374046,-0.2748091603053435,-1.0458015267175573
5.180056571960449,0.028564453125,-0.98876953125,0.27587890625,-0.366412213740458,1.0381679389312977,-1.1984732824427482
5.190055847167969,0.011962890625,-0.986572265625,0.272705078125,-0.31297709923664124,1.8854961832061068,-0.04580152671755725
5.200057744979858,0.01416015625,-0.9775390625,0.271240234375,-1.6717557251908397,-1.1297709923664123,-2.099236641221374
5.2100560665130615,0.046875,-1.005126953125,0.269287109375,-2.114503816793893,-1.8396946564885497,-1.1450381679389312
5.220051050186157,0.02099609375,-1.008544921875,0.27978515625,-0.1984732824427481,-0.2595419847328244,-0.9312977099236641
5.2300567626953125,0.0224609375,-0.997802734375,0.282958984375,-0.3969465648854962,0.5801526717557252,-1.3282442748091603
5.240057468414307,0.037353515625,-0.98876953125,0.269775390625,-1.0458015267175573,-0.2824427480916031,-1.2900763358778626
5.250056266784668,0.02490234375,-0.9853515625,0.265625,-1.1984732824427482,-0.32061068702290074,-1.297709923664122
5.260056495666504,0.0205078125,-0.99462890625,0.290771484375,-1.3969465648854962,0.19083969465648856,-0.8931297709923665
5.270056247711182,0.01953125,-0.990234375,0.290771484375,-0.9236641221374046,0.22137404580152673,-1.1526717557251909
5.280056715011597,0.023681640625,-0.986328125,0.27587890625,-0.9847328244274809,0.03816793893129771,-1.1755725190839694
5.290055990219116,0.024658203125,-0.989013671875,0.27587890625,-1.3435114503816794,0.061068702290076333,-0.9770992366412213
5.300056219100952,0.021484375,-0.984375,0.272216796875,-0.8244274809160306,0.05343511450381679,-1.2366412213740459
5.310056209564209,0.02783203125,-0.98779296875,0.28564453125,-0.7251908396946565,-0.40458015267175573,-1.0916030534351144
5.320056438446045,0.016845703125,-0.98583984375,0.27734375,-0.9770992366412213,0.0916030534351145,-1.0687022900763359
5.330056190490723,0.02490234375,-0.988037109375,0.277587890625,-0.9847328244274809,1.916030534351145,-1.1374045801526718
5.3400561809539795,0.02392578125,-0.98974609375,0.2666015625,-0.7022900763358778,0.1450381679389313,-1.282442748091603
5.350055694580078,0.024169921875,-0.987548828125,0.2705078125,-0.9847328244274809,-0.2748091603053435,-1.213740458015267
5.360046148300171,0.031494140625,-0.98779296875,0.271728515625,-1.3206106870229009,-0.20610687022900764,-1.213740458015267
5.370055675506592,0.02880859375,-0.99658203125,0.278076171875,-1.1450381679389312,-0.13740458015267176,-0.9847328244274809
5.380057334899902,0.027099609375,-0.98583984375,0.2763671875,-0.9923664122137404,0.19083969465648856,-1.0076335877862594
5.390056848526001,0.024658203125,-0.990478515625,0.27001953125,-0.8702290076335878,0.0916030534351145,-1.0534351145038168
5.400058031082153,0.0234375,-0.9814453125,0.28369140625,-1.0,0.03816793893129771,-1.0763358778625953
5.410055637359619,0.023193359375,-0.99072265625,0.275146484375,-0.8931297709923665,-0.20610687022900764,-1.1068702290076335
5.420057773590088,0.0244140625,-0.989501953125,0.270263671875,-0.9389312977099237,-0.2366412213740458,-1.2213740458015268
5.430047988891602,0.01708984375,-0.973876953125,0.27685546875,-1.0,-0.13740458015267176,-1.3206106870229009
5.440058708190918,0.0224609375,-0.9931640625,0.275634765625,-0.8931297709923665,-0.030534351145038167,-1.2671755725190839
5.450056314468384,0.02392578125,-0.994140625,0.281982421875,-0.9389312977099237,-0.16793893129770993,-0.9923664122137404
5.460056781768799,0.025390625,-0.983154296875,0.279541015625,-1.1526717557251909,0.19083969465648856,-0.9236641221374046
5.470056533813477,0.022705078125,-0.984619140625,0.28173828125,-1.1068702290076335,0.25190839694656486,-1.0458015267175573
5.480056285858154,0.026611328125,-0.98974609375,0.273681640625,-1.0534351145038168,-0.1450381679389313,-1.3587786259541985
5.49005651473999,0.029052734375,-0.9736328125,0.269775390625,-1.1145038167938932,-0.33587786259541985,-1.4961832061068703
5.500050783157349,0.017333984375,-0.995849609375,0.274658203125,-1.0305343511450382,-0.17557251908396945,-1.2061068702290076
5.510056734085083,0.02490234375,-0.9873046875,0.27783203125,-0.7862595419847328,-0.16030534351145037,-1.0381679389312977
5.520058870315552,0.023681640625,-0.98974609375,0.272705078125,-0.7480916030534351,1.9236641221374047,-1.1145038167938932
5.530056715011597,0.0244140625,-0.987548828125,0.27001953125,-1.0687022900763359,1.9236641221374047,-1.2900763358778626
5.540056943893433,0.02294921875,-0.99169921875,0.2763671875,-1.0458015267175573,-0.04580152671755725,-1.0534351145038168
5.550056457519531,0.020263671875,-0.9951171875,0.27001953125,-0.8396946564885496,-1.9083969465648856,-1.2290076335877862
5.560056686401367,0.024169921875,-0.99169921875,0.271728515625,-1.0,-0.09923664122137404,-1.282442748091603
5.570049524307251,0.040771484375,-0.98681640625,0.26708984375,-0.9312977099236641,-0.17557251908396945,-0.9618320610687023
5.58005690574646,0.019775390625,-0.98828125,0.274658203125,-0.8473282442748091,0.25190839694656486,-1.0534351145038168
5.590056419372559,0.02734375,-0.997314453125,0.294921875,-1.1450381679389312,-0.2595419847328244,-1.0687022900763359
5.600056171417236,0.0419921875,-0.98974609375,0.273681640625,-1.0610687022900764,0.5343511450381679,-0.7404580152671756
5.610055923461914,0.013671875,-0.973388671875,0.270751953125,-0.08396946564885496,0.8473282442748091,-1.3282442748091603
5.62005615234375,0.013671875,-0.976806640625,0.279541015625,-0.4961832061068702,0.13740458015267176,-2.0
5.630057096481323,0.026123046875,-0.989013671875,0.27734375,-1.213740458015267,-0.11450381679389313,-1.8015267175572518
5.640056371688843,0.0234375,-0.994873046875,0.27685546875,-1.7404580152671756,-0.5572519083969466,-1.5038167938931297
5.6500563621521,0.03662109375,-1.004150390625,0.27880859375,-1.2366412213740459,-1.9541984732824427,-1.099236641221374
5.660056829452515,0.0244140625,-0.971923828125,0.27685546875,-1.3969465648854962,0.183206106870229,-1.2748091603053435
5.6700568199157715,0.018310546875,-0.98876953125,0.26953125,-1.5572519083969465,-0.12213740458015267,-1.2900763358778626
5.680057048797607,0.0302734375,-0.99560546875,0.26171875,-1.3129770992366412,-0.48854961832061067,-1.1908396946564885
5.690056085586548,0.0341796875,-0.99560546875,0.266357421875,-0.9465648854961832,0.0916030534351145,-0.8778625954198473
5.700057506561279,0.024169921875,-0.987548828125,0.270751953125,-0.2824427480916031,0.4122137404580153,-1.0305343511450382
5.710049152374268,0.021728515625,-0.987060546875,0.275146484375,-0.48091603053435117,0.06870229007633588,-1.16793893129771
5.720057487487793,0.030029296875,-0.985595703125,0.274169921875,-0.8015267175572519,1.9389312977099236,-1.1145038167938932
5.730056524276733,0.0205078125,-0.99755859375,0.27490234375,-0.8015267175572519,-0.37404580152671757,-0.9618320610687023
5.7400572299957275,0.025390625,-0.987060546875,0.281982421875,-0.6793893129770993,0.1297709923664122,-1.0610687022900764
5.750056028366089,0.021240234375,-0.99853515625,0.279296875,-1.0229007633587786,-0.1297709923664122,-1.213740458015267
5.760056972503662,0.023681640625,-0.974609375,0.26708984375,-1.450381679389313,-1.9541984732824427,-1.2366412213740459
5.770056247711182,0.026123046875,-0.986328125,0.28955078125,-1.282442748091603,-0.11450381679389313,-1.1908396946564885
5.7800562381744385,0.027099609375,-0.994384765625,0.278564453125,-1.1526717557251909,-0.3282442748091603,-1.213740458015267
5.790055990219116,0.0224609375,-0.9912109375,0.28369140625,-1.183206106870229,-0.06870229007633588,-1.2290076335877862
5.800057649612427,0.02685546875,-0.98486328125,0.2646484375,-0.8396946564885496,-0.09923664122137404,-1.4809160305343512
5.810056447982788,0.02783203125,-0.9892578125,0.2744140625,-1.3435114503816794,-0.25190839694656486,-1.3358778625954197
5.820057392120361,0.02880859375,-0.995849609375,0.27685546875,-1.1145038167938932,-0.29770992366412213,-1.015267175572519
5.830056667327881,0.0234375,-0.9951171875,0.278076171875,-0.7480916030534351,0.12213740458015267,-1.1145038167938932
5.840057134628296,0.025146484375,-0.999755859375,0.2880859375,-0.5343511450381679,0.015267175572519083,-0.8854961832061069
5.850055456161499,0.024658203125,-0.984375,0.27783203125,-0.8473282442748091,0.6412213740458015,-0.9541984732824428
5.860056400299072,0.022705078125,-0.999755859375,0.26904296875,-1.2900763358778626,-0.10687022900763359,-1.3587786259541985
5.87005615234375,0.022705078125,-0.980224609375,0.272216796875,-1.5648854961832062,-0.20610687022900764,-1.381679389312977
5.880056381225586,0.02880859375,-0.98779296875,0.27783203125,-1.4580152671755726,-0.16793893129770993,-1.2748091603053435
5.8900556564331055,0.019775390625,-0.985107421875,0.27294921875,-1.3129770992366412,-0.7022900763358778,-1.297709923664122
5.900056838989258,0.033447265625,-0.9951171875,0.278564453125,-1.6717557251908397,-0.26717557251908397,-1.015267175572519
5.9100565910339355,0.023681640625,-0.995849609375,0.268798828125,-0.9007633587786259,-0.10687022900763359,-0.8702290076335878
5.920056581497192,0.024658203125,-0.987060546875,0.2783203125,-0.45038167938931295,0.7709923664122137,-0.7175572519083969
5.930056571960449,0.0029296875,-0.968994140625,0.27099609375,-0.7786259541984732,-1.9541984732824427,-1.1221374045801527
5.9400622844696045,0.025634765625,-0.970458984375,0.265625,-1.099236641221374,-0.22900763358778625,-1.4045801526717556
5.950056552886963,0.0283203125,-0.972412109375,0.27490234375,-1.0229007633587786,-0.37404580152671757,-1.083969465648855
5.960057258605957,0.03466796875,-0.9921875,0.28076171875,-0.9770992366412213,-0.48091603053435117,-0.8778625954198473
5.970055818557739,0.0224609375,-0.988037109375,0.278076171875,-0.5190839694656488,0.4198473282442748,-0.9923664122137404
5.980059385299683,0.02294921875,-0.994384765625,0.2744140625,-0.7786259541984732,-0.2748091603053435,-0.8854961832061069
5.990058183670044,0.033203125,-0.99169921875,0.265869140625,-0.8549618320610687,0.9541984732824428,-1.0305343511450382
6.000060796737671,0.0205078125,-0.985107421875,0.272216796875,-0.7480916030534351,-0.03816793893129771,-0.8778625954198473
6.0100603103637695,0.015625,-0.99169921875,0.266357421875,-1.6030534351145038,-1.916030534351145,-0.8702290076335878
6.02005934715271,0.02685546875,-0.990478515625,0.27099609375,-1.0687022900763359,-0.22137404580152673,-1.0916030534351144
6.030060291290283,0.02099609375,-0.992431640625,0.271484375,-0.7633587786259542,-0.12213740458015267,-1.3740458015267176
6.040057420730591,0.02392578125,-0.982177734375,0.265869140625,-0.9083969465648855,-0.061068702290076333,-1.3053435114503817
6.050057888031006,0.026611328125,-0.998046875,0.27685546875,-1.1221374045801527,-0.3435114503816794,-1.0076335877862594
6.060058355331421,0.028564453125,-0.9873046875,0.2802734375,-0.5114503816793893,0.4732824427480916,-0.9694656488549618
6.070058345794678,0.021728515625,-0.97705078125,0.28271484375,-0.7175572519083969,1.9465648854961832,-1.3206106870229009
6.080058336257935,0.0283203125,-0.98828125,0.265380859375,-1.5419847328244274,-0.3893129770992366,-1.251908396946565
6.0900609493255615,0.031494140625,-0.9931640625,0.269775390625,-1.4580152671755726,-0.11450381679389313,-0.8625954198473282
6.100060224533081,0.0224609375,-0.99072265625,0.283447265625,-0.6641221374045801,-0.03816793893129771,-0.8320610687022901
6.110058307647705,0.02294921875,-0.986328125,0.278076171875,-0.5038167938931297,0.3969465648854962,-1.0381679389312977
6.120057582855225,0.0244140625,-0.9833984375,0.271240234375,-1.1221374045801527,0.10687022900763359,-1.366412213740458
6.130058288574219,0.025390625,-0.994140625,0.27099609375,-1.534351145038168,-0.19083969465648856,-1.251908396946565
6.14005970954895,0.022705078125,-0.993408203125,0.289794921875,-0.9312977099236641,-0.2595419847328244,-1.1755725190839694
6.150057792663574,0.032470703125,-0.984130859375,0.27685546875,-0.9923664122137404,-0.22900763358778625,-1.0305343511450382
6.160059452056885,0.02880859375,-0.9814453125,0.284912109375,-0.9236641221374046,0.3282442748091603,-0.9312977099236641
6.170058965682983,0.017333984375,-0.98095703125,0.278076171875,-0.8473282442748091,0.183206106870229,-1.3511450381679388
6.180059432983398,0.02783203125,-0.988525390625,0.266845703125,-1.2061068702290076,-0.26717557251908397,-1.534351145038168
6.190058469772339,0.025634765625,-0.994384765625,0.274658203125,-1.366412213740458,-0.31297709923664124,-1.1603053435114503
6.200059175491333,0.03271484375,-0.995849609375,0.277587890625,-1.1984732824427482,-0.17557251908396945,-0.9770992366412213
6.2100584506988525,0.0263671875,-0.9990234375,0.2861328125,-0.8091603053435115,0.1984732824427481,-0.8778625954198473
6.220058441162109,0.02099609375,-0.986328125,0.27392578125,-0.8396946564885496,0.3893129770992366,-0.9312977099236641
6.230057716369629,0.020263671875,-0.992431640625,0.2724609375,-0.9770992366412213,-1.9312977099236641,-1.16793893129771
6.240058660507202,0.02294921875,-0.98583984375,0.26904296875,-1.1908396946564885,-0.25190839694656486,-1.015267175572519
6.250057935714722,0.021484375,-0.98876953125,0.28125,-0.9618320610687023,-0.08396946564885496,-1.015267175572519
6.260059356689453,0.031005859375,-0.994384765625,0.271728515625,-0.7175572519083969,-0.21374045801526717,-1.0305343511450382
6.2700583934783936,0.0234375,-0.994140625,0.276123046875,-0.9083969465648855,0.16030534351145037,-1.1526717557251909
6.280059099197388,0.026123046875,-0.99853515625,0.29296875,-0.732824427480916,-0.183206106870229,-1.1221374045801527
6.290058374404907,0.02685546875,-0.986328125,0.271728515625,-1.0687022900763359,-1.9541984732824427,-1.1984732824427482
6.300058841705322,0.030517578125,-0.98974609375,0.266845703125,-1.0229007633587786,-0.29770992366412213,-1.0229007633587786
6.310058116912842,0.024169921875,-0.98388671875,0.277099609375,-0.9694656488549618,0.08396946564885496,-0.9770992366412213
6.320059537887573,0.0244140625,-0.989013671875,0.27880859375,-0.9312977099236641,0.061068702290076333,-1.1908396946564885
6.330058336257935,0.027587890625,-0.99365234375,0.276123046875,-1.0763358778625953,-0.2824427480916031,-1.213740458015267
6.34005880355835,0.0283203125,-0.992431640625,0.27783203125,-1.366412213740458,-0.05343511450381679,-0.9541984732824428
6.350058317184448,0.0205078125,-0.99560546875,0.273681640625,-1.0763358778625953,0.0,-0.9312977099236641
6.360058784484863,0.023681640625,-0.991943359375,0.27734375,-0.8702290076335878,0.183206106870229,-1.1374045801526718
6.370058298110962,0.02587890625,-0.9921875,0.268798828125,-0.916030534351145,0.1450381679389313,-1.1374045801526718
6.380057334899902,0.027099609375,-0.970947265625,0.275634765625,-1.0,-1.9236641221374047,-1.015267175572519
6.390059232711792,0.02294921875,-0.988037109375,0.280517578125,-0.8091603053435115,-0.2824427480916031,-0.9618320610687023
6.400059461593628,0.024169921875,-0.9873046875,0.27587890625,-0.8396946564885496,0.007633587786259542,-1.1450381679389312
6.41005802154541,0.028564453125,-0.987060546875,0.2783203125,-0.9770992366412213,-0.183206106870229,-1.0916030534351144
6.420065879821777,0.02880859375,-0.987548828125,0.27685546875,-1.1068702290076335,0.007633587786259542,-1.0305343511450382
6.430060625076294,0.02734375,-0.993896484375,0.27685546875,-1.251908396946565,-0.11450381679389313,-1.0458015267175573
6.440057992935181,0.024658203125,-0.986328125,0.267822265625,-0.8015267175572519,0.24427480916030533,-0.9389312977099237
6.450058698654175,0.018310546875,-0.987060546875,0.273681640625,-0.9312977099236641,0.022900763358778626,-1.4045801526717556
6.460057973861694,0.024658203125,-0.98779296875,0.274658203125,-1.083969465648855,-0.5801526717557252,-1.5114503816793894
6.47005820274353,0.02978515625,-0.991455078125,0.275146484375,-1.3358778625954197,-1.9389312977099236,-0.9694656488549618
6.480058431625366,0.0224609375,-0.99755859375,0.26025390625,-0.8320610687022901,-0.11450381679389313,-0.8549618320610687
6.490057706832886,0.02490234375,-0.986328125,0.27587890625,-0.29770992366412213,0.5190839694656488,-0.9541984732824428
6.500056982040405,0.0224609375,-0.985107421875,0.270751953125,-0.8778625954198473,0.26717557251908397,-1.1450381679389312
6.510061025619507,0.02392578125,-0.98046875,0.267822265625,-1.4961832061068703,-0.2900763358778626,-1.2366412213740459
6.520056962966919,0.024169921875,-0.987548828125,0.282470703125,-1.4198473282442747,-0.4351145038167939,-1.2061068702290076
6.530056476593018,0.01904296875,-0.996826171875,0.27734375,-1.1374045801526718,-0.366412213740458,-0.9847328244274809
6.5400567054748535,0.017822265625,-0.990966796875,0.296630859375,-1.0076335877862594,0.1984732824427481,-0.7022900763358778
6.550055503845215,0.0185546875,-0.990966796875,0.2734375,-0.816793893129771,0.2366412213740458,-1.1068702290076335
6.5600504875183105,0.025146484375,-0.98095703125,0.2724609375,-0.9312977099236641,0.1450381679389313,-1.2595419847328244
6.570055961608887,0.0224609375,-0.989501953125,0.268310546875,-0.9083969465648855,-0.2595419847328244,-1.2442748091603053
6.580057382583618,0.029541015625,-0.990966796875,0.27294921875,-1.0916030534351144,-0.11450381679389313,-1.1221374045801527
6.5900561809539795,0.025146484375,-0.99169921875,0.27978515625,-0.8015267175572519,-1.9541984732824427,-0.9312977099236641
6.600057601928711,0.02734375,-0.984130859375,0.283935546875,-0.8320610687022901,0.17557251908396945,-0.9923664122137404
6.610055923461914,0.020751953125,-0.990966796875,0.27001953125,-0.8396946564885496,0.12213740458015267,-1.3511450381679388
6.620056867599487,0.022216796875,-0.974365234375,0.278564453125,-1.0,1.8931297709923665,-1.16793893129771
6.630056142807007,0.024658203125,-0.98486328125,0.280517578125,-1.2366412213740459,-0.09923664122137404,-1.1297709923664123
6.640056848526001,0.026611328125,-0.98779296875,0.280029296875,-1.083969465648855,-0.061068702290076333,-1.0687022900763359
6.650057077407837,0.021484375,-0.989013671875,0.271240234375,-1.015267175572519,-0.06870229007633588,-1.213740458015267
6.660056829452515,0.0263671875,-0.9873046875,0.271728515625,-1.0,0.06870229007633588,-1.099236641221374
6.6700568199157715,0.023681640625,-0.984375,0.271728515625,-1.16793893129771,0.1297709923664122,-1.0916030534351144
6.6800572872161865,0.02587890625,-0.986572265625,0.2734375,-1.015267175572519,-0.17557251908396945,-1.251908396946565
6.690056324005127,0.0263671875,-0.9912109375,0.284423828125,-0.6717557251908397,-0.1450381679389313,-1.1603053435114503
6.700056552886963,0.02197265625,-0.998291015625,0.281005859375,-0.8396946564885496,-1.9389312977099236,-1.1755725190839694
6.71005654335022,0.023681640625,-0.9921875,0.2763671875,-0.9312977099236641,-0.12213740458015267,-1.0610687022900764
6.720058441162109,0.020751953125,-0.984375,0.278564453125,-0.9465648854961832,-0.06870229007633588,-0.9694656488549618
6.730056524276733,0.0244140625,-0.9931640625,0.278076171875,-1.0076335877862594,-0.13740458015267176,-0.8778625954198473
6.740056991577148,0.0302734375,-0.98876953125,0.280517578125,-1.1221374045801527,0.030534351145038167,-1.1603053435114503
6.750056505203247,0.02490234375,-0.98486328125,0.2822265625,-1.1984732824427482,0.061068702290076333,-1.015267175572519
6.760056972503662,0.02099609375,-0.991455078125,0.281005859375,-1.1068702290076335,-0.030534351145038167,-1.1068702290076335
6.770056247711182,0.02734375,-0.989990234375,0.271728515625,-0.7786259541984732,-0.030534351145038167,-1.1526717557251909
6.780056715011597,0.025634765625,-0.970947265625,0.277099609375,-0.9083969465648855,-0.03816793893129771,-0.9923664122137404
6.790051460266113,0.02880859375,-0.99169921875,0.271728515625,-0.9389312977099237,-0.015267175572519083,-0.9847328244274809
6.800057411193848,0.025634765625,-0.99365234375,0.278564453125,-0.9465648854961832,-0.08396946564885496,-1.0763358778625953
6.81005597114563,0.029052734375,-0.990966796875,0.2783203125,-0.7633587786259542,1.8854961832061068,-0.9465648854961832
6.820056915283203,0.0283203125,-0.9912109375,0.295166015625,-0.9923664122137404,0.10687022900763359,-1.0534351145038168
6.830056190490723,0.026123046875,-0.9814453125,0.268798828125,-0.732824427480916,0.17557251908396945,-1.282442748091603
6.8400561809539795,0.02197265625,-0.989013671875,0.264404296875,-1.1984732824427482,-0.5954198473282443,-1.4885496183206106
6.8500566482543945,0.029541015625,-0.97998046875,0.2802734375,-0.9465648854961832,1.8854961832061068,-3.8396946564885495
6.860057830810547,0.018798828125,-0.998291015625,0.275390625,-1.6946564885496183,-1.4198473282442747,-1.4732824427480915
6.870055913925171,0.03955078125,-1.01513671875,0.278564453125,-2.045801526717557,0.12213740458015267,-0.5343511450381679
6.880057096481323,0.016357421875,-0.984619140625,0.2880859375,-0.9236641221374046,0.8549618320610687,-0.44274809160305345
6.890055894851685,0.008544921875,-0.976318359375,0.265625,-0.9312977099236641,0.07633587786259542,-1.6488549618320612
6.900056838989258,0.020263671875,-0.98681640625,0.2646484375,-1.549618320610687,-0.6335877862595419,-1.6717557251908397
6.9100563526153564,0.03125,-0.994384765625,0.2578125,-1.4122137404580153,-0.6564885496183206,-1.2671755725190839
6.9200568199157715,0.033447265625,-0.99658203125,0.28662109375,-0.7786259541984732,0.2366412213740458,-1.1984732824427482
6.930049657821655,0.020751953125,-0.986328125,0.292724609375,-0.7251908396946565,-0.007633587786259542,-1.2213740458015268
6.940056324005127,0.031494140625,-0.989501953125,0.2734375,-1.4809160305343512,0.2366412213740458,-1.4045801526717556
6.950056791305542,0.026611328125,-0.99658203125,0.267578125,-1.8702290076335877,-0.19083969465648856,-1.1450381679389312
6.960057497024536,0.028076171875,-0.989990234375,0.271484375,-1.3740458015267176,0.08396946564885496,-1.0763358778625953
6.970057010650635,0.02734375,-0.987548828125,0.288330078125,-1.2061068702290076,0.07633587786259542,-1.1068702290076335
6.98005747795105,0.02734375,-0.988037109375,0.273681640625,-1.1908396946564885,-0.32061068702290074,-1.2061068702290076
6.990056991577148,0.0302734375,-0.990966796875,0.274658203125,-0.9541984732824428,0.09923664122137404,-1.0076335877862594
7.000059127807617,0.022216796875,-0.98828125,0.275146484375,-0.48091603053435117,0.1450381679389313,-0.8854961832061069
7.010056972503662,0.030517578125,-0.990478515625,0.27587890625,-0.4580152671755725,-1.9541984732824427,-1.2442748091603053
7.020057439804077,0.02978515625,-0.987548828125,0.278076171875,-0.7251908396946565,-0.0916030534351145,-1.213740458015267
7.030058145523071,0.040771484375,-0.986328125,0.274658203125,-0.9312977099236641,-0.16793893129770993,-1.2595419847328244
7.04005765914917,0.0380859375,-0.98876953125,0.2734375,-1.2366412213740459,-0.12213740458015267,-1.0610687022900764
7.05005669593811,0.027099609375,-0.989013671875,0.27587890625,-1.0076335877862594,0.16030534351145037,-1.1297709923664123
7.060057640075684,0.044677734375,-0.971435546875,0.26708984375,-1.251908396946565,-1.9465648854961832,-1.1755725190839694
7.070055246353149,0.025634765625,-0.974609375,0.275634765625,-1.1221374045801527,0.0,-1.1755725190839694
7.08005690574646,0.021484375,-0.989501953125,0.2734375,-1.213740458015267,-0.2824427480916031,-1.2748091603053435
7.090056419372559,0.0224609375,-0.983642578125,0.265625,-1.1984732824427482,0.09923664122137404,-1.0381679389312977
7.100056171417236,0.02392578125,-0.984619140625,0.27880859375,-0.7480916030534351,-0.04580152671755725,-1.0229007633587786
7.110056161880493,0.02197265625,-0.985595703125,0.26708984375,-0.6641221374045801,0.25190839694656486,-0.9618320610687023
7.120056629180908,0.02880859375,-0.984375,0.27392578125,-0.8091603053435115,-0.1450381679389313,-1.0
7.130056619644165,0.01611328125,-0.9892578125,0.25390625,-0.8931297709923665,-1.9465648854961832,-1.099236641221374
7.140052318572998,0.046630859375,-0.974609375,0.267333984375,-0.9923664122137404,-0.183206106870229,-1.1603053435114503
7.150056600570679,0.027099609375,-0.989013671875,0.27197265625,-1.0916030534351144,1.9083969465648856,-1.0458015267175573
7.160057067871094,0.0263671875,-0.982666015625,0.268310546875,-1.1603053435114503,-0.061068702290076333,-1.1603053435114503
7.170056581497192,0.029052734375,-0.98681640625,0.267333984375,-1.2290076335877862,-0.015267175572519083,-1.183206106870229
7.1800572872161865,0.02294921875,-0.990966796875,0.278564453125,-1.1450381679389312,0.061068702290076333,-1.0916030534351144
7.190056324005127,0.03173828125,-0.991943359375,0.276123046875,-1.0229007633587786,1.900763358778626,-1.0534351145038168
7.200057029724121,0.0283203125,-0.991943359375,0.271728515625,-0.7862595419847328,-0.11450381679389313,-1.0
7.21005392074585,0.030029296875,-0.990966796875,0.277099609375,-1.0381679389312977,-0.22900763358778625,-1.0687022900763359
7.220057010650635,0.0302734375,-0.992431640625,0.271240234375,-0.8702290076335878,0.0,-1.0
7.230055809020996,0.02392578125,-0.998291015625,0.269775390625,-0.8091603053435115,0.03816793893129771,-0.9236641221374046
7.2400572299957275,0.02783203125,-0.971923828125,0.275390625,-0.8091603053435115,0.16030534351145037,-0.9465648854961832
7.250056505203247,0.02734375,-0.988525390625,0.27197265625,-0.9541984732824428,1.9312977099236641,-1.2213740458015268
7.26005744934082,0.023193359375,-0.992431640625,0.263916015625,-1.0534351145038168,-0.08396946564885496,-1.1908396946564885
7.270056247711182,0.021484375,-0.9912109375,0.27685546875,-1.0381679389312977,-0.015267175572519083,-1.1984732824427482
7.28005576133728,0.025390625,-0.9912109375,0.273681640625,-0.9389312977099237,-0.1984732824427481,-1.0076335877862594
7.290056467056274,0.027099609375,-0.986572265625,0.27880859375,-1.1450381679389312,-0.16793893129770993,-1.1068702290076335
7.300057649612427,0.042724609375,-0.989013671875,0.271484375,-1.183206106870229,-0.06870229007633588,-1.1755725190839694
7.310055732727051,0.025390625,-0.995849609375,0.272705078125,-0.9541984732824428,-0.05343511450381679,-1.0305343511450382
7.320056915283203,0.0302734375,-0.98779296875,0.278076171875,-0.9312977099236641,-0.07633587786259542,-0.916030534351145
7.330056190490723,0.02734375,-0.98876953125,0.27099609375,-0.7633587786259542,0.0,-1.083969465648855
7.340057373046875,0.027099609375,-0.98974609375,0.275146484375,-0.8015267175572519,0.13740458015267176,-0.9694656488549618
7.350055694580078,0.02392578125,-0.987060546875,0.26806640625,-0.8702290076335878,0.007633587786259542,-1.1145038167938932
7.360062837600708,0.028076171875,-0.98681640625,0.2783203125,-1.0381679389312977,-0.12213740458015267,-1.1984732824427482
7.370058059692383,0.027099609375,-0.991455078125,0.27392578125,-1.0916030534351144,-1.9312977099236641,-1.1603053435114503
7.380056381225586,0.020263671875,-0.987060546875,0.28076171875,-1.015267175572519,-0.1297709923664122,-1.0610687022900764
7.39005708694458,0.0244140625,-0.992919921875,0.265869140625,-1.0229007633587786,-0.06870229007633588,-1.099236641221374
7.400067090988159,0.0224609375,-0.991455078125,0.271484375,-1.0610687022900764,-1.900763358778626,-0.9618320610687023
7.410057306289673,0.023193359375,-0.99462890625,0.278076171875,-0.9923664122137404,-1.9236641221374047,-1.1526717557251909
7.420055866241455,0.0244140625,-0.986328125,0.278076171875,-1.1221374045801527,-0.022900763358778626,-1.083969465648855
7.430057048797607,0.01904296875,-0.992431640625,0.26904296875,-0.9847328244274809,-0.06870229007633588,-0.9770992366412213
7.440051078796387,0.032958984375,-0.98828125,0.269287109375,-1.0381679389312977,0.03816793893129771,-1.1450381679389312
7.450056552886963,0.02392578125,-0.9912109375,0.271240234375,-0.8625954198473282,-1.9312977099236641,-0.8854961832061069
7.460066080093384,0.02392578125,-0.9814453125,0.274169921875,-0.9465648854961832,-0.05343511450381679,-0.9465648854961832
7.470056772232056,0.03759765625,-0.98681640625,0.2861328125,-0.9694656488549618,-0.06870229007633588,-1.1145038167938932
7.480057239532471,0.0244140625,-0.990966796875,0.273681640625,-0.9465648854961832,-0.15267175572519084,-1.2061068702290076
7.490056753158569,0.025390625,-0.9970703125,0.278564453125,-0.9083969465648855,0.007633587786259542,-1.2290076335877862
7.500056982040405,0.02001953125,-0.986572265625,0.269287109375,-1.16793893129771,-0.04580152671755725,-1.1145038167938932
7.510056018829346,0.0185546875,-0.9775390625,0.279296875,-1.1297709923664123,-0.06870229007633588,-1.1450381679389312
7.520057916641235,0.03076171875,-0.9931640625,0.275634765625,-1.0458015267175573,1.816793893129771,-1.1908396946564885
7.530056476593018,0.0283203125,-0.995361328125,0.284912109375,-1.1221374045801527,-0.07633587786259542,-1.0916030534351144
7.540057420730591,0.02099609375,-0.986572265625,0.279296875,-0.9083969465648855,-0.04580152671755725,-1.0
7.550056219100952,0.025390625,-0.988037109375,0.268798828125,-0.9923664122137404,-0.1450381679389313,-1.2442748091603053
7.560056686401367,0.044189453125,-0.987548828125,0.29443359375,-1.0381679389312977,0.04580152671755725,-1.0458015267175573
7.570055961608887,0.0234375,-0.969482421875,0.271728515625,-0.9694656488549618,-0.24427480916030533,-1.0916030534351144
7.5800604820251465,0.026611328125,-0.988037109375,0.2744140625,-0.9312977099236641,-0.07633587786259542,-1.2595419847328244
7.5900559425354,0.02392578125,-0.99365234375,0.27783203125,-0.8931297709923665,-0.0916030534351145,-1.0076335877862594
7.6000566482543945,0.022705078125,-0.99072265625,0.2705078125,-0.9007633587786259,0.09923664122137404,-1.0916030534351144
7.610055923461914,0.02392578125,-0.9892578125,0.278076171875,-0.9389312977099237,-0.007633587786259542,-1.1755725190839694
7.620056867599487,0.023193359375,-0.983642578125,0.273681640625,-0.9465648854961832,-0.07633587786259542,-1.015267175572519
7.630056619644165,0.0224609375,-0.988037109375,0.276123046875,-0.9541984732824428,-0.06870229007633588,-1.2061068702290076
7.640057325363159,0.021728515625,-0.988525390625,0.28125,-0.9389312977099237,-0.12213740458015267,-1.1908396946564885
7.650058031082153,0.028076171875,-0.99072265625,0.2705078125,-1.0381679389312977,-1.900763358778626,-1.183206106870229
7.6600565910339355,0.0234375,-0.992431640625,0.29638671875,-0.8931297709923665,-0.03816793893129771,-1.015267175572519
7.670056581497192,0.026123046875,-0.97021484375,0.2841796875,-0.8854961832061069,1.9465648854961832,-1.0610687022900764
7.68005633354187,0.02783203125,-0.988037109375,0.272216796875,-0.9465648854961832,-0.1297709923664122,-1.0610687022900764
7.690056800842285,0.023681640625,-0.98974609375,0.275390625,-1.1221374045801527,0.022900763358778626,-1.1755725190839694
7.700056076049805,0.0263671875,-0.9892578125,0.271728515625,-0.9694656488549618,0.07633587786259542,-1.0610687022900764
7.71005654335022,0.02490234375,-0.992919921875,0.2763671875,-0.8778625954198473,-0.2900763358778626,-1.1068702290076335
7.720048904418945,0.0224609375,-0.988037109375,0.272216796875,-0.9770992366412213,0.015267175572519083,-1.183206106870229
7.730056524276733,0.038818359375,-0.988037109375,0.27734375,-0.9007633587786259,-1.9312977099236641,-1.1221374045801527
7.740056037902832,0.02392578125,-0.99169921875,0.27392578125,-0.8091603053435115,0.007633587786259542,-1.0534351145038168
7.750056028366089,0.028564453125,-0.9912109375,0.271240234375,-1.083969465648855,-0.09923664122137404,-1.3129770992366412
7.760056972503662,0.026123046875,-0.991943359375,0.296630859375,-1.1374045801526718,0.183206106870229,-1.183206106870229
7.770056247711182,0.027587890625,-0.9912109375,0.272705078125,-1.1526717557251909,-0.11450381679389313,-1.1145038167938932
7.780057430267334,0.0263671875,-0.99169921875,0.27978515625,-1.0763358778625953,-0.20610687022900764,-1.0687022900763359
7.790047645568848,0.024658203125,-0.995849609375,0.2734375,-1.1603053435114503,-0.16793893129770993,-1.099236641221374
7.80005669593811,0.01904296875,-0.992431640625,0.271728515625,-0.8778625954198473,0.030534351145038167,-0.7938931297709924
7.810056209564209,0.030029296875,-0.988037109375,0.2724609375,-0.916030534351145,1.9312977099236641,-1.015267175572519
7.820057392120361,0.017578125,-0.99072265625,0.276611328125,-1.0305343511450382,0.03816793893129771,-1.1221374045801527
7.830056190490723,0.029296875,-0.98876953125,0.27880859375,-0.8244274809160306,-0.022900763358778626,-1.1297709923664123
7.840056896209717,0.020263671875,-0.986083984375,0.287841796875,-0.7938931297709924,-0.11450381679389313,-0.9923664122137404
7.850055932998657,0.027587890625,-0.988037109375,0.2802734375,-1.0229007633587786,0.05343511450381679,-1.0229007633587786
7.8600616455078125,0.02587890625,-0.9892578125,0.276611328125,-0.9770992366412213,-0.04580152671755725,-1.1603053435114503
7.870055913925171,0.026611328125,-0.987548828125,0.278564453125,-1.213740458015267,1.900763358778626,-1.0
7.880056858062744,0.0234375,-0.99072265625,0.277587890625,-1.16793893129771,1.9312977099236641,-1.1374045801526718
7.890056371688843,0.029541015625,-0.991943359375,0.274658203125,-1.0305343511450382,-1.9465648854961832,-1.0229007633587786
7.900057077407837,0.024658203125,-0.993408203125,0.2744140625,-1.0534351145038168,0.015267175572519083,-0.9770992366412213
7.910056114196777,0.01904296875,-0.986083984375,0.267578125,-0.8320610687022901,-0.04580152671755725,-1.0076335877862594
7.920056581497192,0.023681640625,-0.99072265625,0.256103515625,-0.7633587786259542,-0.17557251908396945,-1.1297709923664123
7.930056095123291,0.02978515625,-0.99658203125,0.26953125,-0.8931297709923665,-0.11450381679389313,-1.2213740458015268
7.9400575160980225,0.026611328125,-0.984375,0.28369140625,-0.9389312977099237,-0.1450381679389313,-1.0458015267175573
7.950059413909912,0.02001953125,-0.9892578125,0.2724609375,-1.1145038167938932,-0.10687022900763359,-0.9770992366412213
7.960059404373169,0.026611328125,-0.987060546875,0.270751953125,-1.1145038167938932,0.183206106870229,-0.8778625954198473
7.970058917999268,0.0244140625,-0.99169921875,0.27587890625,-1.0,0.1297709923664122,-0.9847328244274809
7.980058431625366,0.02587890625,-0.984375,0.263427734375,-0.7251908396946565,0.2824427480916031,-1.0458015267175573
7.990057945251465,0.021728515625,-0.999755859375,0.273681640625,-0.7633587786259542,-0.2748091603053435,-1.3129770992366412
8.00005841255188,0.02392578125,-0.986083984375,0.2734375,-1.1984732824427482,-0.3053435114503817,-1.282442748091603
8.010060548782349,0.0322265625,-0.990234375,0.27880859375,-1.381679389312977,-0.3893129770992366,-1.0763358778625953
8.020058155059814,0.028564453125,-0.99951171875,0.270751953125,-1.3129770992366412,-0.2748091603053435,-0.9007633587786259
8.030057191848755,0.02783203125,-0.992431640625,0.281005859375,-0.7557251908396947,0.3282442748091603,-0.8396946564885496
8.040056943893433,0.027099609375,-0.9873046875,0.271728515625,-0.6717557251908397,0.21374045801526717,-1.0534351145038168
8.050055980682373,0.017333984375,-0.98583984375,0.265869140625,-0.9312977099236641,0.022900763358778626,-1.0916030534351144
8.060057163238525,0.024169921875,-0.9873046875,0.2763671875,-0.8931297709923665,-0.183206106870229,-1.3282442748091603
8.070055961608887,0.033447265625,-0.991455078125,0.272705078125,-1.083969465648855,-0.16030534351145037,-0.8931297709923665
8.080057382583618,0.0458984375,-0.9951171875,0.285888671875,-1.0534351145038168,-0.11450381679389313,-0.9312977099236641
8.090055704116821,0.0283203125,-0.990966796875,0.279296875,-1.0610687022900764,0.183206106870229,-1.0
8.100057363510132,0.0263671875,-0.9814453125,0.27685546875,-1.0610687022900764,0.4351145038167939,-1.2442748091603053
8.110051393508911,0.0234375,-0.990478515625,0.269775390625,-1.297709923664122,-0.015267175572519083,-1.2061068702290076
8.120057106018066,0.031494140625,-0.990478515625,0.281494140625,-1.2442748091603053,-0.061068702290076333,-1.1068702290076335
8.130057096481323,0.0244140625,-0.9951171875,0.274169921875,-1.099236641221374,-0.17557251908396945,-1.2061068702290076
8.14005732536316,0.024658203125,-0.98974609375,0.27880859375,-0.8854961832061069,-0.10687022900763359,-1.1603053435114503
8.150055646896362,0.02783203125,-0.983154296875,0.264892578125,-0.8625954198473282,-1.916030534351145,-1.2061068702290076
8.160056352615356,0.0234375,-0.990478515625,0.269775390625,-1.0381679389312977,-0.0916030534351145,-1.0
8.17005705833435,0.0263671875,-0.991455078125,0.273681640625,-0.549618320610687,-0.022900763358778626,-1.0534351145038168
8.180049896240234,0.025634765625,-0.984619140625,0.27392578125,-0.6030534351145038,0.16793893129770993,-1.0305343511450382
8.190056562423706,0.027099609375,-0.991943359375,0.27880859375,-0.6412213740458015,0.1984732824427481,-0.9847328244274809
8.200057029724121,0.031005859375,-0.983642578125,0.2763671875,-0.9694656488549618,1.9236641221374047,-1.213740458015267
8.210057020187378,0.028076171875,-0.988525390625,0.2841796875,-1.534351145038168,-0.12213740458015267,-1.0229007633587786
8.220057249069214,0.02392578125,-0.99609375,0.27490234375,-1.5190839694656488,-0.08396946564885496,-1.3053435114503817
8.230056047439575,0.02978515625,-0.986572265625,0.2724609375,-1.6641221374045803,0.20610687022900764,-1.0916030534351144
8.240057706832886,0.02880859375,-0.979736328125,0.275634765625,-1.381679389312977,0.07633587786259542,-1.2442748091603053
8.250056743621826,0.025634765625,-0.99072265625,0.2822265625,-1.0687022900763359,-0.03816793893129771,-0.8778625954198473
8.260056734085083,0.030029296875,-0.99853515625,0.279541015625,-0.7404580152671756,-0.06870229007633588,-0.9312977099236641
8.270056009292603,0.02978515625,-0.974365234375,0.2763671875,-0.5801526717557252,-1.9541984732824427,-0.9847328244274809
8.280056953430176,0.02685546875,-0.987548828125,0.2734375,-0.42748091603053434,-0.17557251908396945,-0.8473282442748091
8.290055990219116,0.02490234375,-0.990966796875,0.275634765625,-0.40458015267175573,0.32061068702290074,-0.8244274809160306
8.300057411193848,0.013427734375,-0.988525390625,0.28857421875,-0.0916030534351145,0.8015267175572519,-1.3358778625954197
8.310056447982788,0.02294921875,-0.986572265625,0.295654296875,-1.16793893129771,0.8015267175572519,-1.4580152671755726
8.320051193237305,0.032958984375,-0.984130859375,0.27685546875,-2.687022900763359,0.007633587786259542,-1.4045801526717556
8.330055713653564,0.04638671875,-0.9912109375,0.268798828125,-2.7938931297709924,-0.5038167938931297,-1.0763358778625953
8.340057373046875,0.03125,-0.99072265625,0.26513671875,-2.0229007633587788,-0.7099236641221374,-1.2595419847328244
8.350056171417236,0.022216796875,-0.992919921875,0.258056640625,-1.1984732824427482,-1.9389312977099236,-0.9312977099236641
8.36005711555481,0.013671875,-0.98974609375,0.26416015625,-0.549618320610687,-0.20610687022900764,-0.9618320610687023
8.370055675506592,0.0166015625,-0.986328125,0.27001953125,-0.10687022900763359,0.2595419847328244,-1.0
8.380057096481323,0.02197265625,-0.98583984375,0.272705078125,0.4351145038167939,0.22137404580152673,-0.8320610687022901
8.390055894851685,0.02392578125,-0.990234375,0.2841796875,0.05343511450381679,0.48091603053435117,-1.0610687022900764
8.400056838989258,0.02783203125,-0.98583984375,0.28369140625,-0.7175572519083969,0.2748091603053435,-1.1984732824427482
8.410056114196777,0.02734375,-0.99365234375,0.27099609375,-1.5267175572519085,-0.45038167938931295,-1.0534351145038168
8.42005729675293,0.022216796875,-0.990478515625,0.271728515625,-1.4961832061068703,-0.2366412213740458,-0.8702290076335878
8.430056095123291,0.0263671875,-0.9853515625,0.26611328125,-1.1374045801526718,-0.22900763358778625,-1.1526717557251909
8.440056800842285,0.019775390625,-0.98828125,0.2783203125,-0.9465648854961832,0.0916030534351145,-1.1984732824427482
8.450056791305542,0.028564453125,-0.98974609375,0.273681640625,-0.9923664122137404,-0.16030534351145037,-1.3358778625954197
8.460050821304321,0.027587890625,-0.9873046875,0.281005859375,-1.3053435114503817,-0.08396946564885496,-0.9694656488549618
8.470056772232056,0.02490234375,-0.9931640625,0.271728515625,-1.1145038167938932,0.015267175572519083,-1.0381679389312977
8.48005723953247,0.029296875,-0.991943359375,0.272216796875,-1.282442748091603,0.0916030534351145,-1.099236641221374
8.490056037902832,0.02099609375,-0.980224609375,0.262451171875,-1.0610687022900764,-0.05343511450381679,-1.183206106870229
8.500056982040405,0.0205078125,-0.98876953125,0.263427734375,-0.8091603053435115,-0.183206106870229,-0.9541984732824428
8.510058403015137,0.02490234375,-0.9853515625,0.271728515625,-0.5343511450381679,0.03816793893129771,-1.1526717557251909
8.520057678222656,0.023681640625,-0.992919921875,0.2958984375,-0.45038167938931295,-0.007633587786259542,-0.9312977099236641
8.530057430267334,0.03369140625,-0.98974609375,0.27685546875,-0.6870229007633588,0.061068702290076333,-1.0458015267175573
8.54005742073059,0.024658203125,-0.9892578125,0.283203125,-1.0305343511450382,-0.183206106870229,-1.1526717557251909
8.550056457519531,0.016845703125,-0.98828125,0.282470703125,-1.3053435114503817,1.8931297709923665,-1.297709923664122
8.560057163238525,0.0244140625,-0.991943359375,0.281494140625,-1.3511450381679388,1.9236641221374047,-1.0916030534351144
8.570056200027466,0.025390625,-0.9892578125,0.275634765625,-1.1450381679389312,0.07633587786259542,-1.1297709923664123
8.580057144165039,0.027587890625,-0.9912109375,0.275390625,-0.7633587786259542,-0.2366412213740458,-1.1145038167938932
8.59005618095398,0.02587890625,-0.990234375,0.279541015625,-1.083969465648855,-0.030534351145038167,-0.9312977099236641
8.600057601928711,0.0283203125,-0.9912109375,0.27392578125,-0.8625954198473282,0.015267175572519083,-0.9389312977099237
8.610056400299072,0.023193359375,-0.99560546875,0.2734375,-0.732824427480916,0.22137404580152673,-1.0305343511450382
8.620056867599487,0.0283203125,-0.98828125,0.271484375,-0.7557251908396947,0.07633587786259542,-0.9694656488549618
8.630055904388428,0.016845703125,-0.984375,0.265625,-0.9694656488549618,-0.007633587786259542,-1.1221374045801527
8.64005732536316,0.025146484375,-0.986083984375,0.265380859375,-1.0610687022900764,0.061068702290076333,-1.0076335877862594
8.650056600570679,0.0810546875,-0.9638671875,0.277099609375,-1.381679389312977,-2.877862595419847,4.419847328244275
8.660056829452515,0.090087890625,-0.99365234375,0.361328125,-16.641221374045802,7.236641221374046,4.236641221374046
8.67005705833435,-0.048095703125,-0.91748046875,0.47705078125,-39.68702290076336,21.17557251908397,-2.7022900763358777
8.680058002471924,-0.048828125,-1.027587890625,0.473876953125,-32.25954198473283,10.65648854961832,-0.9694656488549618
8.69005537033081,0.187255859375,-0.988525390625,0.3740234375,-32.595419847328245,16.458015267175572,9.34351145038168
8.700056314468384,0.14013671875,-0.9111328125,0.425048828125,-49.412213740458014,11.48091603053435,7.221374045801527
8.71005654335022,-0.043701171875,-1.306884765625,0.19873046875,-34.10687022900763,1.7251908396946565,4.648854961832061
8.720057725906372,0.488525390625,-1.021728515625,0.298828125,-30.0,13.961832061068701,28.541984732824428
8.730056762695312,-0.045654296875,-1.337646484375,0.227294921875,-53.534351145038165,33.63358778625954,38.99236641221374
8.740058898925781,-0.21044921875,-1.351806640625,0.201171875,-38.23664122137404,9.65648854961832,50.12977099236641
8.750056028366089,0.076416015625,-1.082763671875,0.241455078125,-38.79389312977099,22.442748091603054,50.19083969465649
8.760057210922241,-0.14990234375,-1.021484375,0.265869140625,-43.2442748091603,6.587786259541985,51.778625954198475
8.770057201385498,-0.274169921875,-1.149169921875,0.158203125,-47.770992366412216,-4.122137404580153,67.76335877862596
8.780057668685913,-0.406982421875,-1.1005859375,0.146240234375,-71.81679389312977,-0.7022900763358778,77.87786259541984
8.790055990219116,-0.299560546875,-1.0615234375,0.146728515625,-93.1526717557252,15.427480916030534,88.63358778625954
8.800056219100952,-0.258544921875,-1.092529296875,0.1708984375,-96.97709923664122,5.374045801526718,100.36641221374046
8.81004548072815,-0.102783203125,-1.10595703125,0.121337890625,-90.54961832061069,12.687022900763358,105.59541984732824
8.820056438446045,-0.171630859375,-1.1259765625,0.06640625,-79.95419847328245,5.595419847328245,111.29007633587786
8.830056190490723,-0.1474609375,-1.14453125,-0.022216796875,-69.63358778625954,6.893129770992366,114.17557251908397
8.840057134628296,-0.218994140625,-1.10205078125,-0.051513671875,-68.03053435114504,9.358778625954198,115.09923664122137
8.850055694580078,-0.19873046875,-1.0888671875,-0.035400390625,-78.35114503816794,-10.488549618320612,108.74045801526718
8.860056638717651,-0.14306640625,-1.077880859375,-0.029052734375,-104.25190839694656,-18.458015267175572,101.16793893129771
8.87005615234375,-0.123291015625,-1.1865234375,-0.044677734375,-128.31297709923663,-16.061068702290076,92.23664122137404
8.880059480667114,-0.193115234375,-1.212158203125,0.005615234375,-134.9618320610687,-16.129770992366414,82.50381679389314
8.890056371688843,-0.149169921875,-1.213134765625,0.029052734375,-144.78625954198472,-21.625954198473284,72.41221374045801
8.900057077407837,-0.171630859375,-1.244384765625,0.0576171875,-159.50381679389312,-18.83969465648855,63.23664122137404
8.910056352615356,-0.27392578125,-1.33251953125,-0.00146484375,-158.03053435114504,-28.954198473282442,54.80916030534351
8.920056343078613,-0.212158203125,-1.385986328125,-0.082763671875,-133.54961832061068,-18.580152671755727,46.099236641221374
8.930056810379028,-0.2021484375,-1.398193359375,-0.094970703125,-104.2442748091603,-13.450381679389313,37.343511450381676
8.940057516098022,-0.16064453125,-1.3759765625,-0.099365234375,-78.16793893129771,-2.7099236641221376,25.748091603053435
8.950061321258545,-0.142578125,-1.37109375,-0.104736328125,-51.267175572519086,3.717557251908397,12.732824427480915
8.96005654335022,-0.2265625,-1.357177734375,-0.06640625,-27.83969465648855,3.4580152671755724,-1.3053435114503817
8.970056056976318,-0.34716796875,-1.358154296875,-0.04296875,-22.35114503816794,-2.3282442748091605,-16.3206106870229
8.980057716369629,-0.287109375,-1.31494140625,-0.05224609375,-34.29770992366412,1.015267175572519,-32.19847328244275
8.990056276321411,-0.292236328125,-1.365966796875,-0.132080078125,-32.70992366412214,1.8931297709923665,-43.80916030534351
9.000058650970459,-0.2939453125,-1.346923828125,-0.162841796875,-10.541984732824428,1.1374045801526718,-56.274809160305345
9.01006031036377,-0.254638671875,-1.2861328125,-0.170654296875,10.274809160305344,-6.488549618320611,-67.83206106870229
9.020058631896973,-0.253173828125,-1.224853515625,-0.125244140625,28.862595419847327,-11.83206106870229,-79.22137404580153
9.03005862236023,-0.268798828125,-1.161865234375,-0.1044921875,42.770992366412216,-13.229007633587786,-89.55725190839695
9.040056467056274,-0.28271484375,-1.121337890625,-0.07958984375,52.099236641221374,-19.38167938931298,-96.82442748091603
9.050055742263794,-0.28466796875,-1.043701171875,-0.068603515625,48.42748091603053,-25.977099236641223,-101.93893129770993
9.060057401657104,-0.265380859375,-0.95556640625,-0.034912109375,40.916030534351144,-32.50381679389313,-107.7175572519084
9.070056676864624,-0.2294921875,-0.88916015625,-0.047119140625,25.938931297709924,-35.778625954198475,-111.65648854961832
9.08005690574646,-0.24267578125,-0.86181640625,-0.039794921875,19.389312977099237,-38.412213740458014,-114.18320610687023
9.090055704116821,-0.271484375,-0.822021484375,-0.032958984375,10.183206106870228,-42.534351145038165,-115.98473282442748
9.100056409835815,-0.26708984375,-0.784423828125,-0.05419921875,3.0229007633587788,-45.58015267175573,-117.1526717557252
9.110055923461914,-0.28271484375,-0.755859375,-0.038330078125,1.7404580152671756,-45.603053435114504,-118.09160305343511
9.120057106018066,-0.251220703125,-0.713623046875,-0.031494140625,2.9389312977099236,-46.274809160305345,-118.46564885496183
9.130057334899902,-0.234619140625,-0.64453125,0.023681640625,10.335877862595419,-55.87022900763359,-117.2442748091603
9.140056371688843,-0.093017578125,-0.575439453125,0.0751953125,21.068702290076335,-42.70992366412214,-113.98473282442748
9.150055646896362,-0.116943359375,-0.471435546875,0.09228515625,13.053435114503817,-40.099236641221374,-112.22137404580153
9.160057306289673,-0.132080078125,-0.47412109375,0.085205078125,14.954198473282442,-41.18320610687023,-110.73282442748092
9.170056343078613,-0.129638671875,-0.4287109375,0.06005859375,19.19083969465649,-40.99236641221374,-109.3969465648855
9.180057048797607,-0.12841796875,-0.40966796875,0.035400390625,25.65648854961832,-44.05343511450382,-102.19847328244275
9.190056085586548,-0.10791015625,-0.3671875,0.024169921875,38.05343511450382,-44.14503816793893,-93.95419847328245
9.200056791305542,-0.10107421875,-0.333984375,0.0517578125,42.76335877862596,-43.85496183206107,-82.22900763358778
9.21005630493164,-0.06201171875,-0.330078125,0.084228515625,42.900763358778626,-36.43511450381679,-69.3969465648855
9.220057487487793,-0.053466796875,-0.276611328125,0.106689453125,42.88549618320611,-35.38167938931298,-57.3587786259542
9.230056524276733,-0.020751953125,-0.2724609375,0.106201171875,44.50381679389313,-33.267175572519086,-45.00763358778626
9.240056276321411,0.0009765625,-0.24072265625,0.115478515625,47.908396946564885,-36.97709923664122,-34.41984732824427
9.250056266784668,0.024658203125,-0.209228515625,0.1015625,48.603053435114504,-36.85496183206107,-24.251908396946565
9.260056972503662,0.004150390625,-0.2158203125,0.0673828125,48.11450381679389,-43.274809160305345,-12.404580152671755
9.270056009292603,-0.037841796875,-0.2607421875,0.03369140625,44.89312977099237,-46.83206106870229,0.022900763358778626
9.28005862236023,-0.06005859375,-0.31689453125,0.017333984375,32.099236641221374,-48.74045801526717,16.938931297709924
9.290056705474854,-0.051513671875,-0.358154296875,0.04150390625,19.022900763358777,-43.87022900763359,27.900763358778626
9.30005693435669,-0.02099609375,-0.387451171875,0.05078125,2.427480916030534,-39.343511450381676,40.656488549618324
9.310056686401367,-0.01318359375,-0.451416015625,0.045166015625,-6.66412213740458,-38.29007633587786,50.717557251908396
9.320057153701782,-0.02099609375,-0.515869140625,0.0302734375,-12.351145038167939,-40.458015267175576,58.81679389312977
9.330055952072144,-0.03759765625,-0.610107421875,0.0244140625,-18.625954198473284,-40.48091603053435,70.8854961832061
9.340056657791138,-0.044921875,-0.685302734375,-0.0126953125,-24.412213740458014,-40.48854961832061,79.0381679389313
9.350048065185547,-0.056396484375,-0.75732421875,-0.0341796875,-26.717557251908396,-43.38167938931298,85.45038167938931
9.360056161880493,-0.08251953125,-0.822265625,-0.071044921875,-27.297709923664122,-47.61832061068702,90.63358778625954
9.37005615234375,-0.113525390625,-0.856689453125,-0.09814453125,-27.85496183206107,-52.267175572519086,93.09923664122137
9.380056858062744,-0.10400390625,-0.9072265625,-0.125,-34.41984732824427,-54.038167938931295,93.8473282442748
9.39005708694458,-0.15966796875,-0.9990234375,-0.12548828125,-39.908396946564885,-64.05343511450381,98.98473282442748
9.400057315826416,-0.154296875,-1.06103515625,-0.15478515625,-48.213740458015266,-68.37404580152672,98.64885496183206
9.410056352615356,-0.17041015625,-1.097412109375,-0.152587890625,-58.396946564885496,-73.68702290076335,100.05343511450381
9.420047998428345,-0.15234375,-1.17626953125,-0.15283203125,-68.82442748091603,-74.20610687022901,100.21374045801527
9.43005633354187,-0.171875,-1.227783203125,-0.158203125,-74.30534351145039,-63.25954198473283,100.02290076335878
9.440057754516602,-0.158935546875,-1.303466796875,-0.151611328125,-79.98473282442748,-55.89312977099237,99.70992366412214
9.450057029724121,-0.261962890625,-1.306884765625,-0.177734375,-77.90839694656489,-54.396946564885496,96.49618320610686
9.460057735443115,-0.271484375,-1.38427734375,-0.181640625,-69.0,-66.87022900763358,92.3969465648855
9.470056533813477,-0.193359375,-1.437255859375,-0.19189453125,-65.99236641221374,-63.343511450381676,86.64885496183206
9.48005747795105,-0.233642578125,-1.4423828125,-0.236083984375,-65.27480916030534,-55.70992366412214,79.40458015267176
9.49005651473999,-0.269775390625,-1.521484375,-0.27490234375,-57.12213740458015,-59.25954198473283,76.3969465648855
9.500057458877563,-0.2587890625,-1.52978515625,-0.26416015625,-55.465648854961835,-54.9236641221374,71.00763358778626
9.510057926177979,-0.254150390625,-1.551513671875,-0.287353515625,-53.6412213740458,-59.32824427480916,65.01526717557252
9.520056962966919,-0.211669921875,-1.5576171875,-0.299072265625,-52.267175572519086,-47.83969465648855,58.93129770992366
9.530056715011597,-0.329833984375,-1.5322265625,-0.27392578125,-51.725190839694655,-49.12213740458015,51.778625954198475
9.540056705474854,-0.189697265625,-1.573974609375,-0.267333984375,-51.37404580152672,-47.83206106870229,43.229007633587784
9.55005669593811,-0.16455078125,-1.56494140625,-0.292724609375,-48.41984732824427,-35.02290076335878,32.44274809160305
9.560055494308472,-0.188232421875,-1.569091796875,-0.29345703125,-40.57251908396947,-29.48854961832061,20.83969465648855
9.570055961608887,-0.23291015625,-1.511474609375,-0.310791015625,-35.93893129770992,-27.85496183206107,10.122137404580153
9.580050945281982,-0.260498046875,-1.479736328125,-0.279296875,-27.51145038167939,-28.519083969465647,1.4045801526717556
9.590056657791138,-0.239990234375,-1.47900390625,-0.288330078125,-25.18320610687023,-29.85496183206107,-4.030534351145038
9.600056648254395,-0.241455078125,-1.46240234375,-0.34130859375,-4.9465648854961835,-19.30534351145038,-12.450381679389313
9.610056161880493,-0.285400390625,-1.418212890625,-0.29833984375,5.145038167938932,-17.480916030534353,-18.587786259541986
9.620056390762329,-0.28662109375,-1.37158203125,-0.255859375,9.251908396946565,-16.16793893129771,-25.053435114503817
9.630056619644165,-0.317138671875,-1.396240234375,-0.251953125,15.763358778625955,-13.526717557251908,-29.755725190839694
9.640057563781738,-0.3203125,-1.34814453125,-0.25634765625,23.015267175572518,-14.893129770992367,-34.152671755725194
9.650056838989258,-0.29296875,-1.314208984375,-0.25634765625,24.84732824427481,-14.099236641221374,-38.80916030534351
9.660057306289673,-0.277099609375,-1.28857421875,-0.243896484375,27.0,-10.083969465648854,-41.88549618320611
9.670056581497192,-0.272705078125,-1.251708984375,-0.21533203125,28.99236641221374,-7.00763358778626,-45.25190839694657
9.680057287216187,-0.2685546875,-1.221435546875,-0.204345703125,25.625954198473284,-1.6259541984732824,-49.57251908396947
9.690055847167969,-0.270751953125,-1.19921875,-0.211669921875,21.595419847328245,0.5877862595419847,-53.80152671755725
9.700056791305542,-0.26953125,-1.153564453125,-0.214111328125,20.6793893129771,4.595419847328245,-59.14503816793893
9.71005654335022,-0.250244140625,-1.1396484375,-0.207275390625,19.9618320610687,7.595419847328245,-63.267175572519086
9.720056533813477,-0.26611328125,-1.1083984375,-0.192626953125,14.465648854961833,12.099236641221374,-66.70992366412214
9.730056762695312,-0.274658203125,-1.047119140625,-0.182861328125,9.748091603053435,16.34351145038168,-69.61832061068702
9.740057706832886,-0.246826171875,-1.033203125,-0.169189453125,6.206106870229007,21.14503816793893,-71.45801526717557
9.750056505203247,-0.23095703125,-1.0126953125,-0.12939453125,7.748091603053435,27.015267175572518,-72.97709923664122
9.760056734085083,-0.22021484375,-0.9697265625,-0.106201171875,2.9770992366412212,30.213740458015266,-72.32824427480917
9.77005648612976,-0.20947265625,-0.936279296875,-0.096923828125,3.4732824427480917,32.81679389312977,-75.23664122137404
9.780057430267334,-0.198486328125,-0.910400390625,-0.090087890625,7.755725190839694,34.61832061068702,-75.02290076335878
9.790056228637695,-0.181640625,-0.89306640625,-0.080078125,9.870229007633588,42.0,-74.45038167938931
9.80005669593811,-0.21875,-0.853515625,-0.09033203125,11.091603053435115,39.908396946564885,-76.16793893129771
9.810049057006836,-0.194580078125,-0.851318359375,-0.0537109375,20.557251908396946,40.25954198473283,-73.6412213740458
9.820057153701782,-0.169921875,-0.851806640625,-0.0439453125,31.213740458015266,42.16793893129771,-72.99236641221374
9.830056190490723,-0.1650390625,-0.736083984375,-0.052734375,30.977099236641223,34.465648854961835,-74.10687022900764
9.840056419372559,-0.109130859375,-0.73486328125,-0.068115234375,37.70992366412214,28.0381679389313,-74.68702290076335
9.850056409835815,-0.0400390625,-0.672119140625,-0.037109375,43.0763358778626,30.778625954198475,-75.41221374045801
9.86005687713623,-0.00390625,-0.614990234375,-0.0146484375,47.81679389312977,33.19847328244275,-75.65648854961832
9.870055675506592,0.010498046875,-0.580078125,-0.011962890625,46.00763358778626,35.396946564885496,-76.16793893129771
