Time,AccX,AccY,AccZ
1748592850.210589,-0.455322265625,5.78525390625,0.031982421875
1748592850.220645,-0.542724609375,6.136962890625001,0.0263671875
1748592850.2306445,-0.59423828125,6.706396484375,0.033203125
1748592850.2406478,-0.6376953125,6.7638183593750005,0.0166015625
1748592850.2506523,-0.666259765625,6.756640625,0.033203125
1748592850.2606418,-0.7607421875,7.472021484375,0.03369140625
1748592850.2706423,-0.848876953125,8.055810546875001,0.03515625
1748592850.2806435,-0.851806640625,8.132373046875001,0.022216796875
1748592850.2906456,-0.74560546875,7.606005859375,0.0556640625
1748592850.3006446,-0.6357421875,7.256689453125,0.056640625
1748592850.310644,-0.599365234375,7.192089843750001,0.093017578125
1748592850.3206434,-0.614013671875,7.347607421875001,0.07958984375
1748592850.3306446,-0.552001953125,7.778271484375001,0.10986328125
1748592850.3406436,-0.627685546875,7.69931640625,0.078857421875
1748592850.350643,-0.636474609375,7.806982421875,0.116455078125
1748592850.360644,-0.650634765625,7.92900390625,0.109619140625
1748592850.3706439,-0.64892578125,8.05341796875,0.0927734375
1748592850.380644,-0.623779296875,8.0390625,0.118896484375
1748592850.3906434,-0.633544921875,8.115625000000001,0.112548828125
1748592850.4006433,-0.6328125,8.156298828125001,0.111328125
1748592850.4106438,-0.633056640625,8.247216796875001,0.1044921875
1748592850.4206436,-0.65869140625,8.376416015625,0.1318359375
1748592850.4306438,-0.681884765625,8.706591796875001,0.124755859375
1748592850.4406438,-0.68798828125,8.75205078125,0.123779296875
1748592850.4506433,-0.6474609375,8.419482421875001,0.122802734375
1748592850.4606433,-0.5947265625,8.1060546875,0.108642578125
1748592850.4706433,-0.57373046875,7.88115234375,0.109375
1748592850.4806442,-0.540771484375,7.766308593750001,0.099853515625
1748592850.490644,-0.545166015625,7.809375,0.100830078125
1748592850.5006444,-0.59228515625,8.041455078125,0.1044921875
1748592850.5106444,-0.605224609375,8.041455078125,0.097900390625
1748592850.5206447,-0.56396484375,7.78544921875,0.0849609375
1748592850.5306447,-0.548828125,7.79501953125,0.0771484375
1748592850.5406442,-0.549072265625,7.8165527343750005,0.083251953125
1748592850.550644,-0.54150390625,7.704101562500001,0.081787109375
1748592850.5606434,-0.553955078125,7.5796875,0.10888671875
1748592850.5706437,-0.56689453125,7.543798828125,0.08544921875
1748592850.5806444,-0.575927734375,7.536621093750001,0.075927734375
1748592850.5906446,-0.590087890625,7.5318359375,0.08154296875
1748592850.6006444,-0.61083984375,7.510302734375,0.079345703125
1748592850.610644,-0.613525390625,7.5533691406250005,0.0830078125
1748592850.6206439,-0.6279296875,7.45048828125,0.06396484375
1748592850.6306446,-0.615234375,7.2303710937500005,0.053955078125
1748592850.640644,-0.628173828125,7.216015625000001,0.052490234375
1748592850.650644,-0.68359375,7.4744140625,0.0546875
1748592850.6606452,-0.73779296875,7.716064453125001,0.055908203125
1748592850.6706438,-0.740234375,7.6490722656250005,0.056640625
1748592850.6806438,-0.71826171875,7.3500000000000005,0.043701171875
1748592850.6906447,-0.70703125,7.2303710937500005,0.055908203125
1748592850.7006443,-0.70458984375,7.225585937500001,0.063720703125
1748592850.7106447,-0.6513671875,6.904980468750001,0.0673828125
1748592850.720644,-0.64501953125,6.873876953125,0.06005859375
1748592850.730644,-0.66650390625,6.842773437500001,0.058837890625
1748592850.7406437,-0.6806640625,6.7997070312500005,0.073486328125
1748592850.750644,-0.69677734375,6.948046875,0.0517578125
1748592850.7606437,-0.73388671875,7.1107421875000005,0.06005859375
1748592850.770644,-0.748046875,7.007861328125,0.072998046875
1748592850.7806442,-0.702392578125,6.663330078125001,0.059814453125
1748592850.790644,-0.662841796875,6.4288574218750005,0.063720703125
1748592850.8006442,-0.66357421875,6.314013671875,0.067626953125
1748592850.8106437,-0.66064453125,6.244628906250001,0.067138671875
1748592850.8206441,-0.682861328125,6.292480468750001,0.063720703125
1748592850.8306444,-0.720458984375,6.725537109375001,0.059814453125
1748592850.8406446,-0.781005859375,6.601123046875,0.062744140625
1748592850.8506446,-0.76123046875,6.5173828125,0.0634765625
1748592850.8606439,-0.7177734375,6.4527832031250005,0.07421875
1748592850.8706436,-0.74267578125,6.4216796875,0.0830078125
1748592850.8806443,-0.7490234375,6.4886718750000005,0.065185546875
1748592850.8906446,-0.6962890625,6.151318359375001,0.049072265625
1748592850.9006443,-0.63037109375,5.811572265625,0.05615234375
1748592850.910645,-0.595703125,5.4598632812500005,0.05029296875
1748592850.9206438,-0.599609375,5.4072265625,0.056396484375
1748592850.930644,-0.669189453125,5.7421875,0.041015625
1748592850.9406462,-0.757080078125,6.447998046875001,0.048828125
1748592850.9506438,-0.817626953125,6.792529296875,0.0498046875
1748592850.9606435,-0.8193359375,6.723144531250001,0.042236328125
1748592850.9706445,-0.775634765625,6.58916015625,0.042236328125
1748592850.9806447,-0.723876953125,6.2494140625000005,0.037841796875
1748592850.9906437,-0.7041015625,6.2613769531250005,0.04345703125
1748592851.0006442,-0.71240234375,6.258984375000001,0.05029296875
1748592851.010644,-0.71240234375,6.50302734375,0.065673828125
1748592851.0206442,-0.70947265625,6.4216796875,0.063720703125
1748592851.0306447,-0.688720703125,6.4408203125000005,0.059814453125
1748592851.040644,-0.68603515625,6.46953125,0.063720703125
1748592851.050644,-0.750732421875,7.000683593750001,0.0634765625
1748592851.060644,-0.80322265625,7.256689453125,0.075927734375
1748592851.0706444,-0.71826171875,6.98154296875,0.069091796875
1748592851.0806448,-0.630859375,6.340332031250001,0.0771484375
1748592851.0906448,-0.591552734375,6.1537109375000005,0.096435546875
1748592851.1006444,-0.587158203125,6.2135253906250005,0.088134765625
1748592851.1106443,-0.650634765625,6.59873046875,0.08203125
1748592851.120644,-0.717529296875,7.060498046875001,0.09130859375
1748592851.1306438,-0.72998046875,7.11552734375,0.078857421875
1748592851.1406443,-0.732177734375,6.821240234375001,0.093017578125
1748592851.150644,-0.73095703125,7.007861328125,0.076904296875
1748592851.160644,-0.686767578125,6.87626953125,0.0654296875
1748592851.1706448,-0.648681640625,6.9001953125,0.062255859375
1748592851.180649,-0.61279296875,6.2302734375,0.1064453125
1748592851.190646,-0.5986328125,6.290087890625,0.074951171875
1748592851.2006445,-0.60107421875,6.316406250000001,0.059326171875
1748592851.2106504,-0.643310546875,6.73271484375,0.03173828125
1748592851.2206523,-0.699951171875,6.59873046875,0.067626953125
1748592851.2306457,-0.667236328125,6.457568359375,0.06201171875
1748592851.2406454,-0.603759765625,6.1417480468750005,0.062255859375
1748592851.2506595,-0.592041015625,5.864208984375001,0.074462890625
1748592851.2606454,-0.6240234375,5.971875000000001,0.066650390625
1748592851.2706425,-0.684326171875,6.170458984375,0.055908203125
1748592851.2806425,-0.73388671875,6.323583984375,0.052978515625
1748592851.2906415,-0.742919921875,6.5006347656250005,0.059814453125
1748592851.300641,-0.770263671875,6.625048828125,0.064697265625
1748592851.310641,-0.7890625,6.696826171875,0.064697265625
1748592851.320641,-0.804931640625,6.6609375,0.0615234375
1748592851.3306425,-0.794921875,6.4408203125000005,0.0537109375
1748592851.3406413,-0.728759765625,5.9742675781250005,0.056396484375
1748592851.3506417,-0.67822265625,5.67041015625,0.064453125
1748592851.3606415,-0.689697265625,5.8067871093750005,0.04736328125
1748592851.3706417,-0.758056640625,6.091503906250001,0.056640625
1748592851.3806417,-0.821044921875,6.3929687500000005,0.057861328125
1748592851.3906417,-0.83642578125,6.4527832031250005,0.05810546875
1748592851.4006424,-0.77587890625,5.95751953125,0.041748046875
1748592851.4106421,-0.690185546875,5.421582031250001,0.05615234375
1748592851.420642,-0.694580078125,5.49814453125,0.04736328125
1748592851.4306507,-0.717041015625,5.548388671875,0.07763671875
1748592851.4406471,-0.738525390625,5.672802734375001,0.061767578125
1748592851.4506507,-0.728759765625,5.620166015625,0.058349609375
1748592851.460649,-0.745361328125,5.658447265625,0.05029296875
1748592851.470646,-0.75634765625,5.624951171875001,0.05078125
1748592851.480654,-0.74853515625,5.469433593750001,0.06005859375
1748592851.490646,-0.747802734375,5.275634765625,0.0498046875
1748592851.5006442,-0.7021484375,5.10576171875,0.053955078125
1748592851.510643,-0.7041015625,5.251708984375,0.05615234375
1748592851.5206442,-0.82177734375,5.780468750000001,0.05419921875
1748592851.5306432,-0.89892578125,6.218310546875,0.050048828125
1748592851.5406435,-0.9072265625,6.2494140625000005,0.043701171875
1748592851.550643,-0.883544921875,5.859423828125,0.055908203125
1748592851.5606434,-0.80078125,5.49814453125,0.057861328125
1748592851.5706432,-0.805419921875,5.5555664062500005,0.062255859375
1748592851.5806434,-0.85009765625,5.940771484375,0.04638671875
1748592851.5906441,-0.912353515625,6.366650390625001,0.046142578125
1748592851.6006436,-0.91552734375,6.163281250000001,0.072021484375
1748592851.6106443,-0.83447265625,5.612988281250001,0.059326171875
1748592851.6206436,-0.749267578125,4.7660156250000005,0.07421875
1748592851.6306443,-0.7001953125,4.512402343750001,0.059326171875
1748592851.6406438,-0.70263671875,4.488476562500001,0.075439453125
1748592851.650644,-0.7255859375,4.663134765625,0.0615234375
1748592851.6606448,-0.7744140625,5.0818359375,0.04638671875
1748592851.6706443,-0.822509765625,5.158398437500001,0.05419921875
1748592851.6806452,-0.883056640625,5.761328125,0.064453125
1748592851.6906445,-0.8330078125,5.5555664062500005,0.0458984375
1748592851.7006443,-0.785400390625,5.093798828125,0.113037109375
1748592851.710644,-0.738525390625,4.880859375,0.1064453125
1748592851.7206442,-0.74462890625,4.940673828125,0.137451171875
1748592851.7306468,-0.749755859375,6.182421875,0.215087890625
1748592851.7406445,-0.712158203125,5.8474609375,0.35693359375
1748592851.7506435,-0.7197265625,5.802001953125,0.4052734375
1748592851.7606437,-0.74169921875,6.778173828125,0.39208984375
1748592851.7706437,-0.653076171875,6.74228515625,0.52099609375
1748592851.7806437,-0.630859375,7.694531250000001,0.54296875
1748592851.7906435,-0.60009765625,7.919433593750001,0.57861328125
1748592851.8006444,-0.67626953125,8.213720703125,0.697265625
1748592851.8106444,-0.697509765625,8.132373046875001,0.706298828125
1748592851.8206437,-0.68994140625,8.134765625,0.58642578125
1748592851.8306441,-0.715087890625,7.706494140625001,0.40478515625
1748592851.8406441,-0.642578125,6.737500000000001,0.348388671875
1748592851.8506436,-0.634765625,5.514892578125,0.3271484375
1748592851.860644,-0.647216796875,5.227783203125,0.26904296875
1748592851.8706443,-0.72216796875,5.457470703125001,0.231201171875
1748592851.8806436,-0.76416015625,5.8953125,0.178955078125
1748592851.8906443,-0.83251953125,5.897705078125,0.16943359375
1748592851.9006443,-0.827392578125,6.1178222656250005,0.13671875
1748592851.9106438,-0.792724609375,5.52685546875,0.13818359375
1748592851.920644,-0.7099609375,5.213427734375,0.125
1748592851.9306436,-0.727783203125,5.541210937500001,0.15478515625
1748592851.9406435,-0.815185546875,5.6943359375,0.149658203125
1748592851.950647,-0.749755859375,5.529248046875001,0.162353515625
1748592851.9606452,-0.802734375,5.888134765625001,0.155517578125
1748592851.9706447,-0.72998046875,5.3761230468750005,0.1484375
1748592851.980652,-0.740234375,5.773291015625,0.11474609375
1748592851.9906445,-0.751953125,5.900097656250001,0.1318359375
1748592852.0006447,-0.76318359375,5.97666015625,0.115234375
1748592852.010647,-0.659912109375,5.5196777343750005,0.1416015625
1748592852.020646,-0.605712890625,5.32109375,0.16357421875
1748592852.0306437,-0.611083984375,5.457470703125001,0.166015625
1748592852.0406444,-0.656982421875,5.6751953125000005,0.171630859375
1748592852.050644,-0.708251953125,6.4168945312500005,0.177001953125
1748592852.0606434,-0.702392578125,6.376220703125001,0.193115234375
1748592852.0706437,-0.6787109375,6.579589843750001,0.197509765625
1748592852.0806527,-0.6689453125,6.388183593750001,0.228515625
1748592852.090645,-0.65673828125,6.235058593750001,0.217529296875
1748592852.1006436,-0.658203125,6.0460449218750005,0.239013671875
1748592852.1106443,-0.699951171875,5.964697265625,0.239013671875
1748592852.1206446,-0.71044921875,6.282910156250001,0.224609375
1748592852.1306443,-0.6826171875,6.414501953125001,0.21875
1748592852.1406438,-0.694091796875,6.8140625,0.260009765625
1748592852.1506436,-0.6953125,7.192089843750001,0.295166015625
1748592852.1606445,-0.67529296875,7.4098144531250005,0.3046875
1748592852.170644,-0.595703125,7.3619628906250005,0.32080078125
1748592852.180647,-0.52490234375,7.137060546875,0.318603515625
1748592852.1906433,-0.553955078125,7.323681640625001,0.3359375
1748592852.2006457,-0.59619140625,7.103564453125,0.312744140625
1748592852.2106452,-0.566650390625,6.7997070312500005,0.298583984375
1748592852.2206461,-0.586669921875,6.936083984375,0.306396484375
1748592852.230645,-0.64794921875,7.3404296875,0.2802734375
1748592852.2406464,-0.7353515625,7.572509765625001,0.26904296875
1748592852.2509258,-0.76171875,7.6012207031250005,0.255859375
1748592852.2606475,-0.76171875,7.213623046875001,0.245849609375
1748592852.2706494,-0.688232421875,6.553271484375,0.20654296875
1748592852.2806444,-0.660888671875,6.2613769531250005,0.217529296875
1748592852.2906418,-0.72998046875,6.314013671875,0.2138671875
1748592852.3006418,-0.71044921875,6.340332031250001,0.226806640625
1748592852.310643,-0.691650390625,5.768505859375001,0.205322265625
1748592852.3206425,-0.7041015625,6.44560546875,0.22314453125
1748592852.330642,-0.476806640625,6.6920410156250005,0.188232421875
1748592852.3406405,-0.6279296875,7.093994140625001,0.220458984375
1748592852.3506413,-0.6669921875,6.893017578125001,0.229736328125
1748592852.3606358,-0.655029296875,6.0938964843750005,0.244873046875
1748592852.3706415,-0.641845703125,7.4098144531250005,0.23779296875
1748592852.380642,-0.47802734375,6.936083984375,0.29443359375
1748592852.3906417,-0.610595703125,7.23515625,0.27587890625
1748592852.4006417,-0.556396484375,6.26376953125,0.271728515625
1748592852.4106414,-0.623291015625,6.87626953125,0.24267578125
1748592852.4206412,-0.625732421875,6.280517578125001,0.2353515625
1748592852.4306414,-0.58447265625,5.988623046875,0.238525390625
1748592852.440646,-0.6171875,6.361865234375,0.24755859375
1748592852.4506426,-0.698974609375,6.5484863281250005,0.21240234375
1748592852.4606416,-0.666015625,6.5963378906250005,0.19873046875
1748592852.4706414,-0.72802734375,6.603515625000001,0.19677734375
1748592852.4806414,-0.794921875,6.916943359375001,0.171630859375
1748592852.490642,-0.781005859375,6.58916015625,0.16845703125
1748592852.5006418,-0.83740234375,7.02939453125,0.16455078125
1748592852.5106418,-0.69921875,5.991015625,0.1630859375
1748592852.520641,-0.70947265625,6.495849609375001,0.1689453125
1748592852.5306416,-0.72998046875,6.46953125,0.19384765625
1748592852.5406415,-0.75244140625,6.49345703125,0.1650390625
1748592852.5506437,-0.731201171875,7.201660156250001,0.176025390625
1748592852.560644,-0.67529296875,7.093994140625001,0.186279296875
1748592852.5706449,-0.607177734375,6.7518554687500005,0.2158203125
1748592852.580645,-0.68603515625,7.416992187500001,0.258544921875
1748592852.5906446,-0.743408203125,7.4696289062500005,0.28173828125
1748592852.6006458,-0.7021484375,7.010253906250001,0.303955078125
1748592852.610645,-0.622802734375,6.3092285156250005,0.28076171875
1748592852.6206439,-0.623291015625,6.68486328125,0.297119140625
1748592852.6306436,-0.588623046875,6.354687500000001,0.2666015625
1748592852.640644,-0.550537109375,5.940771484375,0.259521484375
1748592852.650645,-0.5068359375,5.548388671875,0.209716796875
1748592852.6606436,-0.467041015625,5.4718261718750005,0.1474609375
1748592852.6706448,-0.611083984375,5.821142578125,0.13671875
1748592852.6806455,-0.733642578125,6.890625000000001,0.120849609375
1748592852.6906447,-0.732177734375,6.73271484375,0.087646484375
1748592852.700645,-0.689697265625,6.842773437500001,0.054443359375
1748592852.7106457,-0.652587890625,6.467138671875,0.067138671875
1748592852.7206433,-0.64306640625,6.756640625,0.08056640625
1748592852.7306445,-0.673828125,6.6609375,0.13037109375
1748592852.7406442,-0.748046875,7.055712890625,0.13134765625
1748592852.7506444,-0.74267578125,7.586865234375001,0.15185546875
1748592852.7606444,-0.715087890625,7.524658203125001,0.16015625
1748592852.770644,-0.714111328125,7.414599609375,0.1640625
1748592852.7806454,-0.62255859375,7.1466308593750005,0.160400390625
1748592852.790643,-0.581298828125,7.2830078125,0.185302734375
1748592852.8006444,-0.605712890625,6.969580078125,0.210693359375
1748592852.8106434,-0.57421875,6.639404296875001,0.16357421875
1748592852.8206441,-0.5263671875,6.495849609375001,0.117919921875
1748592852.8306465,-0.646240234375,6.969580078125,0.07958984375
1748592852.840645,-0.68115234375,7.02939453125,0.09716796875
1748592852.8506444,-0.722412109375,6.474316406250001,0.0673828125
1748592852.8606448,-0.753173828125,6.424072265625001,0.10205078125
1748592852.8706446,-0.79931640625,6.7040039062500005,0.081787109375
1748592852.8806455,-0.781982421875,7.201660156250001,0.06005859375
1748592852.8906446,-0.748291015625,7.103564453125,0.041015625
1748592852.9006443,-0.722412109375,6.864306640625,0.076171875
1748592852.9106445,-0.685791015625,6.809277343750001,0.073974609375
1748592852.9206445,-0.73193359375,6.64658203125,0.0791015625
1748592852.930645,-0.72216796875,6.514990234375,0.0810546875
1748592852.9406443,-0.770751953125,6.969580078125,0.09326171875
1748592852.950645,-0.8076171875,7.168164062500001,0.089599609375
1748592852.9606447,-0.779052734375,7.199267578125,0.10107421875
1748592852.970644,-0.703857421875,6.74228515625,0.105712890625
1748592852.980642,-0.67333984375,6.3810058593750005,0.11376953125
1748592852.9906423,-0.653076171875,6.378613281250001,0.11083984375
1748592853.000642,-0.644287109375,6.148925781250001,0.105712890625
1748592853.0106416,-0.690185546875,6.211132812500001,0.08056640625
1748592853.0206423,-0.65283203125,6.4288574218750005,0.057861328125
1748592853.0306418,-0.64794921875,6.172851562500001,0.060791015625
1748592853.0406432,-0.66064453125,6.16806640625,0.07080078125
1748592853.0506418,-0.7236328125,6.412109375000001,0.075927734375
1748592853.0606418,-0.857421875,7.000683593750001,0.064208984375
1748592853.070642,-0.717529296875,6.194384765625,0.0849609375
1748592853.0806425,-0.775390625,6.615478515625001,0.063232421875
1748592853.090641,-0.75634765625,5.8666015625000005,0.070068359375
1748592853.1006427,-0.705810546875,6.091503906250001,0.052734375
1748592853.1106336,-0.665283203125,5.342626953125,0.0771484375
1748592853.120642,-0.72021484375,6.125,0.079345703125
1748592853.1306417,-0.649658203125,5.7828613281250005,0.105224609375
1748592853.1406415,-0.659423828125,6.2015625000000005,0.1025390625
1748592853.150642,-0.6982421875,6.026904296875,0.099609375
1748592853.1606414,-0.760498046875,6.522167968750001,0.103759765625
1748592853.1706417,-0.759033203125,6.62265625,0.11962890625
1748592853.1806428,-0.776611328125,7.127490234375,0.12890625
1748592853.1906414,-0.6572265625,6.98154296875,0.15478515625
1748592853.2006419,-0.4267578125,6.653759765625001,0.228271484375
1748592853.210643,-0.39306640625,6.182421875,0.322265625
1748592853.2206423,-0.54150390625,6.07236328125,0.3251953125
1748592853.2306426,-0.5673828125,6.0938964843750005,0.284912109375
1748592853.2406447,-0.701904296875,6.495849609375001,0.306884765625
1748592853.2506618,-0.77880859375,6.5125976562500005,0.298095703125
1748592853.2606423,-0.968994140625,7.6849609375000005,0.314208984375
1748592853.2706454,-0.9638671875,7.294970703125,0.316650390625
1748592853.2806456,-0.811279296875,6.625048828125,0.322509765625
1748592853.2906425,-0.710205078125,6.0388671875,0.307373046875
1748592853.3006423,-0.527099609375,5.373730468750001,0.251708984375
1748592853.3106422,-0.421142578125,4.615283203125,0.22412109375
1748592853.3206418,-0.405029296875,4.2994628906250005,0.217041015625
1748592853.3306415,-0.560791015625,4.7564453125,0.1943359375
1748592853.3406434,-0.632568359375,4.93828125,0.162109375
1748592853.350642,-0.9541015625,6.220703125000001,0.14306640625
1748592853.3606412,-1.08984375,6.462353515625001,0.1064453125
1748592853.3706422,-1.341796875,7.799804687500001,0.094482421875
1748592853.3806427,-1.205078125,6.749462890625001,0.098876953125
1748592853.3906417,-0.8076171875,5.433544921875001,0.131591796875
1748592853.4006407,-0.75341796875,5.6751953125000005,0.192138671875
1748592853.4106302,-0.513916015625,3.885546875,0.18603515625
1748592853.4206417,-0.584716796875,4.9454589843750005,0.163818359375
1748592853.4306421,-0.904052734375,6.4168945312500005,0.23388671875
1748592853.4406412,-0.828369140625,6.615478515625001,0.197265625
1748592853.4506414,-0.781494140625,6.663330078125001,0.19189453125
1748592853.460641,-0.78759765625,6.354687500000001,0.210205078125
1748592853.4706416,-0.748779296875,6.258984375000001,0.17626953125
1748592853.4806411,-0.72412109375,6.514990234375,0.11962890625
1748592853.4906423,-0.68994140625,6.314013671875,0.12451171875
1748592853.5006437,-0.673828125,5.845068359375,0.158935546875
1748592853.5106416,-0.669189453125,5.620166015625,0.153076171875
1748592853.520642,-0.70068359375,5.6153808593750005,0.134521484375
1748592853.5306416,-0.75732421875,5.7134765625,0.132568359375
1748592853.5406451,-0.74169921875,5.605810546875,0.120361328125
1748592853.5506434,-0.750732421875,5.366552734375,0.1376953125
1748592853.560644,-0.762939453125,5.24931640625,0.141845703125
1748592853.5706444,-0.758056640625,5.218212890625001,0.140625
1748592853.5806446,-0.770263671875,5.3761230468750005,0.144775390625
1748592853.5906448,-0.76123046875,5.7421875,0.15087890625
1748592853.600644,-0.7666015625,5.897705078125,0.15576171875
1748592853.6106446,-0.763427734375,6.1656738281250005,0.172119140625
1748592853.620644,-0.7666015625,6.3690429687500005,0.160400390625
1748592853.6306448,-0.791748046875,6.531738281250001,0.1591796875
1748592853.640644,-0.757080078125,6.735107421875001,0.152587890625
1748592853.6506445,-0.7490234375,6.59873046875,0.14892578125
1748592853.6606438,-0.72119140625,6.730322265625,0.14404296875
1748592853.670644,-0.728515625,6.725537109375001,0.14599609375
1748592853.6806448,-0.676025390625,6.558056640625001,0.14208984375
1748592853.6906438,-0.584228515625,6.07236328125,0.162353515625
1748592853.7006445,-0.6181640625,5.9742675781250005,0.178466796875
1748592853.7106442,-0.66162109375,6.15849609375,0.153076171875
1748592853.720644,-0.662353515625,6.10107421875,0.149658203125
1748592853.7306445,-0.699951171875,5.8857421875,0.177978515625
1748592853.7406435,-0.783935546875,6.0771484375,0.190673828125
1748592853.7506442,-0.803466796875,6.196777343750001,0.19189453125
1748592853.7606444,-0.826904296875,6.44560546875,0.177001953125
1748592853.7706437,-0.80078125,6.3810058593750005,0.173095703125
1748592853.7806437,-0.719970703125,6.335546875,0.154296875
1748592853.7906437,-0.67431640625,6.232666015625001,0.1572265625
1748592853.8006437,-0.704833984375,6.5748046875,0.1728515625
1748592853.8106446,-0.53857421875,5.47421875,0.1787109375
1748592853.8206441,-0.64892578125,5.892919921875,0.18310546875
1748592853.8306437,-0.8037109375,6.459960937500001,0.183349609375
1748592853.840644,-0.824462890625,6.8714843750000005,0.121337890625
1748592853.8506439,-0.81982421875,6.64658203125,0.110107421875
1748592853.8606439,-0.73828125,6.5748046875,0.111083984375
1748592853.8706448,-0.737548828125,5.991015625,0.11962890625
1748592853.880646,-0.6337890625,5.7469726562500005,0.132080078125
1748592853.8906448,-0.6083984375,5.8187500000000005,0.111328125
1748592853.900645,-0.658203125,6.084326171875,0.12939453125
1748592853.9106448,-0.69873046875,6.170458984375,0.119384765625
1748592853.9206448,-0.774169921875,6.562841796875,0.125
1748592853.9306443,-0.7880859375,6.522167968750001,0.1142578125
1748592853.9406443,-0.77392578125,6.337939453125,0.13623046875
1748592853.950646,-0.770751953125,6.280517578125001,0.137939453125
1748592853.960644,-0.73876953125,6.2494140625000005,0.1328125
1748592853.970644,-0.78369140625,6.73271484375,0.122802734375
1748592853.9806437,-0.786865234375,6.7279296875000005,0.134765625
1748592853.9906442,-0.66748046875,6.05322265625,0.14111328125
1748592854.0006442,-0.569091796875,5.565136718750001,0.1591796875
1748592854.0106473,-0.594482421875,5.682373046875,0.181640625
1748592854.020645,-0.66748046875,6.0580078125000005,0.1806640625
1748592854.030644,-0.7763671875,6.864306640625,0.1416015625
1748592854.040644,-0.87939453125,7.438525390625,0.17041015625
1748592854.0506432,-0.821044921875,7.065283203125,0.19921875
1748592854.0606441,-0.677490234375,6.40732421875,0.220703125
1748592854.0706449,-0.565185546875,5.71826171875,0.245361328125
1748592854.080644,-0.56396484375,5.77568359375,0.255859375
1748592854.0906525,-0.72412109375,6.419287109375,0.220947265625
1748592854.1006448,-0.767822265625,6.251806640625,0.189208984375
1748592854.1106443,-0.70849609375,5.947949218750001,0.18798828125
1748592854.1206443,-0.622802734375,5.548388671875,0.22509765625
1748592854.1306443,-0.6142578125,5.452685546875,0.24609375
1748592854.1406457,-0.690185546875,6.21591796875,0.206298828125
1748592854.150645,-0.73486328125,6.845166015625001,0.177734375
1748592854.1606445,-0.822021484375,7.024609375000001,0.17236328125
1748592854.1706443,-0.673583984375,6.3810058593750005,0.1865234375
1748592854.1806457,-0.5703125,5.59384765625,0.224853515625
1748592854.190644,-0.56103515625,5.1368652343750005,0.22900390625
1748592854.2006447,-0.62451171875,5.53642578125,0.200439453125
1748592854.2106495,-0.7451171875,6.136962890625001,0.18505859375
1748592854.2206533,-0.78076171875,6.347509765625,0.17919921875
1748592854.2306485,-0.805908203125,6.555664062500001,0.18994140625
1748592854.2406485,-0.7314453125,6.065185546875,0.1708984375
1748592854.2506618,-0.650634765625,5.419189453125,0.18701171875
1748592854.2606428,-0.541748046875,5.4479003906250005,0.183837890625
1748592854.270645,-0.634033203125,5.285205078125,0.187255859375
1748592854.2806473,-0.785400390625,5.952734375,0.158935546875
1748592854.2906437,-0.8017578125,6.148925781250001,0.0927734375
1748592854.3006418,-0.763916015625,5.883349609375,0.109375
1748592854.3106458,-0.7333984375,5.586669921875,0.1552734375
1748592854.320643,-0.615234375,4.974169921875,0.152099609375
1748592854.3306441,-0.451171875,4.8258300781250005,0.18115234375
1748592854.3406446,-0.7724609375,4.797119140625,0.2158203125
1748592854.3506424,-1.022705078125,7.9242187500000005,0.171142578125
1748592854.3606434,-0.953857421875,9.089404296875001,0.07666015625
1748592854.3706436,-0.828369140625,8.364453125,0.06591796875
1748592854.3806438,-0.66357421875,6.945654296875,0.1640625
1748592854.390644,-0.4736328125,5.4000488281250005,0.22119140625
1748592854.4006448,-0.64697265625,5.952734375,0.21044921875
1748592854.4106443,-0.783935546875,7.00546875,0.162841796875
1748592854.4206445,-0.875244140625,7.8883300781250005,0.115478515625
1748592854.4306467,-0.815673828125,7.3141113281250005,0.133056640625
1748592854.4406438,-0.70751953125,6.593945312500001,0.14453125
1748592854.4506438,-0.746826171875,6.603515625000001,0.20361328125
1748592854.4606442,-0.71533203125,6.486279296875001,0.17236328125
1748592854.4706442,-0.668212890625,6.0340820312500005,0.17822265625
1748592854.4806433,-0.586669921875,5.7110839843750005,0.193603515625
1748592854.4906445,-0.541015625,5.4598632812500005,0.216552734375
1748592854.5006444,-0.537841796875,5.40244140625,0.207275390625
1748592854.510644,-0.639892578125,5.7350097656250005,0.205078125
1748592854.520644,-0.709228515625,6.146533203125,0.1962890625
1748592854.5306435,-0.69384765625,5.93359375,0.166015625
1748592854.5406444,-0.67626953125,5.763720703125,0.17578125
1748592854.5506444,-0.673828125,5.660839843750001,0.187744140625
1748592854.5606437,-0.716796875,5.6991210937500005,0.188720703125
1748592854.5706427,-0.729248046875,5.7900390625,0.17626953125
1748592854.5806441,-0.642578125,5.3163085937500005,0.20654296875
1748592854.5906434,-0.620361328125,5.1966796875000005,0.20751953125
1748592854.600644,-0.711181640625,5.5220703125,0.19677734375
1748592854.6106443,-0.7880859375,6.00537109375,0.171875
1748592854.6206436,-0.791259765625,6.388183593750001,0.173828125
1748592854.6306443,-0.73876953125,6.00537109375,0.1611328125
1748592854.640644,-0.751708984375,5.921630859375,0.185546875
1748592854.6506436,-0.697998046875,5.67998046875,0.184326171875
1748592854.6606436,-0.64794921875,5.7708984375000005,0.17822265625
1748592854.6706448,-0.64599609375,5.409619140625001,0.171875
1748592854.6806438,-0.721435546875,5.959912109375001,0.196533203125
1748592854.6906445,-0.790771484375,6.555664062500001,0.187744140625
1748592854.7006447,-0.83837890625,6.983935546875,0.185302734375
1748592854.7106442,-0.830322265625,6.9911132812500005,0.182861328125
1748592854.7206442,-0.826904296875,7.07724609375,0.18505859375
1748592854.7306433,-0.7578125,6.983935546875,0.1953125
1748592854.7406442,-0.675537109375,6.498242187500001,0.214111328125
1748592854.7506459,-0.66015625,6.402539062500001,0.220703125
1748592854.7606435,-0.668701171875,6.486279296875001,0.219482421875
1748592854.7706442,-0.709716796875,6.821240234375001,0.216796875
1748592854.780644,-0.750732421875,7.180126953125001,0.211669921875
1748592854.7906432,-0.7353515625,7.12509765625,0.2109375
1748592854.8006442,-0.7060546875,6.8834472656250005,0.200439453125
1748592854.810644,-0.697021484375,6.553271484375,0.209716796875
1748592854.820643,-0.680419921875,6.041259765625,0.199462890625
1748592854.8306444,-0.659423828125,5.792431640625001,0.196044921875
1748592854.8406444,-0.6611328125,5.82353515625,0.171875
1748592854.8506446,-0.667236328125,5.912060546875001,0.165771484375
1748592854.8606446,-0.736572265625,6.067578125000001,0.171875
1748592854.8706436,-0.744140625,5.988623046875,0.168212890625
1748592854.8806443,-0.7490234375,6.115429687500001,0.1591796875
1748592854.8906438,-0.74267578125,6.067578125000001,0.18115234375
1748592854.900644,-0.735595703125,5.85703125,0.17724609375
1748592854.9106438,-0.7138671875,5.55078125,0.184814453125
1748592854.9206433,-0.73486328125,5.5603515625,0.182861328125
1748592854.930644,-0.720947265625,5.510107421875,0.19189453125
1748592854.9406443,-0.724609375,5.378515625,0.197509765625
1748592854.950644,-0.805419921875,5.8426757812500005,0.200439453125
1748592854.9606433,-0.772216796875,5.67998046875,0.19140625
1748592854.970644,-0.75244140625,5.849853515625,0.196533203125
1748592854.9806442,-0.767578125,5.792431640625001,0.205322265625
1748592854.9906435,-0.7919921875,6.065185546875,0.212158203125
1748592855.000644,-0.7548828125,5.8905273437500005,0.20556640625
1748592855.0106437,-0.716552734375,5.85703125,0.209228515625
1748592855.0206447,-0.71728515625,6.0005859375,0.2109375
1748592855.030644,-0.736328125,6.268554687500001,0.20263671875
1748592855.0406437,-0.711181640625,6.15849609375,0.18310546875
1748592855.050644,-0.680419921875,6.0101562500000005,0.19677734375
1748592855.0606434,-0.634033203125,5.67998046875,0.1943359375
1748592855.0706434,-0.64453125,5.883349609375,0.19580078125
1748592855.0806434,-0.626953125,5.802001953125,0.170654296875
1748592855.0906446,-0.615478515625,5.778076171875,0.20068359375
1748592855.1006439,-0.711669921875,5.991015625,0.2001953125
1748592855.1106448,-0.680419921875,6.019726562500001,0.1904296875
1748592855.1206443,-0.87548828125,6.4288574218750005,0.182373046875
1748592855.1306443,-0.936279296875,6.826025390625,0.151123046875
1748592855.1406443,-0.847412109375,6.577197265625,0.137451171875
1748592855.1506443,-0.702880859375,5.947949218750001,0.20654296875
1748592855.1606438,-0.67333984375,5.7828613281250005,0.208984375
1748592855.170644,-0.677734375,5.964697265625,0.199951171875
1748592855.1806433,-0.69970703125,6.175244140625001,0.178955078125
1748592855.1906433,-0.717529296875,6.136962890625001,0.158935546875
1748592855.2006435,-0.714111328125,6.029296875,0.171875
1748592855.21065,-0.74951171875,6.0771484375,0.17138671875
1748592855.2206523,-0.7421875,6.15849609375,0.153564453125
1748592855.2306454,-0.70458984375,6.266162109375,0.142578125
1748592855.240651,-0.7490234375,6.3092285156250005,0.15185546875
1748592855.2506566,-0.726806640625,6.2876953125,0.159423828125
1748592855.260642,-0.734375,6.335546875,0.174560546875
1748592855.2706463,-0.71533203125,6.08671875,0.183837890625
1748592855.2806475,-0.7001953125,6.029296875,0.194091796875
1748592855.2906456,-0.711181640625,5.9981933593750005,0.1962890625
1748592855.3006465,-0.7109375,5.9814453125,0.185791015625
1748592855.3106513,-0.714599609375,6.067578125000001,0.178466796875
1748592855.3206465,-0.678955078125,5.8857421875,0.180419921875
1748592855.330646,-0.759765625,6.103466796875001,0.15673828125
1748592855.3406432,-0.780029296875,6.294873046875001,0.156005859375
1748592855.3506472,-0.72314453125,6.275732421875,0.16064453125
1748592855.3606462,-0.70361328125,6.256591796875001,0.175048828125
1748592855.3706443,-0.717041015625,6.3570800781250005,0.17626953125
1748592855.3806453,-0.6884765625,6.385791015625,0.1826171875
1748592855.3906446,-0.66455078125,6.232666015625001,0.183349609375
1748592855.4006438,-0.66845703125,6.029296875,0.194091796875
1748592855.4106436,-0.696044921875,6.012548828125,0.20263671875
1748592855.4206438,-0.740234375,6.23984375,0.198486328125
1748592855.430644,-0.76953125,6.409716796875,0.1982421875
1748592855.4406433,-0.7958984375,6.450390625000001,0.19091796875
1748592855.4506438,-0.7626953125,6.31162109375,0.197265625
1748592855.4606428,-0.733642578125,6.108251953125,0.172119140625
1748592855.4706438,-0.6884765625,5.868994140625,0.193603515625
1748592855.480645,-0.71826171875,5.969482421875,0.199951171875
1748592855.4906445,-0.662841796875,5.644091796875,0.2080078125
1748592855.5006437,-0.720947265625,6.007763671875001,0.208251953125
1748592855.510644,-0.724853515625,6.065185546875,0.19140625
1748592855.520644,-0.724609375,6.060400390625,0.1904296875
1748592855.5306437,-0.67626953125,5.756542968750001,0.19189453125
1748592855.5406442,-0.7177734375,5.658447265625,0.201904296875
1748592855.5506432,-0.718994140625,5.646484375,0.200439453125
1748592855.5606434,-0.701904296875,5.6632324218750005,0.20654296875
1748592855.5706444,-0.711181640625,5.8426757812500005,0.203125
1748592855.5806448,-0.74169921875,5.991015625,0.177734375
1748592855.5906446,-0.74267578125,6.187207031250001,0.16552734375
1748592855.6006427,-0.6943359375,6.029296875,0.16259765625
1748592855.6106427,-0.710693359375,5.9981933593750005,0.1767578125
1748592855.6206417,-0.779296875,6.522167968750001,0.172119140625
1748592855.6306424,-0.771484375,6.888232421875,0.195068359375
1748592855.6406417,-0.733642578125,6.9958984375,0.191162109375
1748592855.6506414,-0.706787109375,6.866699218750001,0.198486328125
1748592855.660642,-0.59326171875,6.3331542968750005,0.181396484375
1748592855.6706421,-0.509765625,5.3521972656250005,0.178466796875
1748592855.6806452,-0.655517578125,5.732617187500001,0.1904296875
1748592855.690645,-0.642333984375,5.7350097656250005,0.130615234375
1748592855.7006447,-0.671142578125,5.577099609375001,0.16064453125
1748592855.710646,-0.72705078125,5.924023437500001,0.2001953125
1748592855.7206447,-0.769775390625,6.0460449218750005,0.2021484375
1748592855.730645,-0.797119140625,6.5173828125,0.18603515625
1748592855.7406447,-0.787841796875,6.833203125000001,0.1572265625
1748592855.750644,-0.728271484375,6.553271484375,0.190185546875
1748592855.7606447,-0.61083984375,5.53642578125,0.19287109375
1748592855.7706444,-0.6162109375,5.708691406250001,0.23388671875
1748592855.7806454,-0.661865234375,5.768505859375001,0.193359375
1748592855.7906446,-0.672119140625,5.763720703125,0.17333984375
1748592855.8006449,-0.665771484375,5.624951171875001,0.156005859375
1748592855.810644,-0.687255859375,5.8067871093750005,0.16552734375
1748592855.8206437,-0.68505859375,5.605810546875,0.1611328125
1748592855.8306475,-0.68896484375,5.39287109375,0.1474609375
1748592855.8406446,-0.707763671875,5.73740234375,0.16845703125
1748592855.8506446,-0.78955078125,5.883349609375,0.205810546875
1748592855.8606448,-0.801513671875,6.146533203125,0.189697265625
1748592855.870644,-0.85791015625,6.665722656250001,0.1826171875
1748592855.880646,-0.903564453125,6.962402343750001,0.191650390625
1748592855.8906446,-0.896728515625,7.390673828125,0.205078125
1748592855.9006453,-0.840576171875,7.1490234375,0.1904296875
1748592855.9106445,-0.74755859375,6.821240234375001,0.211669921875
1748592855.920645,-0.724365234375,6.7087890625,0.204833984375
1748592855.9306448,-0.685546875,6.6561523437500005,0.1953125
1748592855.9406443,-0.63134765625,6.292480468750001,0.211669921875
1748592855.9506466,-0.5966796875,5.8307128906250005,0.21630859375
1748592855.9606435,-0.567138671875,5.218212890625001,0.17724609375
1748592855.9706447,-0.557861328125,4.8330078125,0.1572265625
1748592855.980645,-0.525146484375,4.821044921875,0.125732421875
1748592855.9906454,-0.6201171875,5.1296875,0.171142578125
1748592856.0006437,-0.732421875,5.964697265625,0.137451171875
1748592856.0106456,-0.752685546875,6.366650390625001,0.10986328125
1748592856.0206459,-0.767822265625,6.438427734375001,0.129150390625
1748592856.0306437,-0.7578125,6.0221191406250005,0.141357421875
1748592856.0406446,-0.455322265625,4.242041015625,0.115966796875
1748592856.050644,-0.64404296875,5.158398437500001,0.1142578125
1748592856.0606441,-0.896484375,6.132177734375,0.074462890625
1748592856.0706444,-1.011962890625,7.955322265625001,0.00732421875
1748592856.080644,-1.029052734375,8.84296875,0.02099609375
1748592856.0906444,-0.946533203125,7.869189453125,0.1416015625
1748592856.100644,-0.711669921875,6.904980468750001,0.2001953125
1748592856.110644,-0.623291015625,6.0101562500000005,0.2216796875
1748592856.1206446,-0.62060546875,5.8426757812500005,0.209716796875
1748592856.130644,-0.686767578125,6.471923828125001,0.179931640625
1748592856.1406438,-0.71875,6.802099609375,0.12841796875
1748592856.1506445,-0.694091796875,6.459960937500001,0.12353515625
1748592856.160644,-0.66259765625,5.9431640625,0.103759765625
1748592856.1706438,-0.6640625,5.955126953125,0.09326171875
1748592856.1806479,-0.641357421875,6.113037109375,0.068603515625
1748592856.1906445,-0.65771484375,6.098681640625,0.061279296875
1748592856.200645,-0.69140625,6.4216796875,0.017333984375
1748592856.210645,-0.716796875,6.55087890625,0.052490234375
1748592856.220646,-0.71533203125,6.58916015625,0.05126953125
1748592856.230646,-0.708740234375,6.553271484375,0.06396484375
1748592856.2406445,-0.704345703125,6.462353515625001,0.0546875
1748592856.2506585,-0.706787109375,6.562841796875,0.044921875
1748592856.260646,-0.710205078125,6.653759765625001,0.0322265625
1748592856.2706466,-0.6552734375,6.720751953125,0.059814453125
1748592856.280652,-0.715087890625,6.6681152343750005,0.06640625
1748592856.2906482,-0.71044921875,6.926513671875001,0.054443359375
1748592856.300646,-0.707763671875,6.9911132812500005,0.065673828125
1748592856.3106465,-0.692626953125,7.065283203125,0.0654296875
1748592856.3206477,-0.68994140625,7.137060546875,0.049072265625
1748592856.3306448,-0.697021484375,7.120312500000001,0.041015625
1748592856.3406432,-0.66357421875,6.93369140625,0.044189453125
1748592856.3506427,-0.655517578125,7.1227050781250005,0.034912109375
1748592856.360643,-0.629638671875,7.175341796875,0.021728515625
1748592856.3706436,-0.618408203125,7.084423828125001,0.005859375
1748592856.3806438,-0.63916015625,7.280615234375,-0.0068359375
1748592856.390644,-0.677734375,7.414599609375,-0.029052734375
1748592856.4006443,-0.68798828125,7.4935546875000005,-0.047607421875
1748592856.410644,-0.71044921875,7.07724609375,-0.056640625
1748592856.4206438,-0.684326171875,7.02939453125,-0.025634765625
1748592856.4306445,-0.635009765625,6.770996093750001,-0.017333984375
1748592856.4406435,-0.593994140625,6.713574218750001,-0.039794921875
1748592856.450643,-0.620361328125,6.83798828125,-0.05029296875
1748592856.4606442,-0.68115234375,6.538916015625,-0.0537109375
1748592856.4706442,-0.68994140625,6.78056640625,-0.046142578125
1748592856.4806447,-0.727783203125,6.4527832031250005,0.038330078125
1748592856.490644,-0.705078125,6.45517578125,0.07666015625
1748592856.5006435,-0.76904296875,6.8140625,0.090576171875
1748592856.5106442,-0.76171875,6.73271484375,0.07861328125
1748592856.5206451,-0.755126953125,6.4168945312500005,0.094970703125
1748592856.5306447,-0.74462890625,6.2302734375,0.108154296875
1748592856.5406442,-0.74267578125,6.30205078125,0.091552734375
1748592856.5506449,-0.72998046875,6.196777343750001,0.130615234375
1748592856.5606441,-0.7158203125,6.5245605468750005,0.130615234375
1748592856.5706444,-0.693603515625,6.519775390625001,0.183349609375
1748592856.5806444,-0.708251953125,6.7159667968750005,0.112548828125
1748592856.5906453,-0.730712890625,6.869091796875001,0.068603515625
1748592856.6006448,-0.72998046875,7.00546875,0.11279296875
1748592856.610644,-0.69970703125,6.605908203125001,0.082763671875
1748592856.6206446,-0.70263671875,6.840380859375,0.0615234375
1748592856.6306443,-0.701416015625,7.060498046875001,0.082275390625
1748592856.6406438,-0.6826171875,7.273437500000001,0.05224609375
1748592856.6506443,-0.665771484375,7.046142578125001,0.01806640625
1748592856.6606445,-0.64111328125,6.7087890625,0.027587890625
1748592856.6706443,-0.621826171875,6.730322265625,0.0009765625
1748592856.6806448,-0.64013671875,6.519775390625001,-0.020751953125
1748592856.6906438,-0.671875,6.73271484375,0.016357421875
1748592856.7006443,-0.690673828125,6.845166015625001,0.053955078125
1748592856.7106442,-0.662841796875,6.677685546875001,0.0751953125
1748592856.720644,-0.621337890625,6.821240234375001,0.045654296875
1748592856.7306445,-0.581298828125,7.1466308593750005,0.036376953125
1748592856.7406447,-0.6083984375,7.859619140625001,0.008056640625
1748592856.7506444,-0.601806640625,8.218505859375,-0.052001953125
1748592856.7606442,-0.61474609375,7.510302734375,-0.047607421875
1748592856.7706435,-0.58251953125,8.87646484375,0.005615234375
1748592856.7806444,-0.59521484375,8.89560546875,-0.078857421875
1748592856.7906432,-0.5771484375,8.826220703125001,-0.134033203125
1748592856.8006506,-0.553466796875,8.787939453125,-0.08984375
1748592856.8106444,-0.521484375,8.34052734375,-0.02978515625
1748592856.8206441,-0.488037109375,7.7088867187500005,0.030517578125
1748592856.8306446,-0.45556640625,7.464843750000001,0.034912109375
1748592856.8406444,-0.46044921875,7.38828125,0.014404296875
1748592856.8506439,-0.45166015625,7.902685546875,0.00146484375
1748592856.8606434,-0.479248046875,8.62763671875,-0.048583984375
1748592856.8706448,-0.4765625,9.11572265625,-0.070068359375
1748592856.8806436,-0.47119140625,9.534423828125,-0.0810546875
1748592856.890644,-0.49365234375,9.048730468750001,-0.0791015625
1748592856.9006438,-0.445556640625,9.118115234375,-0.04345703125
1748592856.910645,-0.41796875,9.376513671875001,-0.057373046875
1748592856.9206438,-0.396240234375,9.634912109375001,-0.076416015625
1748592856.930644,-0.38330078125,9.479394531250001,-0.040283203125
1748592856.9406447,-0.364990234375,9.49853515625,-0.0361328125
1748592856.9506443,-0.335693359375,9.433935546875,-0.009765625
1748592856.960643,-0.3525390625,9.25927734375,0.014404296875
1748592856.970643,-0.396484375,8.601318359375,0.01904296875
1748592856.980644,-0.44384765625,8.280712890625,0.05712890625
1748592856.9906437,-0.408935546875,7.132275390625001,0.061279296875
1748592857.000645,-0.427734375,8.10126953125,0.045166015625
1748592857.0106442,-0.39404296875,9.079833984375,0.025146484375
1748592857.0206442,-0.447021484375,9.11572265625,0.0322265625
1748592857.030644,-0.472412109375,9.723437500000001,0.003173828125
1748592857.040644,-0.4541015625,10.146923828125,0.018310546875
1748592857.0506434,-0.474365234375,9.610986328125001,0.075927734375
1748592857.0606444,-0.57861328125,7.73759765625,0.16064453125
1748592857.0706444,-0.468017578125,7.347607421875001,0.267822265625
1748592857.080644,-0.251708984375,9.553564453125,0.09375
1748592857.0906448,-0.196533203125,10.826416015625,-0.0791015625
1748592857.1006444,-0.173828125,11.3599609375,-0.060302734375
1748592857.1106439,-0.244140625,10.783349609375001,-0.056640625
1748592857.1206443,-0.288818359375,9.747363281250001,0.11181640625
1748592857.130643,-0.252197265625,9.357373046875,0.189453125
1748592857.1406438,-0.226318359375,9.73779296875,0.143798828125
1748592857.1506438,-0.22119140625,10.127783203125,0.082275390625
1748592857.1606438,-0.20703125,10.247412109375,0.018310546875
1748592857.1706438,-0.21630859375,9.704296875,0.027587890625
1748592857.1806455,-0.178955078125,9.481787109375,0.048828125
1748592857.190644,-0.22021484375,9.091796875,0.046142578125
1748592857.2006447,-0.189453125,8.491259765625001,0.116455078125
1748592857.2106469,-0.121826171875,8.706591796875001,0.126953125
1748592857.220648,-0.078125,9.120507812500001,0.1025390625
1748592857.2306447,-0.09228515625,9.3501953125,0.0810546875
1748592857.240645,-0.1396484375,9.644482421875,0.073486328125
1748592857.250658,-0.13037109375,10.11103515625,0.071044921875
1748592857.260646,-0.13623046875,10.056005859375,0.087646484375
1748592857.2706466,-0.084716796875,10.285693359375001,0.1337890625
1748592857.2807202,-0.04296875,10.1349609375,0.146484375
1748592857.2906487,-0.02587890625,9.898095703125001,0.1064453125
1748592857.3006465,-0.095458984375,9.697119140625,0.217041015625
1748592857.3106444,-0.081787109375,9.634912109375001,0.228759765625
1748592857.3206441,-0.0517578125,9.864599609375,0.208740234375
1748592857.3306432,-0.068115234375,10.003369140625,0.158935546875
1748592857.3406441,-0.091552734375,10.079931640625,0.150634765625
1748592857.3506436,-0.093017578125,10.395751953125,0.1484375
1748592857.3606427,-0.102294921875,9.845458984375,0.220458984375
1748592857.3706436,0.004150390625,10.154101562500001,0.205322265625
1748592857.3806434,0.060546875,10.400537109375001,0.16650390625
1748592857.390644,0.0625,10.486669921875,0.111572265625
1748592857.4006433,0.00927734375,10.5177734375,0.08837890625
1748592857.4106443,0.1083984375,9.704296875,0.126953125
1748592857.420644,-0.183349609375,6.7159667968750005,0.20751953125
1748592857.430644,0.069580078125,8.113232421875,0.343505859375
1748592857.4406443,0.08544921875,9.031982421875,0.067138671875
1748592857.450644,0.1376953125,8.964990234375001,0.088134765625
1748592857.4606433,0.221435546875,9.096582031250001,0.126953125
1748592857.470644,0.28271484375,9.697119140625,0.102783203125
1748592857.480644,0.280517578125,9.9052734375,0.1064453125
1748592857.4906442,0.25634765625,9.9052734375,0.17626953125
1748592857.500644,0.171142578125,9.589453125,0.177001953125
1748592857.5106437,0.1220703125,9.223388671875,0.2333984375
1748592857.5206442,0.1201171875,8.960205078125,0.236328125
1748592857.5306435,0.1728515625,9.0439453125,0.220703125
1748592857.5406442,0.1357421875,8.957812500000001,0.21923828125
1748592857.5506437,0.119384765625,8.921923828125001,0.19384765625
1748592857.560644,0.114990234375,8.902783203125,0.201416015625
1748592857.5706437,0.158935546875,9.122900390625,0.212890625
1748592857.5806437,0.10205078125,9.453076171875,0.217529296875
1748592857.5906434,0.189453125,9.577490234375,0.203125
1748592857.6006434,0.215576171875,9.670800781250001,0.19970703125
1748592857.6106446,0.22607421875,9.553564453125,0.219970703125
1748592857.620644,0.220703125,9.335839843750001,0.205078125
1748592857.6306443,0.143310546875,9.161181640625001,0.214111328125
1748592857.6406443,0.105224609375,8.974560546875,0.219970703125
1748592857.650644,0.076904296875,8.957812500000001,0.265869140625
1748592857.6606445,0.099853515625,9.156396484375001,0.253173828125
1748592857.6706438,0.050048828125,9.15400390625,0.2734375
1748592857.6806443,0.057861328125,9.654052734375,0.25927734375
1748592857.690644,0.04296875,10.051220703125,0.2001953125
1748592857.7006445,0.11376953125,10.247412109375,0.187255859375
1748592857.7106445,0.106201171875,10.35986328125,0.1806640625
1748592857.720644,0.1171875,10.410107421875,0.15771484375
1748592857.7306437,0.07958984375,10.678076171875,0.215576171875
1748592857.7406435,-0.042724609375,10.3263671875,0.2578125
1748592857.750644,0.0185546875,10.816845703125,0.283935546875
1748592857.7606435,0.175048828125,11.692529296875001,0.227783203125
1748592857.7706437,0.216064453125,11.285791015625001,0.196533203125
1748592857.7806435,0.142333984375,10.4029296875,0.210693359375
1748592857.7906435,0.023193359375,9.54638671875,0.2958984375
1748592857.8006437,0.120849609375,10.204345703125,0.266357421875
1748592857.8106437,0.245849609375,11.276220703125,0.153076171875
1748592857.8206441,0.21435546875,10.989111328125,0.131103515625
1748592857.8306437,0.16064453125,10.005761718750001,0.190673828125
1748592857.840644,0.09423828125,9.170751953125,0.251220703125
1748592857.8506444,0.1494140625,8.79990234375,0.285400390625
1748592857.8606436,0.18017578125,9.003271484375,0.22802734375
1748592857.870646,0.146240234375,8.854931640625,0.239990234375
1748592857.8806443,0.166259765625,8.362060546875,0.231689453125
1748592857.8906443,0.296875,8.0103515625,0.17138671875
1748592857.9006438,0.19482421875,9.252099609375001,0.1103515625
1748592857.9106436,0.150390625,8.945849609375001,0.16748046875
1748592857.9206433,0.202880859375,8.706591796875001,0.282470703125
1748592857.9306438,0.15185546875,8.582177734375001,0.27734375
1748592857.9406443,0.024658203125,8.764013671875,0.25146484375
1748592857.950644,0.0859375,8.7568359375,0.244384765625
1748592857.960643,0.1572265625,8.49365234375,0.236572265625
1748592857.9706442,0.120361328125,8.981738281250001,0.19482421875
1748592857.9806445,0.056884765625,9.433935546875,0.17626953125
1748592857.9906445,0.01513671875,9.548779296875,0.15771484375
1748592858.0006437,-0.191650390625,9.92919921875,0.216064453125
1748592858.010648,0.352294921875,12.111230468750001,0.1748046875
1748592858.020645,0.551025390625,11.824121093750001,0.16845703125
1748592858.0306442,0.59619140625,9.491357421875001,0.291259765625
1748592858.0406442,0.392333984375,8.938671875,0.42333984375
1748592858.0506437,0.275146484375,8.134765625,0.344482421875
1748592858.0606432,0.258056640625,8.443408203125001,0.2734375
1748592858.0706437,0.24462890625,8.737695312500001,0.239501953125
1748592858.0806453,0.424072265625,9.543994140625001,0.193359375
1748592858.0906446,0.58544921875,9.704296875,0.2158203125
1748592858.1006439,0.75439453125,9.412402343750001,0.2587890625
1748592858.1106443,0.869384765625,8.405126953125,0.2919921875
1748592858.120644,0.142578125,8.883642578125,0.396484375
1748592858.1306443,0.241943359375,9.287988281250001,0.336669921875
1748592858.1406436,0.2431640625,9.37412109375,0.307373046875
1748592858.1506436,0.19384765625,9.59423828125,0.2431640625
1748592858.1606436,0.176025390625,9.603808593750001,0.2412109375
1748592858.1706448,0.165283203125,9.558349609375,0.281494140625
1748592858.1806471,0.16162109375,9.579882812500001,0.29150390625
1748592858.1906438,0.185546875,9.4458984375,0.306396484375
1748592858.2006435,0.2060546875,9.290380859375,0.287353515625
1748592858.2106452,0.22705078125,9.328662109375001,0.2705078125
1748592858.2206457,0.2275390625,9.405224609375,0.262451171875
1748592858.2306442,0.23388671875,9.515283203125001,0.26904296875
1748592858.2406447,0.2158203125,9.845458984375,0.260009765625
1748592858.2506568,0.195556640625,10.010546875000001,0.2802734375
1748592858.260647,0.2001953125,9.68515625,0.28125
1748592858.270644,0.19384765625,9.56552734375,0.270751953125
1748592858.2806425,0.20361328125,9.398046875,0.269287109375
1748592858.290643,0.21923828125,9.319091796875,0.27294921875
1748592858.3006423,0.199462890625,9.149218750000001,0.274169921875
1748592858.310642,0.204833984375,9.079833984375,0.265625
1748592858.3206418,0.22412109375,9.02001953125,0.25927734375
1748592858.3306425,0.235107421875,8.8046875,0.270751953125
1748592858.340641,0.23583984375,8.632421875,0.271728515625
1748592858.3506386,0.2265625,8.615673828125,0.258056640625
1748592858.360642,0.183837890625,8.86689453125,0.2744140625
1748592858.3706417,0.173095703125,8.9673828125,0.25146484375
1748592858.3806412,0.17333984375,9.065478515625001,0.27001953125
1748592858.3906417,0.150634765625,9.15400390625,0.27978515625
1748592858.4006412,0.132080078125,9.209033203125001,0.27001953125
1748592858.4106417,0.103271484375,9.25927734375,0.27001953125
1748592858.420638,0.074951171875,9.51767578125,0.247802734375
1748592858.430641,0.017333984375,10.343115234375,0.221435546875
1748592858.4406419,-0.045166015625,11.108740234375,0.200439453125
1748592858.4506414,-0.267333984375,9.816748046875,0.267333984375
1748592858.4606416,0.045166015625,12.132763671875,0.27001953125
1748592858.4706416,0.034423828125,12.3169921875,0.2587890625
1748592858.4806418,0.103515625,11.312109375,0.3486328125
1748592858.4906378,0.19775390625,10.0392578125,0.324462890625
1748592858.5006418,0.171875,9.510498046875,0.2548828125
1748592858.5106416,0.148681640625,9.606201171875,0.19482421875
1748592858.5206413,0.176025390625,10.008154296875,0.176513671875
1748592858.5306416,0.20068359375,10.266552734375,0.218017578125
1748592858.5406413,0.18701171875,9.666015625,0.2607421875
1748592858.5506413,0.152099609375,9.39326171875,0.28369140625
1748592858.560642,0.149658203125,9.56552734375,0.296630859375
1748592858.5706415,0.15380859375,9.6181640625,0.260986328125
1748592858.5806417,0.111572265625,9.551171875000001,0.2421875
1748592858.5906422,0.06884765625,9.290380859375,0.2392578125
1748592858.6006415,0.0205078125,9.051123046875,0.23974609375
1748592858.6106422,-0.037841796875,8.333349609375,0.21337890625
1748592858.6206417,-0.01953125,8.11083984375,0.24560546875
1748592858.630636,0.020751953125,8.407519531250001,0.203857421875
1748592858.640642,0.0556640625,8.86689453125,0.221435546875
1748592858.6506412,0.14404296875,8.900390625,0.226806640625
1748592858.6606414,0.171142578125,9.400439453125001,0.256591796875
1748592858.670642,0.164306640625,9.668408203125,0.271484375
1748592858.680642,0.158935546875,9.835888671875,0.2578125
1748592858.6906416,0.137451171875,10.0201171875,0.249755859375
1748592858.7006364,0.123046875,9.926806640625001,0.223876953125
1748592858.7106407,0.075439453125,9.529638671875,0.229248046875
1748592858.7206414,0.065673828125,9.376513671875001,0.23974609375
1748592858.7306406,0.062744140625,9.37890625,0.225830078125
1748592858.7406409,0.060302734375,9.268847656250001,0.212890625
1748592858.7506416,0.05419921875,9.13486328125,0.224853515625
1748592858.7606416,0.031005859375,9.113330078125001,0.232421875
1748592858.7706406,-0.01025390625,9.206640625,0.230224609375
1748592858.780642,-0.021240234375,9.381298828125,0.23193359375
1748592858.790641,-0.019287109375,9.223388671875,0.2421875
1748592858.8006415,-0.036865234375,8.6037109375,0.24462890625
1748592858.8106415,0.024658203125,8.357275390625,0.227294921875
1748592858.8206406,-0.014892578125,8.515185546875001,0.2001953125
1748592858.830642,-0.00244140625,9.084619140625001,0.170654296875
1748592858.8406377,0.10693359375,10.907763671875001,0.121337890625
1748592858.850642,0.174560546875,12.099267578125001,0.0380859375
1748592858.8606415,0.134521484375,11.7427734375,0.0986328125
1748592858.8706415,0.06640625,10.52255859375,0.28466796875
1748592858.8806417,0.047607421875,10.276123046875,0.32177734375
1748592858.8906412,0.023193359375,10.419677734375,0.28076171875
1748592858.9006417,-0.014404296875,9.998583984375001,0.253662109375
1748592858.9106376,-0.0244140625,9.474609375,0.252685546875
1748592858.920642,0.0068359375,9.30712890625,0.234375
1748592858.9306412,-0.0703125,8.926708984375,0.222900390625
1748592858.9406414,-0.068115234375,8.8716796875,0.198974609375
1748592858.9506414,-0.05419921875,8.9673828125,0.13330078125
1748592858.9606414,-0.04248046875,9.180322265625001,0.10693359375
1748592858.9706416,-0.02734375,9.364550781250001,0.105712890625
1748592858.9806378,0.005859375,10.084716796875,0.07861328125
1748592858.990641,0.042724609375,10.417285156250001,0.08984375
1748592859.0006413,0.082763671875,10.931689453125001,0.109619140625
1748592859.0106418,0.1376953125,11.328857421875,0.154052734375
1748592859.0206413,0.1142578125,11.202050781250001,0.197265625
1748592859.0306408,0.072021484375,11.178125000000001,0.23876953125
1748592859.0406415,0.058837890625,11.319287109375,0.26171875
1748592859.0506334,0.0458984375,11.209228515625,0.244140625
1748592859.0606413,0.1240234375,11.7619140625,0.216064453125
1748592859.0706415,0.186767578125,11.895898437500001,0.149169921875
1748592859.0806406,0.197509765625,10.8814453125,0.17236328125
1748592859.090642,0.10400390625,9.383691406250001,0.240478515625
1748592859.100641,-0.090087890625,9.462646484375,0.27880859375
1748592859.1106412,-0.08154296875,9.276025390625001,0.2158203125
1748592859.1206374,-0.169921875,8.845361328125001,0.215087890625
1748592859.1306415,-0.2080078125,8.725732421875001,0.202392578125
1748592859.140642,-0.277099609375,9.137255859375001,0.135498046875
1748592859.1506414,-0.225830078125,9.34541015625,0.07568359375
1748592859.160642,-0.1484375,9.407617187500001,0.0478515625
1748592859.1706414,-0.127197265625,9.244921875000001,0.087890625
1748592859.1806412,-0.067138671875,9.895703125,0.135009765625
1748592859.1906462,-0.016357421875,10.546484375,0.125
1748592859.2006412,0.03173828125,10.895800781250001,0.136962890625
1748592859.2106426,0.07568359375,11.314501953125001,0.155029296875
1748592859.2206423,0.03466796875,10.898193359375,0.19970703125
1748592859.2305956,0.0048828125,10.3072265625,0.26025390625
1748592859.2406442,-0.008544921875,10.149316406250001,0.26513671875
1748592859.2506552,-0.05908203125,10.065576171875001,0.220947265625
1748592859.260649,-0.100341796875,9.730615234375001,0.23876953125
1748592859.2706482,-0.1005859375,9.61337890625,0.19775390625
1748592859.2806482,-0.0888671875,9.78564453125,0.16015625
1748592859.290647,-0.06640625,9.311914062500001,0.134765625
1748592859.3006477,-0.107421875,9.359765625000001,0.1796875
1748592859.3106453,-0.177490234375,9.027197265625,0.20751953125
1748592859.3206432,-0.190185546875,9.113330078125001,0.207763671875
1748592859.3306434,-0.1474609375,9.08701171875,0.208740234375
1748592859.3406441,-0.112548828125,9.23056640625,0.17431640625
1748592859.350644,-0.071044921875,9.783251953125001,0.1650390625
1748592859.3606446,0.009521484375,9.969873046875001,0.147705078125
1748592859.3706436,0.059326171875,10.31201171875,0.106201171875
1748592859.380647,0.0908203125,10.201953125000001,0.144287109375
1748592859.3906436,0.105712890625,10.065576171875001,0.168701171875
1748592859.4006438,0.154296875,10.008154296875,0.200439453125
1748592859.4106433,0.175048828125,9.9244140625,0.2197265625
1748592859.4206429,0.193115234375,9.778466796875001,0.212158203125
1748592859.430645,-0.045654296875,9.72822265625,0.2158203125
1748592859.4406433,-0.074951171875,9.673193359375,0.1962890625
1748592859.4506547,-0.0400390625,9.70908203125,0.150634765625
1748592859.4606447,-0.059814453125,9.735400390625001,0.156494140625
1748592859.4706435,-0.04736328125,9.864599609375,0.149169921875
1748592859.480645,-0.07763671875,9.902880859375001,0.164794921875
1748592859.4906435,-0.057861328125,9.414794921875,0.193359375
1748592859.5006442,-0.06787109375,9.914843750000001,0.18017578125
1748592859.5106442,-0.069091796875,9.917236328125,0.1640625
1748592859.5206432,-0.221923828125,10.048828125,0.180419921875
1748592859.530643,-0.239013671875,10.012939453125,0.136962890625
1748592859.5406446,-0.218017578125,9.730615234375001,0.147705078125
1748592859.5506427,-0.198486328125,9.347802734375001,0.15869140625
1748592859.5606444,-0.182861328125,9.35498046875,0.161376953125
1748592859.5706434,-0.14501953125,9.213818359375,0.1552734375
1748592859.5806444,-0.156005859375,8.77119140625,0.1611328125
1748592859.5906453,-0.180908203125,8.5080078125,0.195556640625
1748592859.6006444,-0.163818359375,8.596533203125,0.18115234375
1748592859.6106439,-0.1484375,8.84775390625,0.147216796875
1748592859.620644,-0.04931640625,9.893310546875,0.085205078125
1748592859.6306438,0.01904296875,10.68525390625,0.03515625
1748592859.640644,0.083251953125,10.826416015625,0.07666015625
1748592859.6506436,0.1533203125,11.058496093750001,0.12353515625
1748592859.6606433,0.1865234375,11.0919921875,0.152587890625
1748592859.6706433,0.195556640625,10.69482421875,0.177001953125
1748592859.6806445,0.19873046875,10.25458984375,0.2021484375
1748592859.6906438,0.212890625,9.965087890625,0.203369140625
1748592859.7006462,-0.085205078125,9.790429687500001,0.1875
1748592859.7106438,-0.05517578125,9.599023437500001,0.149658203125
1748592859.720644,-0.07275390625,9.582275390625,0.11572265625
1748592859.7306428,-0.094970703125,9.699511718750001,0.10791015625
1748592859.7406425,-0.101318359375,9.831103515625001,0.10009765625
1748592859.750644,-0.11181640625,10.060791015625,0.108642578125
1748592859.7606428,-0.114501953125,9.575097656250001,0.135986328125
1748592859.7706435,-0.125,9.821533203125,0.1240234375
1748592859.7806468,-0.09619140625,9.850244140625001,0.1455078125
1748592859.790654,-0.058837890625,9.922021484375001,0.142333984375
1748592859.8006442,-0.009765625,9.744970703125,0.137451171875
1748592859.8106434,-0.0400390625,9.649267578125,0.134765625
1748592859.8206432,-0.0576171875,9.668408203125,0.132568359375
1748592859.8306437,-0.06689453125,9.66123046875,0.12841796875
1748592859.8406456,-0.08349609375,9.8287109375,0.079833984375
1748592859.8506446,-0.082275390625,10.010546875000001,0.048095703125
1748592859.8606446,-0.03662109375,9.496142578125001,0.08251953125
1748592859.8706436,-0.065185546875,9.68515625,0.1064453125
1748592859.880644,-0.057861328125,9.90048828125,0.11328125
1748592859.8906448,-0.045166015625,9.869384765625,0.142333984375
1748592859.900644,-0.060546875,9.807177734375001,0.149658203125
1748592859.9106443,-0.0576171875,9.831103515625001,0.13037109375
1748592859.920643,-0.071533203125,10.099072265625,0.116455078125
1748592859.9306438,-0.0634765625,9.8478515625,0.11767578125
1748592859.9406462,-0.090576171875,9.658837890625001,0.117431640625
1748592859.9506445,-0.083251953125,9.7521484375,0.143310546875
1748592859.960645,-0.075439453125,10.029687500000001,0.12060546875
1748592859.9706433,-0.09228515625,10.008154296875,0.141845703125
1748592859.9806437,-0.099365234375,9.912451171875,0.1240234375
1748592859.9906447,-0.076416015625,9.744970703125,0.1376953125
1748592860.0006437,-0.079833984375,9.886132812500001,0.118408203125
1748592860.0106459,-0.07373046875,10.077539062500001,0.103271484375
1748592860.0206466,-0.058349609375,10.26416015625,0.121826171875
1748592860.0306427,-0.087646484375,10.539306640625,0.095947265625
1748592860.0406437,0.007080078125,10.532128906250001,0.10498046875
1748592860.0506434,0.06494140625,10.5751953125,0.097900390625
1748592860.060644,0.08203125,10.869482421875,0.097900390625
1748592860.0706434,-0.014892578125,10.343115234375,0.126220703125
1748592860.0806437,-0.046142578125,9.933984375000001,0.166015625
1748592860.0906456,-0.002685546875,10.036865234375,0.158447265625
1748592860.1006444,-0.00048828125,10.45078125,0.1240234375
1748592860.1106439,-0.0283203125,9.864599609375,0.140869140625
1748592860.1206446,-0.00439453125,9.888525390625,0.113037109375
1748592860.1306436,-0.00341796875,10.084716796875,0.113525390625
1748592860.1406431,-0.059814453125,9.213818359375,0.112060546875
1748592860.1506443,-0.0673828125,9.015234375,0.1376953125
1748592860.160646,-0.068359375,8.99609375,0.120849609375
1748592860.170644,-0.074462890625,9.1875,0.10205078125
1748592860.1806479,-0.033447265625,9.453076171875,0.096435546875
1748592860.190645,-0.0224609375,9.56552734375,0.1025390625
1748592860.2006435,-0.044677734375,9.084619140625001,0.14111328125
1748592860.2106483,-0.007568359375,9.764111328125,0.130126953125
1748592860.2206488,-0.0556640625,9.577490234375,0.11474609375
1748592860.2306442,-0.157958984375,9.036767578125001,0.136962890625
1748592860.240645,-0.04443359375,10.154101562500001,0.111572265625
1748592860.2506602,-0.00537109375,10.127783203125,0.10009765625
1748592860.2606425,0.052978515625,10.895800781250001,0.0966796875
1748592860.270642,0.164306640625,11.266650390625001,0.05078125
1748592860.280602,-0.116455078125,9.627734375000001,0.116943359375
1748592860.2906475,-0.278076171875,7.61796875,0.1650390625
1748592860.3006427,-0.05029296875,9.711474609375001,0.155029296875
1748592860.3106465,-0.0361328125,10.005761718750001,0.1220703125
1748592860.320642,0.096435546875,10.620654296875001,0.095703125
1748592860.3306413,-0.025634765625,9.795214843750001,0.1474609375
1748592860.3406413,0.010986328125,9.532031250000001,0.1455078125
1748592860.3506424,-0.013916015625,9.749755859375,0.14453125
1748592860.3606443,0.0068359375,9.742578125000001,0.125
1748592860.370642,0.021240234375,9.878955078125001,0.128173828125
1748592860.3806422,-0.022705078125,10.367041015625,0.12744140625
1748592860.3906405,-0.038818359375,10.156494140625,0.136962890625
1748592860.4006422,-0.04052734375,10.28330078125,0.11962890625
1748592860.4106412,-0.004150390625,9.972265625,0.122314453125
1748592860.4206417,-0.0234375,9.96748046875,0.15576171875
1748592860.4306335,-0.0263671875,10.883837890625001,0.12548828125
1748592860.440642,-0.053955078125,11.130273437500001,0.154296875
1748592860.4506414,-0.050537109375,10.821630859375,0.12890625
1748592860.4606426,-0.0048828125,10.45078125,0.162353515625
1748592860.470642,-0.056640625,10.85751953125,0.1591796875
1748592860.4806416,-0.04931640625,10.568017578125001,0.176025390625
1748592860.490641,-0.03955078125,10.524951171875001,0.17529296875
1748592860.5006456,-0.0498046875,9.936376953125,0.181396484375
1748592860.5106423,-0.022216796875,9.512890625,0.16259765625
1748592860.5206423,-0.016357421875,9.53681640625,0.133544921875
1748592860.5306425,-0.07470703125,9.917236328125,0.10791015625
1748592860.5406415,-0.075927734375,10.142138671875001,0.126953125
1748592860.5506423,-0.077392578125,10.556054687500001,0.14013671875
1748592860.5606415,-0.191650390625,10.965185546875,0.18994140625
1748592860.5706332,-0.10107421875,10.917333984375,0.18017578125
1748592860.5806415,-0.120849609375,10.85751953125,0.156494140625
1748592860.5906422,-0.135009765625,10.807275390625001,0.164794921875
1748592860.600641,-0.0693359375,10.094287109375001,0.15869140625
1748592860.6106424,-0.097412109375,10.087109375,0.15771484375
1748592860.6206422,-0.077392578125,9.6564453125,0.14599609375
1748592860.630642,0.0283203125,8.938671875,0.10498046875
1748592860.6406312,0.0166015625,8.720947265625,0.11279296875
1748592860.6506436,0.07080078125,8.144335937500001,0.15673828125
1748592860.660642,0.01220703125,8.522363281250001,0.185546875
1748592860.6706424,-0.10986328125,9.479394531250001,0.193603515625
1748592860.6806421,-0.10888671875,10.237841796875001,0.1640625
1748592860.6906416,-0.045654296875,10.118212890625001,0.18115234375
1748592860.7006416,-0.112548828125,10.706787109375,0.208251953125
1748592860.7106411,-0.1923828125,10.759423828125001,0.2607421875
1748592860.7206485,-0.1513671875,10.563232421875,0.22265625
1748592860.7306404,-0.176513671875,10.71396484375,0.1923828125
1748592860.7406414,-0.146240234375,10.816845703125,0.179443359375
1748592860.750642,-0.077880859375,10.467529296875,0.156982421875
1748592860.760641,0.136474609375,9.209033203125001,0.164794921875
1748592860.770642,-0.03955078125,9.622949218750001,0.191650390625
1748592860.780642,-0.109375,9.29755859375,0.21630859375
1748592860.790642,-0.071044921875,8.9482421875,0.172119140625
1748592860.8006418,-0.140625,9.364550781250001,0.1474609375
1748592860.810641,-0.0595703125,8.713769531250001,0.166748046875
1748592860.8206415,-0.132568359375,9.127685546875,0.167236328125
1748592860.8306425,-0.196533203125,9.68515625,0.1953125
1748592860.8406417,-0.4619140625,9.651660156250001,0.208251953125
1748592860.8506417,-0.507568359375,10.66611328125,0.362060546875
1748592860.860642,-0.198486328125,10.25458984375,0.240966796875
1748592860.870642,-0.21875,11.0537109375,0.228271484375
1748592860.8806424,0.447998046875,10.80966796875,0.03271484375
1748592860.8906343,0.361328125,9.189892578125,-0.005126953125
1748592860.900642,0.050048828125,8.00556640625,0.155029296875
1748592860.9106417,-0.011474609375,7.9361816406250005,0.152099609375
1748592860.9206424,0.052978515625,8.60849609375,0.119140625
1748592860.9306421,0.0546875,8.646777343750001,0.168701171875
1748592860.9406416,0.01220703125,8.003173828125,0.18408203125
1748592860.9506414,-0.108154296875,9.926806640625001,0.19384765625
1748592860.9606442,-0.27001953125,9.778466796875001,0.221923828125
1748592860.9706423,-0.301025390625,9.938769531250001,0.255859375
1748592860.9806428,-0.33935546875,10.046435546875001,0.233642578125
1748592860.9906418,-0.27978515625,9.998583984375001,0.22509765625
1748592861.0006413,-0.42041015625,9.424365234375001,0.2373046875
1748592861.010641,-0.26220703125,9.704296875,0.193115234375
1748592861.0206413,-0.20458984375,9.687548828125001,0.1494140625
1748592861.0306365,-0.166748046875,9.7521484375,0.130615234375
1748592861.040645,0.013916015625,9.754541015625001,0.13232421875
1748592861.0506418,0.0791015625,9.175537109375,0.168701171875
1748592861.060641,0.06494140625,8.838183593750001,0.218994140625
1748592861.070642,0.081298828125,8.639599609375,0.198486328125
1748592861.0806413,0.080078125,8.97216796875,0.147216796875
1748592861.0906422,0.117919921875,9.048730468750001,0.1513671875
1748592861.1006374,0.142578125,8.582177734375001,0.1435546875
1748592861.1106422,-0.1787109375,9.649267578125,0.203857421875
1748592861.1206417,-0.1318359375,9.6181640625,0.199462890625
1748592861.130641,-0.134521484375,9.443505859375001,0.216064453125
1748592861.1406415,-0.1337890625,9.0439453125,0.224853515625
1748592861.1506417,-0.153564453125,9.625341796875,0.199462890625
1748592861.1606424,-0.167724609375,9.933984375000001,0.208984375
1748592861.1706347,-0.115234375,9.63251953125,0.227783203125
1748592861.1806424,-0.126953125,9.39326171875,0.22509765625
1748592861.1906419,-0.141845703125,9.05830078125,0.223876953125
1748592861.2006419,-0.228271484375,9.70908203125,0.20068359375
1748592861.210642,-0.107177734375,9.45068359375,0.17822265625
1748592861.2206414,-0.08154296875,9.053515625000001,0.188232421875
1748592861.2306418,-0.108154296875,8.7759765625,0.2177734375
1748592861.2406473,-0.1416015625,9.419580078125001,0.21875
1748592861.2506802,-0.14892578125,9.589453125,0.215576171875
1748592861.260646,-0.18505859375,9.759326171875001,0.212158203125
1748592861.2706459,-0.20751953125,9.802392578125001,0.2041015625
1748592861.2806435,-0.209716796875,9.907666015625,0.218505859375
1748592861.2906504,-0.20361328125,10.09189453125,0.212646484375
1748592861.3006463,-0.159423828125,9.654052734375,0.191650390625
1748592861.310644,-0.18701171875,9.615771484375001,0.213623046875
1748592861.3206482,-0.145263671875,9.6181640625,0.1962890625
1748592861.3306453,-0.08251953125,9.266455078125,0.21044921875
1748592861.3406432,-0.08154296875,9.017626953125001,0.2216796875
1748592861.350644,-0.139404296875,8.742480468750001,0.241943359375
1748592861.3606439,-0.1376953125,9.266455078125,0.223388671875
1748592861.3706439,-0.173583984375,9.189892578125,0.23095703125
1748592861.3806438,-0.076171875,9.768896484375,0.20458984375
1748592861.3906434,-0.1337890625,9.835888671875,0.217041015625
1748592861.4006429,-0.13916015625,9.704296875,0.23583984375
1748592861.4106429,-0.134033203125,9.7521484375,0.216796875
1748592861.4206433,-0.114013671875,9.587060546875001,0.216552734375
1748592861.4306462,-0.1455078125,9.603808593750001,0.206298828125
1748592861.4406447,-0.126220703125,9.72822265625,0.213134765625
1748592861.450644,-0.1484375,9.601416015625,0.2158203125
1748592861.4606493,-0.125732421875,9.579882812500001,0.216796875
1748592861.470646,-0.108154296875,9.64208984375,0.21044921875
1748592861.480646,-0.12451171875,9.59423828125,0.209716796875
1748592861.4906442,-0.114501953125,9.484179687500001,0.216796875
1748592861.5006444,-0.16943359375,9.68515625,0.213134765625
1748592861.510644,-0.23046875,10.35029296875,0.21484375
1748592861.5206435,-0.200927734375,9.936376953125,0.229736328125
1748592861.5306437,-0.0966796875,9.151611328125,0.223876953125
1748592861.540644,-0.11376953125,9.070263671875,0.207275390625
1748592861.5506437,-0.14306640625,9.467431640625001,0.198974609375
1748592861.5606432,-0.1259765625,9.797607421875,0.20361328125
1748592861.5706441,-0.109619140625,9.216210937500001,0.218017578125
1748592861.5806453,-0.1337890625,9.462646484375,0.1953125
1748592861.5906444,-0.140625,9.591845703125001,0.202880859375
1748592861.6006446,-0.147216796875,9.76171875,0.187744140625
1748592861.6106427,-0.13525390625,9.658837890625001,0.2099609375
1748592861.6206443,-0.125,9.386083984375,0.203125
1748592861.6306443,-0.12158203125,9.716259765625,0.2021484375
1748592861.6406438,-0.14208984375,9.510498046875,0.208251953125
1748592861.6506445,-0.1455078125,9.840673828125,0.20947265625
1748592861.6606438,-0.161376953125,9.682763671875001,0.218505859375
1748592861.6706438,-0.154052734375,9.811962890625,0.210205078125
1748592861.6806457,-0.179443359375,10.017724609375001,0.20703125
1748592861.690644,-0.177734375,10.113427734375001,0.202392578125
1748592861.7006462,-0.13671875,9.543994140625001,0.19384765625
1748592861.7106442,-0.089111328125,8.67548828125,0.201416015625
1748592861.7206445,-0.111083984375,9.410009765625,0.1943359375
1748592861.730644,-0.14501953125,9.699511718750001,0.20849609375
1748592861.7406442,-0.17138671875,9.649267578125,0.216064453125
1748592861.7506437,-0.1669921875,9.467431640625001,0.214599609375
1748592861.7606437,-0.14892578125,9.529638671875,0.198974609375
1748592861.770645,-0.135986328125,9.64208984375,0.18701171875
1748592861.7806447,-0.12939453125,9.699511718750001,0.194091796875
1748592861.790644,-0.13623046875,9.764111328125,0.19091796875
1748592861.8006446,-0.13623046875,9.610986328125001,0.189697265625
1748592861.8106446,-0.124267578125,9.49853515625,0.20947265625
1748592861.820644,-0.12158203125,9.49375,0.192626953125
1748592861.8306446,-0.14208984375,9.7521484375,0.18896484375
1748592861.8406444,-0.1328125,9.654052734375,0.193359375
1748592861.8506439,-0.11279296875,9.481787109375,0.19921875
1748592861.860644,-0.12841796875,10.170849609375,0.182861328125
1748592861.8706446,-0.1376953125,9.68994140625,0.21630859375
1748592861.8806455,-0.119140625,9.658837890625001,0.196044921875
1748592861.8906438,-0.122314453125,9.668408203125,0.2001953125
1748592861.9006436,-0.129638671875,9.70908203125,0.216064453125
1748592861.9106438,-0.153564453125,9.792822265625,0.218994140625
1748592861.9206438,-0.165283203125,9.914843750000001,0.212158203125
1748592861.9306438,-0.146240234375,9.754541015625001,0.195556640625
1748592861.9406433,-0.15283203125,9.950732421875001,0.174072265625
1748592861.9506443,-0.13818359375,9.699511718750001,0.201171875
1748592861.9606488,-0.132568359375,9.651660156250001,0.191162109375
1748592861.970645,-0.124755859375,9.4650390625,0.20654296875
1748592861.9806437,-0.319091796875,10.448388671875001,0.213134765625
1748592861.9906437,-0.180419921875,10.0009765625,0.20068359375
1748592862.0006442,-0.138427734375,9.5703125,0.185302734375
1748592862.0106437,-0.113525390625,9.539208984375001,0.200439453125
1748592862.0206442,-0.122802734375,9.532031250000001,0.172607421875
1748592862.0306442,-0.098876953125,9.455468750000001,0.190185546875
1748592862.0406437,0.155029296875,7.88115234375,0.1875
1748592862.0506437,-0.2431640625,10.3837890625,0.194091796875
1748592862.060644,-0.159912109375,10.027294921875,0.228271484375
1748592862.0706446,-0.114990234375,9.66123046875,0.177978515625
1748592862.0806437,-0.15087890625,9.68515625,0.2197265625
1748592862.0906432,-0.142578125,9.957910156250001,0.2021484375
1748592862.1006446,-0.149658203125,10.010546875000001,0.194580078125
1748592862.1106436,-0.1572265625,9.957910156250001,0.177490234375
1748592862.1206443,-0.205810546875,10.077539062500001,0.187744140625
1748592862.1306446,-0.2080078125,9.88134765625,0.21923828125
1748592862.1406438,-0.218994140625,10.278515625,0.180419921875
1748592862.150644,-0.14501953125,9.646875000000001,0.186279296875
1748592862.1606448,-0.087646484375,9.364550781250001,0.177978515625
1748592862.1706433,-0.052001953125,8.768798828125,0.177001953125
1748592862.1806448,-0.083740234375,9.000878906250001,0.185791015625
1748592862.1906435,-0.1005859375,9.008056640625,0.214599609375
1748592862.200644,-0.21435546875,10.017724609375001,0.226318359375
1748592862.2106478,-0.072021484375,8.797509765625001,0.20654296875
1748592862.2206526,-0.135986328125,9.491357421875001,0.210205078125
1748592862.2306464,-0.165283203125,9.85263671875,0.203125
1748592862.240644,-0.154296875,9.857421875,0.21826171875
1748592862.2506602,-0.155029296875,9.8,0.228271484375
1748592862.2606463,-0.138671875,9.838281250000001,0.208251953125
1748592862.2706475,-0.138427734375,9.819140625000001,0.192626953125
1748592862.2806454,-0.155517578125,9.673193359375,0.17333984375
1748592862.2906475,-0.15673828125,9.859814453125,0.15625
1748592862.3006454,-0.163818359375,9.857421875,0.182373046875
1748592862.3106449,-0.186279296875,10.07275390625,0.205078125
1748592862.3206444,-0.176025390625,9.883740234375,0.185546875
1748592862.3306437,-0.1884765625,9.864599609375,0.190185546875
1748592862.3406441,-0.497802734375,12.395947265625,0.1435546875
1748592862.350644,-0.12646484375,9.206640625,0.198974609375
1748592862.3606443,0.01708984375,7.670605468750001,0.1904296875
1748592862.3706443,-0.105712890625,9.060693359375001,0.199951171875
1748592862.3806438,-0.0947265625,9.407617187500001,0.19189453125
1748592862.3906431,-0.111572265625,9.462646484375,0.194580078125
1748592862.4006448,-0.14013671875,9.639697265625001,0.20361328125
1748592862.4106436,-0.13623046875,9.797607421875,0.21533203125
1748592862.4206433,-0.165771484375,9.99619140625,0.218505859375
1748592862.4306443,-0.15576171875,9.974658203125001,0.2001953125
1748592862.4406438,-0.153076171875,9.835888671875,0.204345703125
1748592862.4506443,-0.184814453125,10.438818359375,0.19482421875
1748592862.4606442,-0.196044921875,10.178027343750001,0.22509765625
1748592862.4706445,-0.150146484375,9.59423828125,0.20654296875
1748592862.4806442,-0.029052734375,8.82861328125,0.185546875
1748592862.4906437,-0.15673828125,9.118115234375,0.203369140625
1748592862.5006437,-0.372314453125,10.340722656250001,0.217529296875
1748592862.5106442,-0.2763671875,10.022509765625001,0.222412109375
1748592862.5206435,-0.36474609375,10.33115234375,0.188720703125
1748592862.5306437,-0.37109375,10.587158203125,0.17041015625
1748592862.5406444,-0.373291015625,10.3359375,0.168212890625
1748592862.550644,-0.14306640625,9.744970703125,0.17236328125
1748592862.5606434,0.385986328125,7.137060546875,0.203369140625
1748592862.5706432,0.076904296875,7.500732421875001,0.188720703125
1748592862.580644,0.0400390625,8.30224609375,0.19873046875
1748592862.5906444,-0.024658203125,8.713769531250001,0.203125
1748592862.6006436,-0.071044921875,8.742480468750001,0.249267578125
1748592862.610644,-0.10693359375,8.993701171875001,0.21142578125
1748592862.6206436,-0.136962890625,9.4267578125,0.210205078125
1748592862.630644,-0.170166015625,9.92919921875,0.23193359375
1748592862.640644,-0.186767578125,10.300048828125,0.244873046875
1748592862.650644,-0.1875,9.974658203125001,0.244140625
1748592862.6606433,-0.17431640625,9.838281250000001,0.239990234375
1748592862.670644,-0.139892578125,9.692333984375,0.224365234375
1748592862.6806448,-0.112060546875,9.414794921875,0.22607421875
1748592862.690644,-0.10546875,9.316699218750001,0.20654296875
1748592862.7006443,-0.099365234375,9.412402343750001,0.217041015625
1748592862.7106438,-0.114501953125,9.46982421875,0.223388671875
1748592862.7206433,-0.10595703125,9.455468750000001,0.229248046875
1748592862.7306437,-0.137451171875,9.68515625,0.233154296875
1748592862.7406442,-0.1611328125,9.83349609375,0.226318359375
1748592862.7506442,-0.186767578125,10.07275390625,0.21826171875
1748592862.7606435,-0.1337890625,10.022509765625001,0.206787109375
1748592862.7706435,-0.136962890625,9.998583984375001,0.2265625
1748592862.780644,-0.10888671875,9.759326171875001,0.229736328125
1748592862.7906446,-0.111572265625,9.78564453125,0.22412109375
1748592862.8006434,-0.138671875,9.58466796875,0.21826171875
1748592862.810644,-0.12353515625,9.481787109375,0.222412109375
1748592862.8206434,-0.135498046875,9.529638671875,0.223388671875
1748592862.8306446,-0.165771484375,9.80478515625,0.21826171875
1748592862.840646,-0.126708984375,9.587060546875001,0.227783203125
1748592862.8506448,-0.125732421875,9.795214843750001,0.235595703125
1748592862.8606446,-0.21630859375,10.556054687500001,0.22607421875
1748592862.8706439,-0.131591796875,9.5224609375,0.223388671875
1748592862.8806465,-0.152099609375,9.634912109375001,0.244873046875
1748592862.890644,-0.170166015625,9.78564453125,0.236083984375
1748592862.9006438,-0.166259765625,9.902880859375001,0.2197265625
1748592862.9106443,-0.16357421875,9.682763671875001,0.223876953125
1748592862.9206436,-0.1708984375,9.323876953125001,0.2314453125
1748592862.9306438,-0.146240234375,9.220996093750001,0.2373046875
1748592862.9406435,-0.137939453125,9.247314453125,0.2548828125
1748592862.9506447,-0.142578125,9.29755859375,0.244384765625
1748592862.960648,-0.1611328125,9.386083984375,0.24169921875
1748592862.9706445,-0.149658203125,9.30234375,0.228515625
1748592862.980646,-0.134033203125,8.933886718750001,0.222900390625
1748592862.9906452,-0.128173828125,8.764013671875,0.241455078125
1748592863.0006447,-0.172119140625,9.127685546875,0.26416015625
1748592863.0106437,-0.132568359375,8.993701171875001,0.25146484375
1748592863.0206447,-0.087646484375,9.366943359375,0.214599609375
1748592863.0306523,-0.107666015625,9.419580078125001,0.213623046875
1748592863.0406446,-0.155029296875,9.383691406250001,0.2431640625
1748592863.0506463,-0.186767578125,10.496240234375001,0.185791015625
1748592863.0606434,-0.148193359375,9.864599609375,0.206787109375
1748592863.0706434,-0.1376953125,9.240136718750001,0.252197265625
1748592863.080647,-0.15087890625,9.838281250000001,0.230712890625
1748592863.0906446,-0.1328125,10.012939453125,0.234130859375
1748592863.1006444,-0.15185546875,9.795214843750001,0.237060546875
1748592863.1106439,-0.167236328125,9.579882812500001,0.243408203125
1748592863.1206434,-0.17578125,9.795214843750001,0.2373046875
1748592863.1306515,-0.17236328125,9.766503906250001,0.2197265625
1748592863.1406453,-0.156494140625,9.64208984375,0.216552734375
1748592863.1506443,-0.191162109375,9.05830078125,0.223876953125
1748592863.1606433,-0.15478515625,9.1396484375,0.235595703125
1748592863.170644,-0.117919921875,8.941064453125001,0.263671875
1748592863.1806488,-0.116943359375,9.2736328125,0.22802734375
1748592863.1906455,-0.115966796875,9.764111328125,0.212890625
1748592863.2006435,-0.13427734375,9.936376953125,0.221435546875
1748592863.210648,-0.14013671875,9.9244140625,0.225830078125
1748592863.220653,-0.1728515625,9.625341796875,0.223876953125
1748592863.230654,-0.189697265625,9.512890625,0.22509765625
1748592863.2406487,-0.187255859375,9.56552734375,0.208984375
1748592863.2506523,-0.189208984375,9.429150390625,0.22705078125
1748592863.2606423,-0.19189453125,9.764111328125,0.22509765625
1748592863.2706435,-0.19580078125,9.94833984375,0.25634765625
1748592863.280646,-0.10986328125,9.725830078125,0.24658203125
1748592863.290647,-0.157470703125,9.938769531250001,0.232177734375
1748592863.300643,-0.042236328125,10.161279296875001,0.17822265625
1748592863.310611,-0.127685546875,9.92919921875,0.19384765625
1748592863.3206499,-0.0947265625,9.816748046875,0.224609375
1748592863.3306456,-0.162109375,9.553564453125,0.28466796875
1748592863.3406448,-0.1083984375,10.218701171875,0.242919921875
1748592863.3506427,-0.149658203125,9.764111328125,0.25244140625
1748592863.3606434,-0.19873046875,8.82861328125,0.261962890625
1748592863.3706434,-0.177490234375,8.517578125,0.265625
1748592863.380644,-0.164306640625,9.11572265625,0.265625
1748592863.3906434,-0.15625,9.543994140625001,0.243896484375
1748592863.4006433,-0.15576171875,9.7330078125,0.220458984375
1748592863.410643,-0.14892578125,9.898095703125001,0.20654296875
1748592863.4206426,-0.0751953125,10.546484375,0.18115234375
1748592863.4306426,0.025390625,11.673388671875001,0.1591796875
1748592863.4406447,-0.041259765625,11.764306640625001,0.2275390625
1748592863.450645,-0.0712890625,10.926904296875001,0.346435546875
1748592863.4606452,-0.103515625,10.084716796875,0.28515625
1748592863.4706454,-0.15234375,8.807080078125,0.277587890625
1748592863.480646,-0.17431640625,8.503222656250001,0.22216796875
1748592863.490644,-0.140869140625,8.314208984375,0.188720703125
1748592863.5006442,-0.167236328125,8.907568359375,0.20458984375
1748592863.5106432,-0.198486328125,9.165966796875,0.247802734375
1748592863.5206437,-0.191162109375,9.49853515625,0.25927734375
1748592863.5306437,-0.3427734375,8.314208984375,0.2529296875
1748592863.5406442,-0.208251953125,8.606103515625001,0.30078125
1748592863.550644,-0.1494140625,9.400439453125001,0.26513671875
1748592863.5606441,-0.004150390625,11.041748046875,0.165283203125
1748592863.5706437,-0.38232421875,8.486474609375001,0.46240234375
1748592863.5806453,0.227294921875,12.247607421875001,0.1533203125
1748592863.5906448,-0.03271484375,12.955810546875002,0.00390625
1748592863.6006446,-0.0185546875,13.408007812500001,0.100341796875
1748592863.6106443,-0.192626953125,11.204443359375,0.34130859375
1748592863.6206443,-0.18603515625,10.089501953125001,0.46533203125
1748592863.6306443,-0.10791015625,10.252197265625,0.33544921875
1748592863.6406443,-0.190185546875,9.194677734375,0.27001953125
1748592863.6506438,-0.173583984375,8.170654296875,0.256103515625
1748592863.660644,-0.224853515625,7.610791015625001,0.228271484375
1748592863.6706443,-0.22705078125,6.940869140625001,0.225830078125
1748592863.680645,-0.246826171875,5.756542968750001,0.237060546875
1748592863.6906443,-0.318603515625,5.122509765625001,0.258544921875
1748592863.7006469,-0.06396484375,8.280712890625,0.28369140625
1748592863.710646,-0.141845703125,9.359765625000001,0.30908203125
1748592863.7206442,-0.198974609375,10.725927734375,0.2998046875
1748592863.7306442,-0.13916015625,10.80966796875,0.195556640625
1748592863.7406442,-0.17919921875,11.147021484375001,0.204833984375
1748592863.7506437,-0.12158203125,11.852832031250001,0.203857421875
1748592863.7606435,-0.19580078125,11.443701171875,0.23779296875
1748592863.7706435,-0.215087890625,10.108642578125,0.313720703125
1748592863.7806447,-0.156982421875,9.316699218750001,0.31396484375
1748592863.790644,-0.089599609375,10.11103515625,0.27880859375
1748592863.8006437,0.0732421875,11.991601562500001,0.197265625
1748592863.810644,0.094970703125,15.032568359375,0.228515625
1748592863.8206437,0.01123046875,16.2216796875,0.3037109375
1748592863.8306434,0.04296875,14.893798828125002,0.3544921875
1748592863.8406463,-0.172607421875,13.998974609375,0.241943359375
1748592863.8506446,-0.12939453125,10.051220703125,0.046630859375
1748592863.8606436,-0.2236328125,6.352294921875001,0.276611328125
1748592863.8706446,-0.13525390625,7.249511718750001,0.462158203125
1748592863.8806462,0.26708984375,7.017431640625,0.260986328125
1748592863.8906443,0.456787109375,9.673193359375,0.15576171875
1748592863.9006443,0.265625,10.601513671875,0.064453125
1748592863.9106443,0.015869140625,9.127685546875,0.03466796875
1748592863.9206455,-0.148681640625,7.6251464843750005,0.1044921875
1748592863.930644,-0.10546875,7.0916015625,0.163330078125
1748592863.9406447,-0.15771484375,8.575000000000001,0.31689453125
1748592863.950644,-0.15771484375,9.383691406250001,0.430419921875
1748592863.9606445,-0.1259765625,9.433935546875,0.5
1748592863.9706447,-0.163330078125,8.441015625,0.240966796875
1748592863.9806473,-0.427490234375,6.211132812500001,0.257568359375
1748592863.9906454,-0.4736328125,5.397656250000001,0.31396484375
1748592864.0006442,-0.112060546875,7.969677734375001,0.30029296875
1748592864.010644,0.24560546875,11.31689453125,0.138916015625
1748592864.0206451,0.0400390625,10.252197265625,0.11328125
1748592864.0306451,-0.0927734375,9.206640625,0.189453125
1748592864.0406437,-0.1875,8.311816406250001,0.2626953125
1748592864.0506449,-0.255859375,7.59404296875,0.224609375
1748592864.0606441,-0.440185546875,8.318994140625001,0.12451171875
1748592864.0706437,-0.16015625,7.950537109375,0.0068359375
1748592864.0806448,-0.389404296875,8.065380859375,0.333251953125
1748592864.0906458,0.006103515625,9.938769531250001,0.354248046875
1748592864.1006436,0.2734375,11.4556640625,0.11474609375
1748592864.110644,0.078857421875,10.338330078125,0.1318359375
1748592864.1206448,0.16943359375,10.728320312500001,0.292724609375
1748592864.1306443,0.27490234375,10.6708984375,0.345458984375
1748592864.1406436,0.171142578125,9.706689453125001,0.355224609375
1748592864.1506438,0.0068359375,8.893212890625001,0.3037109375
1748592864.1606433,-0.1962890625,8.318994140625001,0.30517578125
1748592864.1706443,-0.52685546875,8.330957031250001,0.0732421875
1748592864.1806443,-0.324462890625,8.529541015625,0.02490234375
1748592864.1906452,-0.153564453125,8.725732421875001,0.099853515625
1748592864.2006435,0.1376953125,9.802392578125001,0.289306640625
1748592864.2106497,0.10205078125,10.673291015625,0.287109375
1748592864.2206516,0.12890625,11.587255859375,0.22216796875
1748592864.2306454,0.237548828125,11.922216796875,0.1884765625
1748592864.2406461,0.0908203125,12.395947265625,0.23828125
1748592864.2509933,0.153564453125,12.159082031250001,0.2802734375
1748592864.260646,0.302001953125,10.80966796875,0.32421875
1748592864.2706463,0.094970703125,10.424462890625001,0.39208984375
1748592864.2806466,-0.01513671875,10.25458984375,0.400634765625
1748592864.2906127,-0.1884765625,9.78564453125,0.296142578125
1748592864.300643,-0.46630859375,10.91015625,0.196044921875
1748592864.310642,-0.197265625,10.259375,0.087646484375
1748592864.3206444,-0.1953125,9.500927734375,0.124267578125
1748592864.3306425,-0.185546875,9.079833984375,0.171630859375
1748592864.340641,-0.081787109375,8.92431640625,0.156982421875
1748592864.3506265,0.06982421875,6.9552246093750005,0.038330078125
1748592864.3606415,-0.19091796875,7.608398437500001,0.0419921875
1748592864.3706417,-0.19580078125,7.687353515625,0.078369140625
1748592864.380642,0.000244140625,8.883642578125,0.158447265625
1748592864.3906417,0.30859375,10.39814453125,0.179443359375
1748592864.400642,-0.11328125,8.120410156250001,0.268310546875
1748592864.4106414,-0.321533203125,6.658544921875,0.322509765625
1748592864.420629,-0.0029296875,7.8524414062500005,0.177001953125
1748592864.4306421,0.04638671875,9.1587890625,0.044677734375
1748592864.4406414,0.055419921875,11.350390625000001,0.07421875
1748592864.4506419,0.20166015625,9.077441406250001,0.128662109375
1748592864.4606419,-0.1630859375,9.558349609375,0.2783203125
1748592864.4706416,-0.41357421875,9.000878906250001,0.42236328125
1748592864.4806423,-0.076171875,9.83349609375,0.40771484375
1748592864.4906414,0.022216796875,7.850048828125001,0.262451171875
1748592864.500643,0.0703125,8.91953125,0.204833984375
1748592864.510641,-0.1220703125,8.6994140625,0.12890625
1748592864.520642,-0.050048828125,6.251806640625,0.08056640625
1748592864.530642,0.037109375,7.36435546875,0.092041015625
1748592864.540642,0.285400390625,9.673193359375,0.14208984375
1748592864.5506415,0.33203125,11.261865234375001,0.154541015625
1748592864.560641,-0.0302734375,12.094482421875,0.239501953125
1748592864.570642,-0.1787109375,13.018017578125,0.2451171875
1748592864.580637,-0.302734375,13.29794921875,0.16064453125
1748592864.5906425,-0.4306640625,11.974853515625,0.112060546875
1748592864.6006427,-0.093505859375,12.417480468750002,0.194580078125
1748592864.610643,-0.05908203125,10.874267578125,0.269775390625
1748592864.6206412,-0.16015625,10.295263671875,0.233154296875
1748592864.6306412,-0.0654296875,11.022607421875001,0.167236328125
1748592864.6406415,0.132080078125,11.28818359375,0.15625
1748592864.6506422,0.150146484375,11.625537109375001,0.260498046875
1748592864.660642,0.132080078125,10.967578125000001,0.317626953125
1748592864.670643,-0.0283203125,10.699609375000001,0.373291015625
1748592864.6806421,-0.14208984375,8.888427734375,0.30224609375
1748592864.6906419,-0.041259765625,8.421875,0.166748046875
1748592864.7006414,-0.072021484375,8.586962890625001,0.01171875
1748592864.710642,-0.0908203125,8.929101562500001,-0.00732421875
1748592864.7206419,-0.134521484375,9.371728515625001,0.0703125
1748592864.7306418,0.052490234375,11.467626953125,0.16064453125
1748592864.7406437,0.109130859375,11.74755859375,0.207275390625
1748592864.7506418,0.045166015625,11.14462890625,0.366943359375
1748592864.7606413,0.12548828125,10.084716796875,0.446044921875
1748592864.7706413,0.050537109375,8.548681640625,0.394287109375
1748592864.7806416,0.070068359375,8.208935546875,0.22998046875
1748592864.7906418,0.116943359375,7.6371093750000005,0.04345703125
1748592864.8006413,0.166015625,8.630029296875001,-0.105224609375
1748592864.8106422,-0.108154296875,8.35009765625,-0.0771484375
1748592864.8206418,0.08544921875,9.479394531250001,-0.066650390625
1748592864.8306425,0.103515625,9.42197265625,0.06640625
1748592864.8406422,-0.03173828125,9.012841796875001,0.1767578125
1748592864.8506422,0.075439453125,10.087109375,0.208740234375
1748592864.8606422,0.0673828125,10.568017578125001,0.208251953125
1748592864.8706422,0.133056640625,11.1685546875,0.163818359375
1748592864.880642,0.26904296875,10.929296875,0.315673828125
1748592864.8906422,0.16796875,10.316796875000001,0.132568359375
1748592864.9006426,0.001220703125,10.381396484375001,0.192626953125
1748592864.910642,0.029541015625,10.699609375000001,0.170654296875
1748592864.9206412,0.160888671875,11.580078125,0.048095703125
1748592864.930642,0.20947265625,11.29296875,-0.0029296875
1748592864.9406414,0.00341796875,10.73310546875,0.14013671875
1748592864.9506416,-0.2353515625,10.242626953125,0.092041015625
1748592864.9606414,-0.27880859375,9.957910156250001,0.04736328125
1748592864.9706423,-0.157470703125,9.240136718750001,0.048828125
1748592864.9806418,0.0576171875,8.91953125,-0.02734375
1748592864.9906423,0.01611328125,9.505712890625,-0.00927734375
1748592865.0006416,0.04443359375,10.084716796875,0.002685546875
1748592865.0106423,0.011962890625,9.869384765625,0.061767578125
1748592865.0206413,0.090087890625,9.44111328125,0.068603515625
1748592865.0306416,0.1064453125,9.802392578125001,0.06591796875
1748592865.0406413,0.15185546875,10.321582031250001,0.080810546875
1748592865.050642,0.0751953125,9.914843750000001,0.114013671875
1748592865.060642,0.064453125,10.807275390625001,0.10400390625
1748592865.0706415,0.0478515625,10.85751953125,0.27685546875
1748592865.0806422,-0.0087890625,10.922119140625,0.12939453125
1748592865.0906427,-0.00244140625,10.611083984375,0.052001953125
1748592865.1006415,0.05859375,10.457958984375,0.03271484375
1748592865.1106422,0.1630859375,10.393359375000001,0.041259765625
1748592865.1206408,0.135009765625,10.457958984375,0.081787109375
1748592865.1306412,0.0908203125,9.936376953125,0.118896484375
1748592865.1406417,0.003662109375,9.431542968750001,0.110107421875
1748592865.1506414,-0.016357421875,9.096582031250001,0.048828125
1748592865.1606421,-0.0009765625,9.644482421875,0.001953125
1748592865.170642,-0.0400390625,10.692431640625001,-0.033447265625
1748592865.1806426,-0.168212890625,8.409912109375,0.015869140625
1748592865.190642,-0.1162109375,9.314306640625,0.000732421875
1748592865.200644,0.027099609375,9.725830078125,-0.079345703125
1748592865.2106428,0.023193359375,9.735400390625001,-0.013427734375
1748592865.2206426,0.082275390625,8.845361328125001,0.05810546875
1748592865.2306411,0.0888671875,9.955517578125,0.084228515625
1748592865.240643,0.152587890625,11.008251953125,0.046630859375
1748592865.2506552,0.283203125,11.228369140625,-0.01708984375
1748592865.260646,0.140380859375,11.3791015625,0.07861328125
1748592865.2706442,0.119140625,12.474902343750001,0.062255859375
1748592865.2806447,0.0966796875,10.754638671875,0.056640625
1748592865.2906463,0.10498046875,11.266650390625001,0.008056640625
1748592865.3006437,0.05908203125,7.26865234375,0.09130859375
1748592865.3106456,0.14697265625,8.23046875,0.02294921875
1748592865.3206463,0.1474609375,9.0439453125,-0.08837890625
1748592865.3306506,0.00390625,7.687353515625,-0.001220703125
1748592865.3406484,0.0234375,7.59404296875,0.04931640625
1748592865.3506444,0.070068359375,7.83330078125,0.03369140625
1748592865.360643,0.119873046875,9.438720703125,0.03857421875
1748592865.370644,0.05029296875,8.048632812500001,0.100830078125
1748592865.3806453,-0.003173828125,7.728027343750001,0.104248046875
1748592865.3906434,0.092041015625,8.7568359375,-0.001708984375
1748592865.4006433,0.192138671875,8.00556640625,-0.04052734375
1748592865.4106438,0.28369140625,6.988720703125001,0.01953125
1748592865.420643,0.04248046875,7.821337890625,0.0341796875
1748592865.4306436,-0.10888671875,8.766406250000001,-0.0283203125
1748592865.4406433,-0.01513671875,8.641992187500001,-0.118408203125
1748592865.4506435,-0.000244140625,9.1396484375,-0.09716796875
1748592865.4606478,0.127197265625,10.247412109375,-0.052978515625
1748592865.4706445,0.0380859375,11.082421875000001,0.015625
1748592865.480645,-0.2666015625,9.965087890625,0.12646484375
1748592865.4906464,-0.181640625,8.816650390625,0.13134765625
1748592865.5006444,-0.166015625,8.92431640625,0.1328125
1748592865.5106444,-0.01806640625,9.8765625,0.067626953125
1748592865.5206432,-0.075439453125,9.85263671875,0.044189453125
1748592865.5306442,-0.083984375,10.457958984375,0.10546875
1748592865.5406542,0.09521484375,12.137548828125,-0.022705078125
1748592865.5506437,0.2060546875,13.307519531250001,-0.00244140625
1748592865.5606441,0.20654296875,13.290771484375002,0.082275390625
1748592865.570643,-0.03759765625,11.467626953125,0.20361328125
1748592865.580646,0.02880859375,10.501025390625001,0.211669921875
1748592865.5906446,-0.094970703125,10.012939453125,0.20166015625
1748592865.6006436,-0.094970703125,9.398046875,0.1640625
1748592865.6106436,-0.024169921875,9.113330078125001,0.090087890625
1748592865.6206436,0.018310546875,9.323876953125001,0.056396484375
1748592865.630644,0.0322265625,9.5416015625,0.0634765625
1748592865.6406512,-0.251220703125,9.18271484375,0.140625
1748592865.6506445,-0.1650390625,8.625244140625,0.054931640625
1748592865.6606436,-0.050537109375,9.11572265625,0.03662109375
1748592865.6706455,0.1494140625,10.572802734375001,0.051025390625
1748592865.680645,0.12353515625,10.61826171875,0.170654296875
1748592865.6906438,-0.025634765625,9.610986328125001,0.263671875
1748592865.700644,-0.034423828125,9.390869140625,0.191162109375
1748592865.7106442,-0.057861328125,9.390869140625,0.112060546875
1748592865.720644,-0.0498046875,8.744873046875,0.113525390625
1748592865.7306442,-0.070556640625,8.161083984375,0.096923828125
1748592865.7406445,0.00048828125,8.964990234375001,0.131103515625
1748592865.7506447,0.049072265625,10.544091796875001,0.0751953125
1748592865.7606437,-0.00146484375,11.170947265625001,0.09423828125
1748592865.7706435,-0.0087890625,11.16376953125,0.075927734375
1748592865.780648,0.010009765625,10.587158203125,0.0869140625
1748592865.7906442,0.056640625,10.276123046875,0.11474609375
1748592865.8006437,0.025634765625,10.101464843750001,0.1611328125
1748592865.8106444,-0.064208984375,9.795214843750001,0.190673828125
1748592865.820644,-0.04833984375,9.859814453125,0.114990234375
1748592865.8306448,-0.02294921875,10.39814453125,0.0595703125
1748592865.8406498,-0.003173828125,10.747460937500001,0.058349609375
1748592865.8506448,-0.029296875,10.66611328125,0.09423828125
1748592865.8606446,-0.0078125,10.237841796875001,0.125
1748592865.8706439,0.00732421875,10.056005859375,0.1533203125
1748592865.8806446,0.062255859375,10.1828125,0.119140625
1748592865.890644,0.05615234375,9.981835937500001,0.123046875
1748592865.9006448,0.114501953125,10.35986328125,0.101318359375
1748592865.9106445,0.125,10.938867187500001,0.07958984375
1748592865.9206436,0.14404296875,11.075244140625001,0.071533203125
1748592865.9306443,0.177490234375,10.879052734375001,0.081787109375
1748592865.9406438,0.1787109375,11.324072265625,0.0810546875
1748592865.9506443,0.220947265625,10.812060546875001,0.123291015625
1748592865.960648,0.08544921875,10.50341796875,0.176513671875
1748592865.9706442,-0.007568359375,9.893310546875,0.212646484375
1748592865.9806447,0.013671875,10.099072265625,0.14208984375
1748592865.9906445,0.0517578125,10.393359375000001,0.046630859375
1748592866.0006437,-0.07080078125,11.2642578125,0.010986328125
1748592866.0106432,-0.0126953125,10.469921875,-0.031005859375
1748592866.0206475,0.146240234375,10.697216796875,0.02099609375
1748592866.0306468,0.12451171875,9.965087890625,0.06982421875
1748592866.040644,0.163818359375,10.051220703125,0.14990234375
1748592866.0506444,0.228759765625,10.7666015625,0.132568359375
1748592866.0606441,0.246826171875,10.943652343750001,0.088623046875
1748592866.0706437,0.072998046875,11.391064453125,0.044921875
1748592866.0806448,0.05126953125,10.6708984375,0.041015625
1748592866.0906441,0.0478515625,10.194775390625,0.08251953125
1748592866.1006448,0.28369140625,9.989013671875,0.043701171875
1748592866.1106446,0.091552734375,10.017724609375001,0.048583984375
1748592866.1206436,0.137939453125,9.388476562500001,0.1025390625
1748592866.130644,0.275146484375,9.634912109375001,0.09375
1748592866.1406438,0.241943359375,9.424365234375001,0.091552734375
1748592866.1506448,0.2080078125,9.194677734375,0.075927734375
1748592866.160644,0.0234375,8.936279296875,0.055419921875
1748592866.1706452,-0.025146484375,8.168261718750001,0.082275390625
1748592866.180646,0.03466796875,8.022314453125,0.0703125
1748592866.1906466,0.004638671875,8.168261718750001,0.085205078125
1748592866.2006445,0.19970703125,8.252001953125001,0.064697265625
1748592866.210645,0.3525390625,12.415087890625001,-0.013427734375
1748592866.2206452,0.229248046875,10.946044921875,-0.149658203125
1748592866.2306445,0.108154296875,8.6515625,0.00341796875
1748592866.2406445,0.19384765625,8.740087890625,0.11181640625
1748592866.2507443,-0.052978515625,8.79990234375,0.129638671875
1748592866.2606435,-0.0224609375,9.5607421875,0.04931640625
1748592866.2706544,0.0517578125,9.142041015625,0.0634765625
1748592866.2806423,0.1064453125,8.342919921875001,0.06787109375
1748592866.2906468,0.09912109375,7.615576171875,0.05517578125
1748592866.3006432,0.076416015625,7.739990234375001,-0.017578125
1748592866.3106122,0.035400390625,8.065380859375,-0.031494140625
1748592866.3206418,0.06494140625,8.742480468750001,-0.00244140625
1748592866.330641,0.177001953125,8.7568359375,0.036865234375
1748592866.3406413,0.291748046875,9.094189453125,0.09912109375
1748592866.3506415,0.3623046875,9.362158203125,0.099365234375
1748592866.360641,0.364501953125,9.677978515625,0.076904296875
1748592866.3706422,0.294189453125,9.484179687500001,0.038818359375
1748592866.380642,0.228515625,9.343017578125,0.040771484375
1748592866.3906417,0.214111328125,10.065576171875001,0.01904296875
1748592866.4006324,0.16552734375,10.78095703125,0.046630859375
1748592866.4106421,0.195068359375,10.64697265625,0.053955078125
1748592866.420642,0.121826171875,10.52734375,0.079345703125
1748592866.430642,0.09814453125,9.893310546875,0.1005859375
1748592866.4406419,0.097412109375,9.551171875000001,0.08349609375
1748592866.450641,0.1015625,8.5845703125,0.072998046875
1748592866.4606426,0.216064453125,9.1109375,0.058837890625
1748592866.470641,0.2939453125,9.754541015625001,0.01220703125
1748592866.4806416,0.305419921875,10.163671875,-0.007568359375
1748592866.4906442,0.344482421875,10.022509765625001,-0.0537109375
1748592866.5006413,0.25634765625,9.563134765625001,-0.0712890625
1748592866.5106423,0.1806640625,9.711474609375001,-0.057373046875
1748592866.5206418,0.13427734375,10.0966796875,-0.02001953125
1748592866.5306418,0.053466796875,10.185205078125001,0.000244140625
1748592866.5406415,0.09033203125,10.266552734375,0.075927734375
1748592866.550642,0.10791015625,9.840673828125,0.109375
1748592866.5606456,0.087890625,9.7521484375,0.134521484375
1748592866.570641,0.119140625,9.910058593750001,0.13134765625
1748592866.5806422,0.098388671875,9.718652343750001,0.1357421875
1748592866.5906417,0.0634765625,9.606201171875,0.130615234375
1748592866.6006415,0.0361328125,9.639697265625001,0.1044921875
1748592866.6106424,0.037841796875,9.66123046875,0.052734375
1748592866.6206417,0.029052734375,9.816748046875,0.007080078125
1748592866.6306417,0.072509765625,9.783251953125001,-0.001953125
1748592866.6406424,0.161376953125,9.886132812500001,0.006591796875
1748592866.6506414,0.1640625,10.108642578125,0.027099609375
1748592866.6606421,0.189697265625,10.91015625,0.041748046875
1748592866.6706429,0.227783203125,11.19248046875,0.052001953125
1748592866.6806417,0.244384765625,10.967578125000001,0.087890625
1748592866.6906426,0.22265625,11.010644531250001,0.1025390625
1748592866.700642,0.111328125,11.099169921875001,0.1123046875
1748592866.7106416,0.098388671875,11.00107421875,0.103515625
1748592866.7206433,0.082763671875,10.68525390625,0.100830078125
1748592866.7306426,0.110595703125,10.256982421875001,0.103515625
1748592866.7406414,0.0869140625,9.979443359375,0.0478515625
1748592866.7506416,0.097412109375,9.663623046875001,0.060302734375
1748592866.760642,0.11181640625,9.575097656250001,0.042236328125
1748592866.7706418,0.115234375,9.462646484375,0.062255859375
1748592866.7806418,0.064697265625,9.34541015625,0.079833984375
1748592866.7906318,0.075439453125,9.410009765625,0.115478515625
1748592866.800641,0.088134765625,9.675585937500001,0.121826171875
1748592866.8106415,0.080810546875,9.96748046875,0.097900390625
1748592866.8206418,0.078369140625,10.178027343750001,0.085205078125
1748592866.8306422,0.06884765625,10.39814453125,0.083984375
1748592866.8406417,0.062744140625,10.233056640625001,0.08740234375
1748592866.8506417,0.0517578125,9.9052734375,0.09033203125
1748592866.860642,0.02880859375,9.500927734375,0.100830078125
1748592866.8706422,0.00341796875,9.49375,0.102783203125
1748592866.8806427,-0.02685546875,9.089404296875001,0.09130859375
1748592866.8906417,-0.025390625,9.075048828125,0.1376953125
1748592866.9006417,0.04296875,9.558349609375,0.048828125
1748592866.910641,0.08544921875,9.83349609375,0.025634765625
1748592866.9206412,0.13720703125,9.979443359375,0.018798828125
1748592866.9306426,0.1171875,10.108642578125,0.004638671875
1748592866.940642,0.096435546875,10.189990234375001,0.048095703125
1748592866.9506376,0.16162109375,10.35029296875,0.086669921875
1748592866.960642,0.21533203125,10.697216796875,0.06689453125
1748592866.9706411,0.230712890625,11.35517578125,0.1015625
1748592866.9806416,0.152587890625,10.627832031250001,0.111572265625
1748592866.9906425,0.033935546875,9.721044921875,0.10302734375
1748592867.0006418,0.046630859375,9.66123046875,0.127685546875
1748592867.010641,0.050048828125,9.496142578125001,0.157470703125
1748592867.0206378,-0.011962890625,10.300048828125,0.2119140625
1748592867.0306418,0.00439453125,10.960400390625,0.186767578125
1748592867.0406415,0.1015625,10.91015625,0.104736328125
1748592867.0506415,0.127685546875,10.505810546875,0.0615234375
1748592867.0606415,0.11669921875,9.866992187500001,0.068603515625
1748592867.0706415,0.0947265625,9.582275390625,0.062744140625
1748592867.0806415,0.1005859375,9.644482421875,0.08203125
1748592867.090642,0.138916015625,9.532031250000001,0.10986328125
1748592867.1006408,0.130126953125,10.1349609375,0.12890625
1748592867.110642,0.170654296875,11.017822265625,0.1171875
1748592867.1206422,0.171875,11.065673828125,0.111328125
1748592867.130642,0.093505859375,10.4220703125,0.154296875
1748592867.1406415,0.081787109375,9.907666015625,0.166259765625
1748592867.150642,0.001220703125,9.02001953125,0.18115234375
1748592867.1606421,-0.027099609375,8.957812500000001,0.1943359375
1748592867.1706412,0.084716796875,9.041552734375001,0.142333984375
1748592867.180637,0.095458984375,9.407617187500001,0.08740234375
1748592867.1906419,0.107177734375,9.567919921875001,0.07666015625
1748592867.2006423,0.119140625,9.66123046875,0.066162109375
1748592867.2106416,0.11572265625,9.912451171875,0.06982421875
1748592867.2206419,0.002685546875,9.410009765625,0.102783203125
1748592867.2306418,0.017578125,9.486572265625,0.10009765625
1748592867.240643,0.004150390625,9.304736328125001,0.123046875
1748592867.250653,0.069091796875,9.130078125,0.1123046875
1748592867.2606435,0.07421875,8.9673828125,0.131103515625
1748592867.2706425,0.107177734375,9.484179687500001,0.130126953125
1748592867.2806423,0.114013671875,9.6564453125,0.113525390625
1748592867.2906427,0.09423828125,9.730615234375001,0.110595703125
1748592867.300642,0.1279296875,10.089501953125001,0.113525390625
1748592867.3106415,0.11572265625,9.682763671875001,0.12255859375
1748592867.320642,0.080810546875,9.615771484375001,0.125
1748592867.330641,0.08447265625,9.984228515625,0.146728515625
1748592867.340641,0.046630859375,9.7521484375,0.158447265625
1748592867.3506427,0.0537109375,9.63251953125,0.17236328125
1748592867.3606415,0.06884765625,9.955517578125,0.160400390625
1748592867.3706417,0.005615234375,9.524853515625,0.1591796875
1748592867.380643,0.139892578125,10.534521484375,0.1279296875
1748592867.3906457,0.07861328125,10.393359375000001,0.15771484375
1748592867.400642,0.054443359375,10.639794921875001,0.163818359375
1748592867.410644,0.058349609375,10.807275390625001,0.185791015625
1748592867.4206414,0.041748046875,10.082324218750001,0.1982421875
1748592867.4306417,-0.001220703125,9.862207031250001,0.1982421875
1748592867.4406424,0.029052734375,9.8095703125,0.16357421875
1748592867.4506383,-0.009033203125,9.718652343750001,0.134521484375
1748592867.4606454,-0.029052734375,9.83349609375,0.14990234375
1748592867.4706416,0.010009765625,9.6373046875,0.17578125
1748592867.480642,0.041748046875,9.80478515625,0.1708984375
1748592867.490643,0.080078125,9.859814453125,0.181396484375
1748592867.5006409,0.112548828125,10.056005859375,0.16064453125
1748592867.510642,0.1162109375,9.890917968750001,0.170166015625
1748592867.520625,0.1240234375,9.895703125,0.183349609375
1748592867.5306416,0.062744140625,9.764111328125,0.1357421875
1748592867.540642,0.008544921875,9.646875000000001,0.122314453125
1748592867.5506644,0.023193359375,9.410009765625,0.143310546875
1748592867.5606444,0.00927734375,9.697119140625,0.159912109375
1748592867.5706441,0.070068359375,10.209130859375001,0.17333984375
1748592867.580645,0.052490234375,9.955517578125,0.19677734375
1748592867.5906456,0.03271484375,9.869384765625,0.19287109375
1748592867.6006446,0.041015625,9.893310546875,0.173828125
1748592867.6106453,0.045166015625,9.895703125,0.17919921875
1748592867.6206434,0.02490234375,9.878955078125001,0.164306640625
1748592867.6306438,0.020751953125,9.9244140625,0.168212890625
1748592867.640644,0.0,9.869384765625,0.1630859375
1748592867.6506517,0.010498046875,9.843066406250001,0.166015625
1748592867.6606448,0.00244140625,9.91962890625,0.1630859375
1748592867.6706452,-0.01171875,9.986621093750001,0.1689453125
1748592867.6806448,-0.039306640625,9.907666015625,0.171875
1748592867.6906443,-0.017822265625,9.699511718750001,0.1611328125
1748592867.700644,-0.02587890625,9.70908203125,0.18115234375
1748592867.7106447,-0.0302734375,9.953125,0.1787109375
1748592867.7206454,0.025146484375,10.058398437500001,0.1650390625
1748592867.730645,0.021728515625,10.173242187500001,0.186279296875
1748592867.7406447,-0.00537109375,10.149316406250001,0.1611328125
1748592867.7506428,-0.017333984375,10.003369140625,0.17529296875
1748592867.7606456,-0.02392578125,9.941162109375,0.1689453125
1748592867.7706482,-0.022705078125,10.010546875000001,0.169677734375
1748592867.7806456,-0.00146484375,9.780859375,0.17529296875
1748592867.7906451,0.005126953125,9.802392578125001,0.182373046875
1748592867.8006442,-0.01953125,9.723437500000001,0.1884765625
1748592867.8106446,-0.03466796875,9.510498046875,0.1953125
1748592867.8206434,-0.018798828125,9.888525390625,0.185791015625
1748592867.830643,0.003173828125,10.058398437500001,0.178955078125
1748592867.8406491,0.034912109375,10.189990234375001,0.163818359375
1748592867.8506453,0.103271484375,9.979443359375,0.171630859375
1748592867.8606448,0.058837890625,10.003369140625,0.167724609375
1748592867.8706446,-0.00732421875,9.979443359375,0.1650390625
1748592867.8806453,-0.069580078125,9.819140625000001,0.165771484375
1748592867.890645,-0.05078125,9.957910156250001,0.142822265625
1748592867.9006448,-0.02685546875,9.883740234375,0.185791015625
1748592867.910644,-0.015625,9.8478515625,0.185302734375
1748592867.920644,-0.005859375,9.8095703125,0.19189453125
1748592867.9306448,-0.003662109375,9.601416015625,0.191162109375
1748592867.9406445,-0.036865234375,9.122900390625,0.231201171875
1748592867.9506447,-0.043212890625,9.45068359375,0.169189453125
1748592867.960648,-0.023193359375,10.484277343750001,0.128662109375
1748592867.9706438,-0.018798828125,9.907666015625,0.18896484375
1748592867.9806454,-0.0703125,9.8765625,0.19677734375
1748592867.9906445,-0.046142578125,9.845458984375,0.18994140625
1748592868.0006447,-0.0087890625,10.089501953125001,0.17578125
1748592868.0106435,-0.017822265625,9.72822265625,0.21630859375
1748592868.0206456,-0.05029296875,9.508105468750001,0.2109375
1748592868.0306478,-0.04638671875,9.61337890625,0.218017578125
1748592868.040645,-0.052490234375,9.625341796875,0.207275390625
1748592868.0506482,-0.078857421875,9.72822265625,0.20751953125
1748592868.060645,-0.088623046875,9.61337890625,0.218994140625
1748592868.070645,-0.0908203125,9.343017578125,0.232666015625
1748592868.0806458,-0.0927734375,9.5416015625,0.232177734375
1748592868.0906453,-0.100830078125,9.524853515625,0.2197265625
1748592868.1006436,-0.093017578125,9.551171875000001,0.230712890625
1748592868.110644,-0.1005859375,9.539208984375001,0.221435546875
1748592868.1206458,-0.093994140625,9.419580078125001,0.21875
1748592868.130645,-0.119873046875,9.479394531250001,0.2333984375
1748592868.140644,-0.134521484375,9.589453125,0.231689453125
1748592868.1506438,-0.1279296875,9.448291015625001,0.229736328125
1748592868.160644,-0.118408203125,9.780859375,0.219482421875
1748592868.1706438,-0.106201171875,9.66123046875,0.20458984375
1748592868.1806479,-0.10498046875,9.68037109375,0.15283203125
1748592868.1906443,-0.0859375,9.484179687500001,0.17529296875
1748592868.2006457,-0.122314453125,9.6564453125,0.22412109375
1748592868.2106452,-0.13134765625,9.962695312500001,0.21875
1748592868.2206452,-0.13623046875,10.017724609375001,0.18017578125
1748592868.230644,-0.131103515625,9.888525390625,0.165283203125
1748592868.2406425,-0.114013671875,9.780859375,0.186279296875
1748592868.2506788,-0.097412109375,9.630126953125,0.248779296875
1748592868.2606237,-0.125,9.902880859375001,0.26708984375
1748592868.2706416,-0.123291015625,9.58466796875,0.29296875
1748592868.2806416,-0.146484375,9.3501953125,0.3017578125
1748592868.2906437,-0.11279296875,9.388476562500001,0.25439453125
1748592868.3006487,-0.11767578125,10.245019531250001,0.08984375
1748592868.310646,-0.104248046875,9.51767578125,0.2607421875
1748592868.3206432,-0.105712890625,8.909960937500001,0.3134765625
1748592868.3306434,-0.120849609375,9.2736328125,0.331298828125
1748592868.3406441,-0.120361328125,9.5416015625,0.362060546875
1748592868.3506436,-0.15380859375,9.53681640625,0.34912109375
1748592868.3606465,-0.1884765625,9.3693359375,0.350830078125
1748592868.3706455,-0.15576171875,9.309521484375,0.3056640625
1748592868.380645,-0.11181640625,9.228173828125001,0.281982421875
1748592868.3906443,-0.078369140625,9.364550781250001,0.272705078125
1748592868.4006438,-0.083740234375,9.371728515625001,0.27099609375
1748592868.410643,-0.103759765625,9.45068359375,0.285400390625
1748592868.4206436,-0.13232421875,9.512890625,0.306640625
1748592868.4306462,-0.1220703125,9.496142578125001,0.30078125
1748592868.4406433,-0.1181640625,9.448291015625001,0.284912109375
1748592868.4506433,-0.176513671875,9.553564453125,0.29931640625
1748592868.460648,-0.207275390625,9.524853515625,0.290771484375
1748592868.4706438,-0.20263671875,9.45068359375,0.302978515625
1748592868.480645,-0.180419921875,9.443505859375001,0.310302734375
1748592868.4906445,-0.151611328125,9.283203125,0.290283203125
1748592868.5006437,-0.1728515625,9.45068359375,0.297119140625
1748592868.5106444,-0.193359375,9.22578125,0.3232421875
1748592868.5206454,-0.20947265625,9.2736328125,0.338134765625
1748592868.5306447,-0.2197265625,9.199462890625,0.32470703125
1748592868.5406435,-0.19775390625,9.127685546875,0.30810546875
1748592868.550643,-0.187255859375,9.20185546875,0.294677734375
1748592868.5606441,-0.18310546875,9.213818359375,0.298583984375
1748592868.5706437,-0.1923828125,9.070263671875,0.354248046875
1748592868.5806453,-0.166015625,9.290380859375,0.338134765625
1748592868.5906448,-0.171875,9.20185546875,0.333251953125
1748592868.6006446,-0.1474609375,9.034375,0.31982421875
1748592868.610644,-0.143798828125,9.108544921875001,0.294677734375
1748592868.6206439,-0.136962890625,9.142041015625,0.27734375
1748592868.6306438,-0.166259765625,9.151611328125,0.256591796875
1748592868.6406438,-0.19482421875,9.414794921875,0.2529296875
1748592868.6506445,-0.21240234375,9.309521484375,0.2841796875
1748592868.6606438,-0.24169921875,9.20185546875,0.35595703125
1748592868.670645,-0.200927734375,9.137255859375001,0.32666015625
1748592868.6806464,-0.184326171875,9.180322265625001,0.317626953125
1748592868.6906443,-0.17431640625,9.287988281250001,0.3193359375
1748592868.7006443,-0.16650390625,9.304736328125001,0.32958984375
1748592868.710644,-0.17822265625,9.213818359375,0.3544921875
1748592868.7206442,-0.21728515625,9.295166015625,0.35791015625
1748592868.730644,-0.218505859375,9.165966796875,0.33642578125
1748592868.7406454,-0.232177734375,8.807080078125,0.319580078125
1748592868.7506444,-0.23828125,8.773583984375001,0.326904296875
1748592868.7606437,-0.2294921875,9.084619140625001,0.333251953125
1748592868.770644,-0.202392578125,9.237744140625,0.33203125
1748592868.7806456,-0.201171875,9.266455078125,0.332763671875
1748592868.7906437,-0.188720703125,9.209033203125001,0.318115234375
1748592868.8006444,-0.214599609375,9.25927734375,0.318115234375
1748592868.8106444,-0.219482421875,9.192285156250001,0.3203125
1748592868.8206453,-0.233154296875,9.072656250000001,0.322998046875
1748592868.8306444,-0.232421875,8.96259765625,0.333251953125
1748592868.8406465,-0.23095703125,9.096582031250001,0.34375
1748592868.8506446,-0.237548828125,9.065478515625001,0.32177734375
1748592868.8606443,-0.2353515625,8.902783203125,0.315673828125
1748592868.8706446,-0.222412109375,9.1779296875,0.302734375
1748592868.880646,-0.22607421875,8.92431640625,0.312744140625
1748592868.8906446,-0.230224609375,9.113330078125001,0.30908203125
1748592868.9006448,-0.24365234375,9.23056640625,0.326904296875
1748592868.9106445,-0.2685546875,9.295166015625,0.3427734375
1748592868.9206436,-0.263427734375,9.264062500000001,0.33544921875
1748592868.9306438,-0.2607421875,9.101367187500001,0.322998046875
1748592868.9406445,-0.258056640625,8.988916015625001,0.30712890625
1748592868.9506438,-0.25439453125,8.960205078125,0.318603515625
1748592868.960644,-0.26953125,8.941064453125001,0.36279296875
1748592868.9706464,-0.249755859375,9.199462890625,0.341064453125
1748592868.9806447,-0.208251953125,8.524755859375,0.288818359375
1748592868.9906442,-0.155029296875,8.58935546875,0.360107421875
1748592869.0006444,-0.3193359375,9.407617187500001,0.31494140625
1748592869.0106437,-0.259521484375,9.149218750000001,0.297607421875
1748592869.020644,-0.238037109375,9.118115234375,0.280517578125
1748592869.0306442,-0.270751953125,9.716259765625,0.25439453125
1748592869.0406437,-0.27685546875,9.295166015625,0.245849609375
1748592869.0506434,-0.248291015625,8.886035156250001,0.249755859375
1748592869.060644,-0.25830078125,9.024804687500001,0.263427734375
1748592869.0706437,-0.264892578125,9.096582031250001,0.271484375
1748592869.080646,-0.220458984375,9.113330078125001,0.2900390625
1748592869.0906446,-0.263671875,9.46982421875,0.3251953125
1748592869.1006444,-0.262451171875,9.455468750000001,0.3212890625
