Time,AccX,AccY,AccZ,GyroX,GyroY,GyroZ
1747985872.863541,0.025390625,-0.08447265625,1.07080078125,-1.1755725190839694,-0.05343511450381679,-1.0610687022900764
1747985872.9636428,0.015625,-0.092041015625,1.072265625,-1.015267175572519,1.9389312977099236,-0.9847328244274809
1747985873.0636404,0.026123046875,-0.093017578125,1.0693359375,-1.3282442748091603,-0.06870229007633588,-0.9236641221374046
1747985873.1636407,0.02685546875,-0.086181640625,1.074462890625,-1.0305343511450382,1.900763358778626,-1.16793893129771
1747985873.26364,0.029052734375,-0.08056640625,1.0634765625,-0.916030534351145,-0.061068702290076333,-1.0534351145038168
1747985873.3636396,0.02734375,-0.085693359375,1.07568359375,-1.2442748091603053,0.05343511450381679,-1.1450381679389312
1747985873.463639,0.023193359375,-0.090576171875,1.070068359375,-1.2900763358778626,0.10687022900763359,-0.9083969465648855
1747985873.5636396,0.028076171875,-0.09326171875,1.077880859375,-1.3282442748091603,-0.20610687022900764,-1.0076335877862594
1747985873.6636388,0.043701171875,-0.089599609375,1.073974609375,-1.0305343511450382,-1.9465648854961832,-1.0
1747985873.763641,0.028564453125,-0.09228515625,1.06591796875,-1.0229007633587786,-0.07633587786259542,-1.083969465648855
1747985873.8636396,0.024169921875,-0.08984375,1.076416015625,-1.1755725190839694,1.9312977099236641,-1.3129770992366412
1747985873.9636395,0.02392578125,-0.08984375,1.064208984375,-1.1526717557251909,-0.1450381679389313,-1.3435114503816794
1747985874.0636396,0.024169921875,-0.094482421875,1.079833984375,-1.0916030534351144,0.07633587786259542,-1.1526717557251909
1747985874.163639,0.028564453125,-0.093017578125,1.063720703125,-0.9083969465648855,0.11450381679389313,-1.1297709923664123
1747985874.26364,0.01611328125,-0.08544921875,1.07275390625,-1.282442748091603,1.8778625954198473,-1.0305343511450382
1747985874.3636398,0.02392578125,-0.093017578125,1.06982421875,-1.1374045801526718,0.08396946564885496,-1.1603053435114503
1747985874.4636393,0.02978515625,-0.090576171875,1.084228515625,-1.213740458015267,-0.05343511450381679,-1.297709923664122
1747985874.5636396,0.02734375,-0.087890625,1.0625,-0.9236641221374046,-0.007633587786259542,-1.0687022900763359
1747985874.663639,0.0263671875,-0.090576171875,1.073486328125,-1.1145038167938932,0.11450381679389313,-1.0076335877862594
1747985874.76364,0.02880859375,-0.0810546875,1.074462890625,-1.2061068702290076,-0.0916030534351145,-0.9770992366412213
1747985874.863639,0.02978515625,-0.08935546875,1.081298828125,-1.1984732824427482,-0.2824427480916031,-1.099236641221374
1747985874.9636402,0.028076171875,-0.09375,1.073486328125,-1.2366412213740459,-0.16030534351145037,-1.0
1747985875.0636399,0.029541015625,-0.09375,1.0771484375,-1.083969465648855,1.8931297709923665,-1.1526717557251909
1747985875.163639,0.028564453125,-0.07861328125,1.07470703125,-1.0916030534351144,-0.08396946564885496,-1.2213740458015268
1747985875.2636397,0.03125,-0.089599609375,1.076904296875,-1.1450381679389312,-0.20610687022900764,-1.0229007633587786
1747985875.3636386,0.02880859375,-0.10205078125,1.078125,-0.9389312977099237,-0.06870229007633588,-1.1221374045801527
1747985875.463641,0.029541015625,-0.0927734375,1.080322265625,-1.213740458015267,-0.21374045801526717,-1.0763358778625953
1747985875.5636406,0.029541015625,-0.108642578125,1.070068359375,-1.2061068702290076,-0.030534351145038167,-1.1297709923664123
1747985875.6636395,0.026611328125,-0.091064453125,1.076904296875,-1.0534351145038168,-0.07633587786259542,-1.1221374045801527
1747985875.7636402,0.025146484375,-0.09326171875,1.0908203125,-1.1145038167938932,-0.04580152671755725,-1.0
1747985875.8636394,0.03173828125,-0.089111328125,1.07958984375,-1.2213740458015268,-0.16793893129770993,-1.0381679389312977
1747985875.9636405,0.020263671875,-0.107666015625,1.07177734375,-1.099236641221374,-0.05343511450381679,-1.1984732824427482
1747985876.06364,0.0302734375,-0.092041015625,1.074951171875,-1.0305343511450382,-0.08396946564885496,-1.1297709923664123
1747985876.1636393,0.028564453125,-0.089111328125,1.082763671875,-0.9923664122137404,-0.09923664122137404,-1.0381679389312977
1747985876.26364,0.030029296875,-0.0888671875,1.08251953125,-0.9083969465648855,-0.061068702290076333,-1.083969465648855
1747985876.3636389,0.028564453125,-0.090576171875,1.06884765625,-1.3511450381679388,-0.16793893129770993,-1.083969465648855
1747985876.46364,0.044189453125,-0.094970703125,1.075439453125,-1.0,-0.21374045801526717,-1.1908396946564885
1747985876.56364,0.031494140625,-0.091796875,1.072998046875,-1.0610687022900764,-0.1984732824427481,-1.213740458015267
1747985876.6636386,0.031982421875,-0.094970703125,1.078369140625,-1.1603053435114503,0.022900763358778626,-1.3587786259541985
1747985876.7636385,0.033447265625,-0.092041015625,1.073486328125,-1.2748091603053435,1.9312977099236641,-1.0076335877862594
1747985876.8636384,0.029052734375,-0.09423828125,1.0703125,-1.1221374045801527,-0.022900763358778626,-1.1221374045801527
1747985876.9636383,0.034912109375,-0.09228515625,1.067626953125,-1.183206106870229,0.16030534351145037,-1.1221374045801527
1747985877.0636387,0.0263671875,-0.091064453125,1.076904296875,-0.9541984732824428,-0.061068702290076333,-1.251908396946565
1747985877.1635735,0.028076171875,-0.083251953125,1.076171875,-0.7862595419847328,-0.0916030534351145,-1.183206106870229
1747985877.2636385,0.023681640625,-0.088134765625,1.07421875,-1.2595419847328244,-0.22900763358778625,-1.0687022900763359
1747985877.3636382,0.031005859375,-0.09375,1.07763671875,-1.1603053435114503,-0.1297709923664122,-1.2213740458015268
1747985877.463638,0.016357421875,-0.0849609375,1.07568359375,-1.1297709923664123,-0.08396946564885496,-1.2671755725190839
1747985877.5636399,0.03076171875,-0.08935546875,1.0732421875,-1.16793893129771,-0.06870229007633588,-1.0916030534351144
1747985877.66364,0.01806640625,-0.087890625,1.073486328125,-0.8854961832061069,-0.05343511450381679,-1.1297709923664123
1747985877.7636406,0.030029296875,-0.090576171875,1.064208984375,-0.9618320610687023,-0.11450381679389313,-0.9007633587786259
1747985877.8636425,0.02734375,-0.091064453125,1.0830078125,-0.9770992366412213,-1.9236641221374047,-1.1297709923664123
1747985877.9636407,0.02978515625,-0.08740234375,1.091796875,-1.083969465648855,-0.12213740458015267,-1.1297709923664123
1747985878.0636408,0.03369140625,-0.078369140625,1.08154296875,-0.9694656488549618,1.9465648854961832,-1.1603053435114503
1747985878.1636403,0.025390625,-0.087890625,1.07177734375,-0.9770992366412213,-0.007633587786259542,-1.1755725190839694
1747985878.26364,0.044921875,-0.09423828125,1.07470703125,-1.1297709923664123,-0.0916030534351145,-1.2290076335877862
1747985878.3636396,0.023681640625,-0.090087890625,1.08935546875,-1.099236641221374,-0.15267175572519084,-1.183206106870229
1747985878.4636393,0.01953125,-0.087158203125,1.0693359375,-1.1755725190839694,-0.31297709923664124,-0.9923664122137404
1747985878.5636404,0.025634765625,-0.090087890625,1.072509765625,-1.2671755725190839,0.09923664122137404,-1.1450381679389312
1747985878.6636398,0.02685546875,-0.08740234375,1.075439453125,-1.1297709923664123,-0.0916030534351145,-1.1145038167938932
1747985878.7635915,0.031005859375,-0.087890625,1.0625,-1.282442748091603,0.022900763358778626,-1.213740458015267
1747985878.8636408,0.0087890625,-0.08642578125,1.069091796875,-5.557251908396947,-8.48091603053435,-3.4427480916030535
1747985878.9636416,0.0810546875,-0.349609375,1.088134765625,-19.572519083969464,-40.43511450381679,-17.85496183206107
1747985879.0635583,0.31787109375,-0.24365234375,1.078125,31.083969465648856,-165.1145038167939,-63.23664122137404
1747985879.1636407,0.189697265625,0.3671875,0.09619140625,140.00763358778627,161.5648854961832,62.43511450381679
1747985879.2636404,-0.877685546875,-0.6640625,1.99993896484375,38.11450381679389,18.931297709923665,18.717557251908396
1747985879.3636398,0.474365234375,-0.103515625,1.305908203125,-18.748091603053435,-157.8091603053435,-56.56488549618321
1747985879.4636405,0.365234375,0.1591796875,0.12353515625,-13.763358778625955,16.290076335877863,-1.916030534351145
1747985879.5636399,-0.13671875,-0.664794921875,1.99993896484375,-50.83969465648855,206.78625954198472,21.30534351145038
1747985879.6635728,0.32666015625,-0.117919921875,1.2705078125,-4.374045801526718,-169.01526717557252,-60.2442748091603
1747985879.7636404,0.417724609375,0.078125,0.4345703125,9.01526717557252,78.3206106870229,12.267175572519085
1747985879.863641,-0.20751953125,-0.4892578125,1.99993896484375,48.29007633587786,87.74045801526718,31.14503816793893
1747985879.9636405,0.25830078125,-0.242431640625,1.243408203125,0.24427480916030533,-157.206106870229,-39.20610687022901
1747985880.0636406,0.4111328125,0.07373046875,0.56494140625,10.458015267175572,81.21374045801527,15.48091603053435
1747985880.1636403,-0.193359375,-0.342041015625,1.99993896484375,51.2442748091603,40.99236641221374,16.137404580152673
1747985880.2636402,0.233642578125,-0.16259765625,1.270751953125,-3.030534351145038,-139.29770992366412,-43.16793893129771
1747985880.3635714,0.45751953125,0.041259765625,0.4384765625,-9.770992366412214,-15.977099236641221,-5.450381679389313
1747985880.4636405,0.520751953125,-0.04150390625,0.846923828125,-55.11450381679389,188.49618320610688,28.259541984732824
1747985880.5636399,0.129150390625,-0.165771484375,1.064697265625,-17.251908396946565,-58.274809160305345,-7.641221374045801
1747985880.6636398,0.316162109375,-0.06640625,0.8232421875,24.12213740458015,-98.42748091603053,-20.61832061068702
1747985880.763641,0.38427734375,0.066650390625,0.61962890625,2.8931297709923665,136.78625954198472,10.50381679389313
1747985880.8636398,0.05712890625,-0.12744140625,1.184326171875,-10.34351145038168,-45.908396946564885,3.816793893129771
1747985880.96364,0.3837890625,-0.16552734375,0.94677734375,9.946564885496183,-115.81679389312977,-19.923664122137403
1747985881.0636413,0.29541015625,-0.070556640625,0.596435546875,13.206106870229007,133.41221374045801,9.129770992366412
1747985881.16364,0.037109375,-0.138427734375,1.33544921875,-6.015267175572519,-58.969465648854964,5.129770992366412
1747985881.2636409,0.302001953125,-0.117919921875,0.958984375,13.572519083969466,-95.13740458015268,-13.358778625954198
1747985881.3636403,0.319091796875,-0.078369140625,0.7001953125,16.870229007633586,111.38167938931298,13.038167938931299
1747985881.4636407,0.0888671875,-0.188720703125,1.309814453125,-13.732824427480915,-52.66412213740458,-4.183206106870229
1747985881.5636406,0.283203125,-0.162353515625,0.94140625,13.297709923664122,-103.16030534351145,-17.450381679389313
1747985881.6636403,0.4013671875,0.0400390625,0.65673828125,12.335877862595419,139.50381679389312,12.763358778625955
1747985881.7636397,0.027587890625,-0.1806640625,1.429443359375,-2.2061068702290076,-37.36641221374046,-1.7709923664122138
1747985881.86364,0.25390625,-0.179931640625,1.0908203125,-14.106870229007633,-89.22900763358778,-21.374045801526716
1747985881.9636395,0.297119140625,-0.080810546875,0.7529296875,10.404580152671755,72.25190839694656,10.885496183206106
1747985882.063597,-0.07373046875,-0.10888671875,1.637451171875,11.80916030534351,20.84732824427481,-1.6412213740458015
1747985882.1636407,0.247314453125,-0.136474609375,1.1875,-38.69465648854962,-94.20610687022901,-13.16793893129771
1747985882.26364,0.398193359375,-0.153564453125,0.624755859375,21.786259541984734,45.58015267175573,12.969465648854962
1747985882.3636405,0.00341796875,-0.22119140625,1.689208984375,18.755725190839694,31.00763358778626,7.358778625954199
1747985882.4636407,0.24560546875,-0.1005859375,1.06884765625,-21.213740458015266,-98.20610687022901,-20.740458015267176
1747985882.563641,0.32763671875,-0.024658203125,0.72802734375,23.68702290076336,94.94656488549619,26.87786259541985
1747985882.66364,-0.035888671875,-0.165771484375,1.63134765625,-4.625954198473282,-15.13740458015267,-2.7786259541984735
1747985882.7636418,0.296142578125,-0.23291015625,1.034423828125,-16.740458015267176,-119.04580152671755,-23.198473282442748
1747985882.8636498,0.373779296875,-0.078857421875,0.6943359375,1.3435114503816794,75.17557251908397,6.183206106870229
1747985882.9636455,-0.1162109375,-0.155517578125,1.935302734375,21.862595419847327,15.045801526717558,12.282442748091603
1747985883.063644,0.3037109375,-0.246337890625,0.9814453125,-3.1526717557251906,-122.22900763358778,-20.81679389312977
1747985883.1636431,0.37109375,-0.133056640625,0.712890625,6.740458015267175,84.87786259541984,2.49618320610687
1747985883.2636423,-0.1083984375,-0.178466796875,1.902099609375,40.88549618320611,35.66412213740458,11.641221374045802
1747985883.3636427,0.25146484375,-0.203857421875,1.145751953125,-26.427480916030536,-104.10687022900764,-5.564885496183206
1747985883.463644,0.357421875,-0.140625,0.684326171875,6.061068702290076,39.68702290076336,5.633587786259542
1747985883.5636432,-0.025390625,-0.015380859375,1.638427734375,54.83969465648855,120.93129770992367,24.435114503816795
1747985883.6636422,0.279296875,-0.320068359375,1.067138671875,-28.984732824427482,-144.13740458015266,-19.625954198473284
1747985883.7636433,0.385498046875,-0.0791015625,0.716796875,3.648854961832061,77.31297709923665,2.2595419847328246
1747985883.8636503,-0.25341796875,-0.125244140625,1.713134765625,37.17557251908397,15.366412213740459,22.81679389312977
1747985883.9636445,0.274658203125,-0.213623046875,0.9873046875,-24.946564885496183,-93.21374045801527,-14.48091603053435
1747985884.063644,0.3251953125,-0.15478515625,0.712158203125,7.129770992366412,94.80152671755725,5.221374045801527
1747985884.1636431,-0.022705078125,-0.36962890625,1.62744140625,-35.29007633587786,-100.62595419847328,-9.458015267175572
1747985884.263642,0.37451171875,-0.02734375,0.625,38.725190839694655,-71.3587786259542,-18.572519083969464
1747985884.3636425,0.34716796875,-0.14013671875,0.779541015625,4.198473282442748,100.6793893129771,-3.7709923664122136
1747985884.463643,0.0185546875,-0.37548828125,1.481201171875,-19.419847328244273,-75.22137404580153,5.366412213740458
1747985884.5636432,0.3037109375,-0.218505859375,0.819091796875,26.267175572519083,-86.80916030534351,-9.755725190839694
1747985884.663643,0.35595703125,-0.219482421875,0.7626953125,15.854961832061068,100.51908396946565,-4.9541984732824424
1747985884.7636423,-0.026123046875,-0.285400390625,1.60009765625,-15.931297709923664,-76.22137404580153,13.129770992366412
1747985884.8636477,0.380859375,-0.177001953125,0.824462890625,31.740458015267176,-87.3587786259542,-14.770992366412214
1747985884.9636452,0.3642578125,-0.198974609375,0.719482421875,16.46564885496183,96.86259541984732,-4.259541984732825
1747985885.0636446,-0.108154296875,-0.338623046875,1.812255859375,-21.106870229007633,-76.67175572519083,-3.8625954198473282
1747985885.1636434,0.346923828125,-0.186767578125,0.66015625,41.282442748091604,-87.90839694656489,1.3129770992366412
1747985885.2636433,0.307861328125,-0.21728515625,0.7607421875,17.80916030534351,106.82442748091603,-0.7709923664122137
1747985885.3636427,0.058837890625,-0.3349609375,1.65087890625,-22.221374045801525,-105.3206106870229,0.13740458015267176
1747985885.463647,0.39208984375,-0.114501953125,0.623779296875,34.56488549618321,-57.16030534351145,-7.587786259541985
1747985885.5636437,0.353759765625,-0.152587890625,0.73681640625,8.068702290076336,139.29007633587787,-7.32824427480916
1747985885.663642,0.191162109375,-0.214111328125,1.38818359375,-52.70229007633588,-109.77862595419847,-12.603053435114504
1747985885.7636433,0.4287109375,-0.126220703125,0.63671875,19.404580152671755,-45.221374045801525,-4.320610687022901
1747985885.8636432,0.290283203125,-0.160888671875,0.74609375,6.244274809160306,136.26717557251908,1.1374045801526718
1747985885.963646,0.120849609375,-0.179443359375,1.3583984375,-53.656488549618324,-122.7175572519084,-14.34351145038168
1747985886.0636451,0.431396484375,-0.071044921875,0.547119140625,14.389312977099237,-29.221374045801525,-6.900763358778626
1747985886.163643,0.2841796875,-0.0986328125,0.815185546875,-17.106870229007633,158.6793893129771,-8.786259541984732
1747985886.2636433,0.1259765625,-0.29833984375,1.11767578125,-52.10687022900763,-107.72519083969466,-14.564885496183207
1747985886.3636432,0.3701171875,-0.1826171875,0.7099609375,14.48091603053435,-28.198473282442748,11.625954198473282
1747985886.4636443,0.21728515625,-0.212158203125,0.71630859375,-6.648854961832061,169.04580152671755,-1.1374045801526718
1747985886.5636437,0.091064453125,-0.09619140625,1.166748046875,-64.09923664122137,-140.3206106870229,-12.587786259541986
1747985886.6636422,0.341552734375,-0.10888671875,0.62841796875,2.7022900763358777,27.19083969465649,3.8473282442748094
1747985886.763643,0.08349609375,-0.061279296875,1.552978515625,83.51908396946565,127.74045801526718,19.427480916030536
1747985886.8636432,0.3798828125,-0.04931640625,1.036376953125,-40.229007633587784,-115.03053435114504,-17.251908396946565
1747985886.9636464,0.36279296875,-0.212890625,0.655517578125,14.221374045801527,26.69465648854962,6.8320610687022905
1747985887.0636437,0.181640625,-0.126220703125,1.602294921875,92.38167938931298,175.5267175572519,13.641221374045802
1747985887.1636436,0.21337890625,-0.10888671875,0.9423828125,-17.50381679389313,-50.229007633587784,-0.8778625954198473
1747985887.2636428,0.304443359375,-0.22119140625,0.9599609375,-12.01526717557252,-40.954198473282446,-4.893129770992366
1747985887.3636422,0.24560546875,-0.170166015625,1.008056640625,25.267175572519083,98.09923664122137,-0.04580152671755725
1747985887.4636462,0.079345703125,-0.1181640625,1.1943359375,-34.725190839694655,-82.43511450381679,-23.49618320610687
1747985887.563647,0.31787109375,-0.00634765625,0.77001953125,3.564885496183206,-6.183206106870229,1.717557251908397
1747985887.6636426,0.23193359375,-0.15283203125,0.916259765625,-40.19083969465649,80.79389312977099,13.297709923664122
1747985887.7636437,0.168212890625,-0.203369140625,1.024658203125,-15.351145038167939,-60.61068702290076,-9.893129770992367
1747985887.8636425,0.27294921875,-0.22509765625,0.93017578125,10.458015267175572,-54.97709923664122,2.33587786259542
1747985887.9636452,0.3017578125,-0.126953125,0.855224609375,10.82442748091603,79.90076335877863,8.274809160305344
1747985888.0636446,0.16943359375,-0.257568359375,1.33056640625,-4.625954198473282,-35.458015267175576,-7.099236641221374
1747985888.1636431,0.1796875,-0.178955078125,1.168701171875,0.05343511450381679,0.29770992366412213,4.129770992366412
1747985888.2636418,0.380126953125,-0.18994140625,0.7236328125,12.587786259541986,-13.221374045801527,-11.404580152671755
1747985888.3636422,0.058349609375,-0.183349609375,1.694580078125,46.045801526717554,93.3206106870229,14.67175572519084
1747985888.4636445,0.171875,-0.244140625,0.96728515625,-10.19083969465649,-87.25954198473282,-15.038167938931299
1747985888.563643,0.4033203125,-0.1845703125,0.77880859375,7.473282442748092,26.984732824427482,2.877862595419847
1747985888.6636431,0.16064453125,-0.181640625,1.39013671875,16.923664122137403,113.3206106870229,19.862595419847327
1747985888.7636428,0.161376953125,-0.196044921875,0.91748046875,-13.389312977099237,-82.97709923664122,-25.778625954198475
1747985888.863645,0.402587890625,-0.23046875,0.75390625,3.480916030534351,13.664122137404581,0.6641221374045801
1747985888.9636455,0.162109375,-0.166748046875,1.271240234375,35.61832061068702,141.14503816793894,26.061068702290076
1747985889.0636446,0.207275390625,-0.2197265625,0.896484375,-22.83969465648855,-98.97709923664122,-24.984732824427482
1747985889.1636434,0.420654296875,-0.2333984375,0.79541015625,17.114503816793892,31.51145038167939,4.259541984732825
1747985889.2636428,-0.196533203125,0.066650390625,1.7177734375,68.03053435114504,70.69465648854961,31.27480916030534
1747985889.3636422,0.1484375,-0.096435546875,0.933349609375,14.022900763358779,35.083969465648856,2.946564885496183
1747985889.4636447,-0.0107421875,-0.131591796875,1.10693359375,4.755725190839694,-7.290076335877862,-2.5419847328244276
1747985889.5636458,0.03662109375,-0.103271484375,1.07275390625,-0.6564885496183206,-1.366412213740458,-1.2900763358778626
1747985889.6636431,0.035888671875,-0.10693359375,1.06884765625,-1.1221374045801527,0.6335877862595419,-1.183206106870229
1747985889.7636423,0.025146484375,-0.101318359375,1.075439453125,-1.0916030534351144,0.5648854961832062,-1.0687022900763359
1747985889.863642,0.029541015625,-0.106689453125,1.0703125,-1.282442748091603,0.33587786259541985,-1.183206106870229
1747985889.9636464,0.033203125,-0.104736328125,1.070068359375,-1.1374045801526718,0.5725190839694656,-0.9465648854961832
1747985890.0636451,0.036865234375,-0.104736328125,1.0712890625,-1.1984732824427482,0.11450381679389313,-1.1297709923664123
1747985890.1636426,0.031005859375,-0.107421875,1.068359375,-1.183206106870229,0.5725190839694656,-1.1450381679389312
1747985890.263643,0.0166015625,-0.111083984375,1.06884765625,-0.9465648854961832,-0.15267175572519084,-1.2671755725190839
1747985890.3636415,0.020751953125,-0.10791015625,1.084716796875,-1.083969465648855,0.1984732824427481,-1.1526717557251909
1747985890.4636447,0.02783203125,-0.105712890625,1.0703125,-1.1603053435114503,1.9083969465648856,-1.2748091603053435
1747985890.5636444,0.02978515625,-0.102783203125,1.064697265625,-1.0534351145038168,0.24427480916030533,-1.1984732824427482
1747985890.663643,0.025390625,-0.111083984375,1.076904296875,-0.8931297709923665,0.15267175572519084,-1.0381679389312977
1747985890.763642,0.02392578125,-0.105224609375,1.072509765625,-1.1603053435114503,0.07633587786259542,-1.297709923664122
1747985890.8636422,0.029296875,-0.107421875,1.074951171875,-1.1145038167938932,-1.916030534351145,-0.8931297709923665
1747985890.963646,0.023193359375,-0.112060546875,1.074462890625,-1.0458015267175573,-0.15267175572519084,-0.9465648854961832
1747985891.0636444,0.028076171875,-0.1064453125,1.076904296875,-1.0610687022900764,0.29770992366412213,-1.2671755725190839
1747985891.1636426,0.02099609375,-0.107177734375,1.077392578125,-1.2900763358778626,0.17557251908396945,-1.0305343511450382
1747985891.2636423,0.022216796875,-0.12109375,1.077880859375,-1.2290076335877862,0.06870229007633588,-1.1374045801526718
1747985891.3636458,0.028564453125,-0.10595703125,1.074951171875,-1.3053435114503817,0.15267175572519084,-1.3129770992366412
1747985891.4636474,0.02099609375,-0.107666015625,1.082763671875,-1.1450381679389312,1.9236641221374047,-1.213740458015267
1747985891.563645,0.0263671875,-0.10205078125,1.06982421875,-1.1297709923664123,0.1450381679389313,-1.2290076335877862
1747985891.6636415,0.0205078125,-0.103759765625,1.07470703125,-1.1908396946564885,-0.22900763358778625,-1.2748091603053435
1747985891.7636404,0.027099609375,-0.108642578125,1.065673828125,-1.282442748091603,0.3053435114503817,-1.2748091603053435
1747985891.8636158,0.0205078125,-0.10888671875,1.072265625,-1.0229007633587786,-0.0916030534351145,-1.1755725190839694
1747985891.9636424,0.024169921875,-0.11083984375,1.08056640625,-1.1145038167938932,-0.06870229007633588,-1.2061068702290076
1747985892.0636408,0.021484375,-0.107177734375,1.0712890625,-0.9083969465648855,-0.0916030534351145,-1.1297709923664123
1747985892.16364,0.020751953125,-0.107421875,1.076904296875,-1.183206106870229,0.16030534351145037,-1.0229007633587786
1747985892.2636402,0.01953125,-0.106689453125,1.074462890625,-1.083969465648855,-1.8702290076335877,-1.083969465648855
1747985892.3636403,0.020263671875,-0.107421875,1.0712890625,-1.099236641221374,0.030534351145038167,-1.1297709923664123
1747985892.4636412,0.02490234375,-0.10595703125,1.07275390625,-1.0076335877862594,0.17557251908396945,-1.2290076335877862
1747985892.563645,0.02490234375,-0.119873046875,1.0732421875,-0.9618320610687023,-0.0916030534351145,-1.0610687022900764
1747985892.6636434,0.0283203125,-0.109375,1.066162109375,-1.1145038167938932,0.11450381679389313,-0.9541984732824428
1747985892.7636435,0.00244140625,-0.10693359375,1.072998046875,-1.4122137404580153,-0.16793893129770993,-1.3435114503816794
1747985892.863647,0.026123046875,-0.111083984375,1.078125,-1.16793893129771,-0.007633587786259542,-1.099236641221374
1747985892.9636488,0.02099609375,-0.105224609375,1.0712890625,-1.0229007633587786,-0.183206106870229,-1.0305343511450382
1747985893.0636475,0.012939453125,-0.111572265625,1.06884765625,-1.1068702290076335,0.4198473282442748,-1.2595419847328244
1747985893.1636436,0.02490234375,-0.10986328125,1.0771484375,-0.9618320610687023,-0.2824427480916031,-1.2061068702290076
1747985893.2636435,0.021484375,-0.1083984375,1.076171875,-1.1603053435114503,-0.1984732824427481,-1.1145038167938932
1747985893.363643,0.027587890625,-0.109375,1.07763671875,-1.083969465648855,0.030534351145038167,-1.2748091603053435
1747985893.463643,0.020263671875,-0.102294921875,1.069580078125,-1.1068702290076335,-0.1984732824427481,-1.1755725190839694
1747985893.5636506,0.0244140625,-0.103759765625,1.074462890625,-1.1603053435114503,0.26717557251908397,-1.1145038167938932
1747985893.663649,0.0185546875,-0.106689453125,1.072509765625,-0.9618320610687023,0.10687022900763359,-1.015267175572519
1747985893.7636487,0.020263671875,-0.10546875,1.076416015625,-1.015267175572519,-0.21374045801526717,-1.3206106870229009
1747985893.8636484,0.02490234375,-0.11279296875,1.072998046875,-0.8244274809160306,0.1450381679389313,-1.0381679389312977
1747985893.963648,0.0234375,-0.111328125,1.072021484375,-0.9770992366412213,-0.09923664122137404,-1.083969465648855
1747985894.0636544,0.02685546875,-0.105224609375,1.076416015625,-1.213740458015267,0.21374045801526717,-1.1374045801526718
1747985894.1636443,0.015380859375,-0.102783203125,1.068115234375,-1.1908396946564885,-0.05343511450381679,-1.0687022900763359
1747985894.263644,0.01904296875,-0.10546875,1.07568359375,-1.0,1.916030534351145,-1.1145038167938932
1747985894.3636436,0.02197265625,-0.108642578125,1.07421875,-1.0763358778625953,0.2595419847328244,-0.9847328244274809
1747985894.463643,0.02294921875,-0.111328125,1.0712890625,-1.0534351145038168,1.816793893129771,-1.1068702290076335
1747985894.563644,0.01611328125,-0.103759765625,1.068359375,-1.0610687022900764,0.1297709923664122,-1.1450381679389312
1747985894.6636434,0.019775390625,-0.109375,1.07861328125,-1.1526717557251909,-0.2595419847328244,-1.099236641221374
1747985894.7636433,0.042724609375,-0.108154296875,1.068359375,-1.1297709923664123,-0.10687022900763359,-1.213740458015267
1747985894.8636432,0.021484375,-0.098876953125,1.073486328125,-0.816793893129771,-0.0916030534351145,-1.1526717557251909
1747985894.9636428,0.0,-0.10693359375,1.07373046875,-1.1145038167938932,-0.09923664122137404,-1.0763358778625953
1747985895.0636463,0.022705078125,-0.104736328125,1.077880859375,-1.0610687022900764,-1.8473282442748091,-1.1984732824427482
1747985895.1636446,0.029541015625,-0.1015625,1.07568359375,-1.2900763358778626,-0.1984732824427481,-0.9312977099236641
1747985895.263644,0.02490234375,-0.111083984375,1.062255859375,-1.1221374045801527,0.29770992366412213,-1.1221374045801527
1747985895.3636432,0.01904296875,-0.107666015625,1.076904296875,-0.8931297709923665,-0.35877862595419846,-1.3358778625954197
1747985895.463648,0.0263671875,-0.10986328125,1.07568359375,-1.1984732824427482,0.06870229007633588,-1.1221374045801527
1747985895.5636442,0.018798828125,-0.120849609375,1.074951171875,-1.183206106870229,-0.5267175572519084,-1.5648854961832062
1747985895.6636455,0.075927734375,-0.149169921875,1.023681640625,-1.748091603053435,15.961832061068701,-4.801526717557252
1747985895.763643,0.071044921875,-0.12255859375,1.112548828125,-3.9083969465648853,-0.5038167938931297,-22.587786259541986
1747985895.8636465,0.2421875,-0.241943359375,1.029052734375,-28.64885496183206,-70.76335877862596,-45.38167938931298
1747985895.963644,0.2451171875,-0.125244140625,0.916748046875,-63.48854961832061,-41.229007633587784,11.083969465648854
1747985896.0636463,0.3115234375,-0.259765625,0.947265625,-68.12977099236642,-59.69465648854962,19.900763358778626
1747985896.1636467,0.304931640625,-0.4189453125,0.98095703125,-56.038167938931295,-59.595419847328245,31.114503816793892
1747985896.263644,0.3935546875,-0.564208984375,0.773193359375,-50.25954198473283,-44.25954198473283,2.2977099236641223
1747985896.3636546,0.487548828125,-0.68017578125,0.68701171875,-55.6412213740458,-62.64885496183206,-26.053435114503817
1747985896.4636424,0.548583984375,-0.621826171875,0.59765625,-144.03053435114504,11.16030534351145,-53.38167938931298
1747985896.5636804,0.5654296875,-0.7919921875,0.34423828125,-78.72519083969466,-43.61832061068702,-39.86259541984733
1747985896.6636422,0.608642578125,-0.84130859375,0.32177734375,-93.38167938931298,5.916030534351145,-1.366412213740458
1747985896.763674,0.585693359375,-0.77197265625,0.21630859375,-30.412213740458014,-2.7022900763358777,6.641221374045801
1747985896.863643,0.64404296875,-0.812744140625,0.118408203125,9.389312977099237,-6.870229007633588,-15.526717557251908
1747985896.9636428,0.580078125,-0.82080078125,0.195556640625,-21.282442748091604,2.83206106870229,-4.022900763358779
1747985897.0636504,0.621337890625,-0.8134765625,0.156494140625,-26.50381679389313,-0.7557251908396947,-4.893129770992366
1747985897.1636434,0.638671875,-0.794677734375,0.175537109375,-10.580152671755725,-5.916030534351145,-6.244274809160306
1747985897.2636428,0.620361328125,-0.839111328125,0.13427734375,-8.870229007633588,-8.290076335877863,-2.7938931297709924
1747985897.3636453,0.61865234375,-0.848876953125,0.142822265625,11.664122137404581,-1.015267175572519,-2.198473282442748
1747985897.4636428,0.63232421875,-0.84423828125,0.14453125,10.473282442748092,-3.6717557251908395,-4.778625954198473
1747985897.5636451,0.61279296875,-0.77490234375,0.165283203125,-6.259541984732825,-0.09923664122137404,1.4961832061068703
1747985897.6636431,0.621826171875,-0.8125,0.14599609375,-1.83206106870229,7.015267175572519,4.541984732824427
1747985897.7636433,0.622802734375,-0.820556640625,0.166748046875,1.5114503816793894,8.748091603053435,3.786259541984733
1747985897.8636434,0.606201171875,-0.8154296875,0.171630859375,-2.053435114503817,6.687022900763359,1.6030534351145038
1747985897.9636428,0.623046875,-0.83056640625,0.172607421875,-2.0,2.1526717557251906,0.10687022900763359
1747985898.0636451,0.62890625,-0.81640625,0.15771484375,-1.4274809160305344,7.755725190839694,-0.5954198473282443
1747985898.1636436,0.620361328125,-0.811767578125,0.1865234375,2.9770992366412212,0.7251908396946565,-2.0839694656488548
1747985898.2636447,0.58935546875,-0.810546875,0.18701171875,-8.213740458015268,11.374045801526718,0.3816793893129771
1747985898.3636432,0.587890625,-0.78759765625,0.1259765625,-12.679389312977099,-0.42748091603053434,2.931297709923664
1747985898.4636436,0.604736328125,-0.848388671875,0.202392578125,10.893129770992367,5.450381679389313,3.2977099236641223
1747985898.5636458,0.623779296875,-0.84521484375,0.198974609375,2.7786259541984735,5.801526717557252,-7.206106870229007
1747985898.6636798,0.614990234375,-0.82275390625,0.25634765625,-9.610687022900763,7.66412213740458,-1.7328244274809161
1747985898.763644,0.59912109375,-0.8173828125,0.21533203125,-4.931297709923665,-0.7938931297709924,-0.7862595419847328
1747985898.8636436,0.6025390625,-0.8271484375,0.197021484375,-6.343511450381679,3.954198473282443,-1.9312977099236641
1747985898.963644,0.607421875,-0.82861328125,0.203857421875,-6.458015267175573,3.4656488549618323,-3.381679389312977
1747985899.0636456,0.637939453125,-0.86279296875,0.197998046875,-13.34351145038168,8.335877862595419,-2.2213740458015265
1747985899.1636436,0.6337890625,-0.85107421875,0.21240234375,1.7404580152671756,8.083969465648854,0.0
1747985899.263644,0.60107421875,-0.833984375,0.19677734375,-4.152671755725191,1.5877862595419847,-0.7480916030534351
1747985899.3636434,0.60498046875,-0.841796875,0.20263671875,-1.9083969465648856,0.8396946564885496,-2.877862595419847
1747985899.4636428,0.58203125,-0.820556640625,0.19775390625,-1.1221374045801527,1.2595419847328244,-2.045801526717557
1747985899.5636444,0.60400390625,-0.838623046875,0.216796875,-1.381679389312977,-2.0763358778625953,0.6412213740458015
1747985899.6636443,0.6025390625,-0.836669921875,0.199462890625,2.3893129770992365,1.4274809160305344,-2.122137404580153
1747985899.7636445,0.597412109375,-0.8212890625,0.191650390625,0.6641221374045801,2.3282442748091605,-0.9694656488549618
1747985899.8636427,0.600830078125,-0.808349609375,0.22607421875,2.312977099236641,-3.068702290076336,2.4122137404580153
1747985899.9636428,0.595703125,-0.86279296875,0.1845703125,0.8625954198473282,3.6946564885496183,-1.8625954198473282
1747985900.0636458,0.6064453125,-0.81298828125,0.20849609375,2.633587786259542,5.221374045801527,-3.687022900763359
1747985900.1636457,0.594482421875,-0.820068359375,0.196533203125,1.5267175572519085,-0.2824427480916031,-0.8015267175572519
1747985900.2636452,0.56640625,-0.772705078125,0.212158203125,19.625954198473284,3.1526717557251906,5.526717557251908
1747985900.3636432,0.52734375,-0.697021484375,0.299072265625,125.27480916030534,23.786259541984734,58.48854961832061
1747985900.4636421,0.6787109375,-1.078125,0.509765625,171.53435114503816,53.79389312977099,41.48854961832061
1747985900.5636485,0.296142578125,-0.525634765625,0.970947265625,151.3053435114504,59.43511450381679,24.27480916030534
1747985900.6636484,0.2568359375,-0.4462890625,1.02978515625,58.38167938931298,95.4885496183206,14.618320610687023
1747985900.7636485,0.138427734375,-0.476318359375,0.970703125,24.954198473282442,15.603053435114504,-1.4885496183206106
1747985900.8636467,0.107177734375,-0.3662109375,1.02490234375,6.022900763358779,4.290076335877862,-1.3129770992366412
1747985900.963644,0.10693359375,-0.352783203125,1.0146484375,4.206106870229007,3.49618320610687,-1.3511450381679388
1747985901.0636458,0.10888671875,-0.34765625,1.015380859375,3.312977099236641,0.007633587786259542,-1.3358778625954197
1747985901.1636436,0.064697265625,-0.34423828125,1.0234375,4.114503816793893,1.0458015267175573,-1.1450381679389312
1747985901.2636416,0.101806640625,-0.344970703125,0.996337890625,5.793893129770993,2.984732824427481,-0.6793893129770993
1747985901.3636427,0.088623046875,-0.317626953125,1.044921875,3.381679389312977,1.2748091603053435,-1.2061068702290076
1747985901.4636416,0.083984375,-0.321044921875,1.021484375,1.366412213740458,0.6259541984732825,-1.2290076335877862
1747985901.5636446,0.0830078125,-0.309326171875,1.017333984375,1.1603053435114503,0.5877862595419847,-1.251908396946565
1747985901.6636431,0.089111328125,-0.314208984375,1.033935546875,0.5954198473282443,0.549618320610687,-1.251908396946565
1747985901.7636423,0.090576171875,-0.3056640625,1.032958984375,0.3511450381679389,0.6564885496183206,-1.1908396946564885
1747985901.8636491,0.087158203125,-0.30224609375,1.025390625,0.1984732824427481,0.5877862595419847,-1.2748091603053435
1747985901.9636443,0.083984375,-0.307861328125,1.046142578125,0.11450381679389313,0.6030534351145038,-1.1603053435114503
1747985902.0636463,0.08056640625,-0.2998046875,1.0400390625,0.007633587786259542,0.21374045801526717,-1.0687022900763359
1747985902.163644,0.083984375,-0.291259765625,1.0390625,0.5343511450381679,0.4580152671755725,-1.1221374045801527
1747985902.2636437,0.0830078125,-0.293701171875,1.029296875,0.061068702290076333,0.32061068702290074,-1.3206106870229009
1747985902.3636436,0.080078125,-0.30029296875,1.039306640625,0.1450381679389313,0.13740458015267176,-1.1526717557251909
1747985902.463644,0.08642578125,-0.285400390625,1.03369140625,-0.183206106870229,0.11450381679389313,-1.1603053435114503
1747985902.5636466,0.08056640625,-0.287353515625,1.04248046875,-0.26717557251908397,0.3053435114503817,-1.1450381679389312
1747985902.6636436,0.091796875,-0.287841796875,1.03466796875,-0.20610687022900764,0.2595419847328244,-1.2671755725190839
1747985902.7636456,0.078125,-0.28955078125,1.0390625,-0.33587786259541985,0.37404580152671757,-1.0763358778625953
1747985902.863647,0.091064453125,-0.286865234375,1.04833984375,0.2366412213740458,0.9541984732824428,-1.0763358778625953
1747985902.9636452,0.076171875,-0.2822265625,1.03466796875,0.05343511450381679,0.3053435114503817,-1.1297709923664123
1747985903.0636466,0.091552734375,-0.285400390625,1.037841796875,-0.24427480916030533,0.22137404580152673,-1.1221374045801527
1747985903.1636436,0.076904296875,-0.2841796875,1.0361328125,-0.5267175572519084,0.061068702290076333,-1.183206106870229
1747985903.2636423,0.075927734375,-0.28369140625,1.040771484375,-0.5725190839694656,0.1450381679389313,-1.3206106870229009
1747985903.363641,0.08251953125,-0.2734375,1.03173828125,-0.7938931297709924,-0.04580152671755725,-1.0
1747985903.463641,0.080322265625,-0.2841796875,1.041748046875,-0.6717557251908397,0.22900763358778625,-1.1755725190839694
1747985903.5636406,0.075927734375,-0.273681640625,1.03759765625,-0.2900763358778626,0.10687022900763359,-1.2900763358778626
1747985903.6636412,0.07861328125,-0.278076171875,1.045166015625,-0.5954198473282443,0.030534351145038167,-1.083969465648855
1747985903.7636404,0.084716796875,-0.27734375,1.041748046875,-0.6870229007633588,0.16030534351145037,-1.1068702290076335
1747985903.86364,0.080078125,-0.269775390625,1.044189453125,-0.7251908396946565,0.030534351145038167,-1.0687022900763359
1747985903.9636421,0.07568359375,-0.27392578125,1.037841796875,-1.0229007633587786,-0.05343511450381679,-1.1068702290076335
1747985904.0636408,0.079345703125,-0.27490234375,1.0419921875,-0.7862595419847328,1.9312977099236641,-1.1984732824427482
1747985904.1636393,0.081787109375,-0.273193359375,1.0400390625,-0.6183206106870229,0.0916030534351145,-1.1221374045801527
1747985904.2635942,0.07861328125,-0.26904296875,1.044189453125,-0.6946564885496184,0.03816793893129771,-1.015267175572519
1747985904.36364,0.07080078125,-0.27197265625,1.041748046875,-0.5877862595419847,0.1984732824427481,-1.16793893129771
1747985904.4636407,0.078369140625,-0.26318359375,1.04443359375,-0.6335877862595419,-0.12213740458015267,-1.0534351145038168
1747985904.5636408,0.076171875,-0.269287109375,1.039306640625,-0.8931297709923665,0.22137404580152673,-1.1450381679389312
1747985904.66364,0.06689453125,-0.266357421875,1.045654296875,-0.8320610687022901,-1.9389312977099236,-1.0381679389312977
1747985904.7636409,0.07568359375,-0.266845703125,1.04248046875,-0.6717557251908397,-0.21374045801526717,-1.3282442748091603
1747985904.86364,0.0849609375,-0.279052734375,1.042236328125,-0.8320610687022901,-0.1297709923664122,-1.2595419847328244
1747985904.9636405,0.075927734375,-0.262451171875,1.046142578125,-0.8702290076335878,-0.0916030534351145,-1.0687022900763359
1747985905.0636406,0.072265625,-0.26513671875,1.059814453125,-1.0229007633587786,-0.17557251908396945,-1.1068702290076335
1747985905.1636403,0.079345703125,-0.265869140625,1.042724609375,-0.6183206106870229,-0.10687022900763359,-1.1297709923664123
1747985905.2636409,0.076171875,-0.269287109375,1.047607421875,-0.5725190839694656,-0.11450381679389313,-1.0229007633587786
1747985905.3636398,0.072265625,-0.26806640625,1.039794921875,-0.8473282442748091,-0.17557251908396945,-1.0916030534351144
1747985905.4636407,0.07470703125,-0.265869140625,1.03369140625,-0.7709923664122137,0.2748091603053435,-1.2442748091603053
1747985905.5636404,0.071533203125,-0.263427734375,1.04296875,-0.9465648854961832,0.11450381679389313,-1.1374045801526718
1747985905.6636403,0.0712890625,-0.258056640625,1.042724609375,-1.015267175572519,-0.2900763358778626,-1.1297709923664123
1747985905.7636404,0.074462890625,-0.26513671875,1.03857421875,-0.9007633587786259,-1.9465648854961832,-1.1374045801526718
1747985905.8636422,0.0732421875,-0.263427734375,1.0478515625,-0.6793893129770993,-0.2595419847328244,-1.0534351145038168
1747985905.9636405,0.087890625,-0.26416015625,1.04345703125,-0.916030534351145,0.1984732824427481,-1.099236641221374
1747985906.063642,0.071533203125,-0.263671875,1.044921875,-0.8549618320610687,1.8931297709923665,-1.1984732824427482
1747985906.1636398,0.073974609375,-0.277099609375,1.043212890625,-0.9389312977099237,-0.12213740458015267,-1.0458015267175573
1747985906.263641,0.075927734375,-0.266357421875,1.040283203125,-1.0458015267175573,-1.9465648854961832,-1.099236641221374
1747985906.3636403,0.063720703125,-0.266357421875,1.044189453125,-0.9389312977099237,0.061068702290076333,-1.2061068702290076
1747985906.4636421,0.07177734375,-0.267333984375,1.052490234375,-0.8702290076335878,1.9389312977099236,-1.083969465648855
1747985906.563641,0.064453125,-0.261962890625,1.05029296875,-0.7022900763358778,-0.1297709923664122,-1.1450381679389312
1747985906.663641,0.070556640625,-0.260009765625,1.0498046875,-0.8931297709923665,0.10687022900763359,-1.0687022900763359
1747985906.7636416,0.0712890625,-0.261474609375,1.04248046875,-0.9541984732824428,0.12213740458015267,-1.16793893129771
1747985906.863641,0.072998046875,-0.266357421875,1.036865234375,-1.0763358778625953,0.08396946564885496,-1.2061068702290076
1747985906.9636395,0.07177734375,-0.255859375,1.031494140625,-0.816793893129771,-0.05343511450381679,-1.0458015267175573
1747985907.063572,0.07421875,-0.26220703125,1.04736328125,-0.9236641221374046,1.8625954198473282,-1.282442748091603
1747985907.1636407,0.0732421875,-0.252685546875,1.032958984375,-0.9312977099236641,-1.8702290076335877,-1.1526717557251909
1747985907.2636409,0.076171875,-0.256591796875,1.044921875,-1.0763358778625953,-0.0916030534351145,-1.0534351145038168
1747985907.363558,0.07373046875,-0.2568359375,1.04345703125,-0.9847328244274809,0.13740458015267176,-1.2442748091603053
1747985907.46364,0.074462890625,-0.25634765625,1.03271484375,-1.1526717557251909,-0.07633587786259542,-1.0458015267175573
1747985907.563641,0.071044921875,-0.259765625,1.043701171875,-1.1450381679389312,-0.03816793893129771,-1.1526717557251909
1747985907.66364,0.0654296875,-0.255126953125,1.039306640625,-0.9236641221374046,1.9312977099236641,-1.0
1747985907.7636402,0.072998046875,-0.264404296875,1.04541015625,-0.9389312977099237,0.09923664122137404,-1.1526717557251909
1747985907.8636427,0.072265625,-0.260986328125,1.0556640625,-1.0305343511450382,-0.19083969465648856,-1.2442748091603053
1747985907.9636405,0.071533203125,-0.262939453125,1.047607421875,-1.1374045801526718,0.04580152671755725,-1.1755725190839694
1747985908.0636408,0.07275390625,-0.254638671875,1.049072265625,-0.5419847328244275,-0.24427480916030533,-1.1603053435114503
1747985908.16364,0.0771484375,-0.237548828125,1.03759765625,-1.3282442748091603,-0.366412213740458,-1.5801526717557253
1747985908.2635665,0.060791015625,-0.261474609375,1.0439453125,-2.801526717557252,-1.3893129770992367,-0.9770992366412213
1747985908.3636408,0.0498046875,-0.224853515625,1.07666015625,-0.8396946564885496,-0.5954198473282443,-1.2748091603053435
1747985908.4636395,0.06103515625,-0.243896484375,1.06494140625,-2.3282442748091605,0.07633587786259542,-1.0458015267175573
1747985908.5636404,0.041748046875,-0.2109375,1.09130859375,32.656488549618324,11.122137404580153,2.4427480916030535
1747985908.6636395,0.00927734375,-0.176513671875,1.05517578125,7.656488549618321,3.1068702290076335,-0.5877862595419847
1747985908.7636409,0.072509765625,-0.181396484375,1.023193359375,1.900763358778626,-1.5114503816793894,0.35877862595419846
1747985908.8636396,0.0126953125,-0.24658203125,1.033203125,-4.526717557251908,-5.1603053435114505,-1.4961832061068703
1747985908.963641,0.04345703125,-0.17724609375,1.107666015625,-8.633587786259541,-5.534351145038168,-0.007633587786259542
1747985909.0636404,0.079345703125,-0.227783203125,1.072265625,-4.870229007633588,-3.5114503816793894,-1.2671755725190839
1747985909.1636407,0.05419921875,-0.203857421875,1.050537109375,-0.9083969465648855,-0.21374045801526717,-1.1221374045801527
1747985909.263641,0.091552734375,-0.159423828125,0.983642578125,9.740458015267176,4.763358778625954,-1.1374045801526718
1747985909.3636403,0.052490234375,-0.189208984375,1.07470703125,-0.7251908396946565,-1.6946564885496183,-1.8091603053435115
1747985909.4636402,0.101806640625,-0.18115234375,1.03515625,1.8931297709923665,7.885496183206107,-1.0229007633587786
1747985909.563641,0.031005859375,-0.260986328125,1.256103515625,-31.47328244274809,-6.816793893129771,1.0381679389312977
1747985909.66364,0.117431640625,-0.33251953125,1.12255859375,-114.05343511450381,-50.916030534351144,-19.442748091603054
1747985909.7636409,0.205810546875,-0.642333984375,0.918701171875,-160.3587786259542,-70.58015267175573,46.7557251908397
1747985909.863642,0.524658203125,-0.845703125,0.78515625,-194.3740458015267,-80.03053435114504,-85.93893129770993
1747985909.9636402,0.38525390625,-0.76025390625,0.571533203125,-118.05343511450381,-39.74045801526717,-69.00763358778626
1747985910.0636399,0.42724609375,-0.72900390625,0.509521484375,-105.06106870229007,-28.0381679389313,-0.6183206106870229
1747985910.1636422,0.594970703125,-0.8349609375,0.304443359375,20.251908396946565,42.7557251908397,29.786259541984734
1747985910.2636406,0.54931640625,-0.940185546875,0.381103515625,10.67175572519084,14.48091603053435,12.969465648854962
1747985910.3636403,0.43408203125,-0.878662109375,0.405029296875,-7.312977099236641,10.358778625954198,-2.7404580152671754
1747985910.4636414,0.444580078125,-0.872802734375,0.403564453125,-7.9541984732824424,7.206106870229007,-10.923664122137405
1747985910.5636406,0.455810546875,-0.840087890625,0.38330078125,-17.389312977099237,1.0534351145038168,-7.961832061068702
1747985910.6636403,0.464111328125,-0.826904296875,0.368408203125,-5.748091603053435,-2.480916030534351,-1.4732824427480915
1747985910.7636423,0.47265625,-0.869384765625,0.360595703125,-7.534351145038168,-2.4198473282442747,1.7786259541984732
1747985910.8636417,0.45263671875,-0.88427734375,0.3564453125,-0.45038167938931295,-2.5343511450381677,1.0
1747985910.9636407,0.45751953125,-0.866455078125,0.33447265625,-12.221374045801527,-2.801526717557252,-1.9083969465648856
1747985911.0636425,0.468017578125,-0.87548828125,0.3291015625,-3.9236641221374047,-1.3129770992366412,-0.6412213740458015
1747985911.1636412,0.483642578125,-0.880859375,0.329833984375,-4.183206106870229,-2.114503816793893,-3.8396946564885495
1747985911.2636406,0.470458984375,-0.89208984375,0.342529296875,-0.8702290076335878,-2.114503816793893,-0.8778625954198473
1747985911.3636405,0.47119140625,-0.8935546875,0.33642578125,-0.732824427480916,-3.1526717557251906,-1.4274809160305344
1747985911.4636407,0.466064453125,-0.888916015625,0.33642578125,-4.0,-6.557251908396947,-3.1908396946564888
1747985911.5636408,0.5205078125,-0.87451171875,0.302490234375,-8.870229007633588,-3.9236641221374047,-3.946564885496183
1747985911.6636407,0.5244140625,-0.8564453125,0.28271484375,-18.900763358778626,-4.419847328244275,-3.8396946564885495
1747985911.7636414,0.537109375,-0.87939453125,0.21533203125,-26.96946564885496,8.610687022900763,-9.038167938931299
1747985911.8636398,0.475341796875,-0.912353515625,0.17529296875,-45.19083969465649,7.5038167938931295,-10.083969465648854
1747985911.9635904,0.43505859375,-0.845947265625,0.1328125,4.709923664122138,0.32061068702290074,14.198473282442748
1747985912.0636404,0.46533203125,-0.91015625,0.22509765625,5.419847328244275,1.816793893129771,-10.931297709923664
1747985912.1636412,0.52294921875,-0.820556640625,0.197509765625,2.030534351145038,2.5801526717557253,-0.9847328244274809
1747985912.2636409,0.510498046875,-0.853515625,0.1611328125,1.9312977099236641,4.099236641221374,-1.6412213740458015
1747985912.3636436,0.500244140625,-0.890380859375,0.20263671875,4.015267175572519,1.2595419847328244,-2.564885496183206
1747985912.4636443,0.522216796875,-0.9111328125,0.2177734375,-0.7022900763358778,3.8473282442748094,-1.1984732824427482
1747985912.5636468,0.51171875,-0.897705078125,0.22509765625,0.6259541984732825,3.5114503816793894,-1.3358778625954197
1747985912.6636417,0.5087890625,-0.895751953125,0.210205078125,1.9465648854961832,2.900763358778626,-0.9312977099236641
1747985912.7636409,0.50634765625,-0.89990234375,0.210205078125,2.595419847328244,-1.6106870229007633,-2.7099236641221376
1747985912.8636427,0.509765625,-0.900146484375,0.197509765625,1.5190839694656488,-0.8854961832061069,-1.4427480916030535
1747985912.9636416,0.513671875,-0.87841796875,0.214599609375,-0.366412213740458,-0.8549618320610687,0.2595419847328244
1747985913.0636427,0.505126953125,-0.907958984375,0.203857421875,-0.05343511450381679,0.366412213740458,-1.1145038167938932
1747985913.1636412,0.506103515625,-0.89990234375,0.216064453125,-4.0534351145038165,0.29770992366412213,-0.7404580152671756
1747985913.263641,0.507080078125,-0.883056640625,0.206787109375,-0.6564885496183206,0.8625954198473282,-0.7099236641221374
1747985913.3636405,0.51513671875,-0.87548828125,0.1826171875,-4.419847328244275,0.24427480916030533,-0.5648854961832062
1747985913.4636405,0.4970703125,-0.890380859375,0.1953125,-3.4198473282442747,-0.1450381679389313,-0.9618320610687023
1747985913.563641,0.4990234375,-0.890625,0.19287109375,-1.702290076335878,-0.06870229007633588,-1.183206106870229
1747985913.6636403,0.4970703125,-0.876220703125,0.21142578125,-2.198473282442748,-0.1984732824427481,-1.2900763358778626
1747985913.7636151,0.49853515625,-0.886962890625,0.208251953125,-2.4122137404580153,-0.3435114503816794,-2.480916030534351
1747985913.863641,0.505615234375,-0.905517578125,0.202392578125,2.687022900763359,-0.7175572519083969,-0.9083969465648855
1747985913.9636407,0.482421875,-0.895751953125,0.20556640625,-2.351145038167939,-0.9083969465648855,-2.687022900763359
1747985914.0635686,0.492431640625,-0.895263671875,0.19091796875,-1.5572519083969465,0.07633587786259542,-1.5572519083969465
1747985914.163641,0.4873046875,-0.89013671875,0.205810546875,0.549618320610687,-0.9389312977099237,-0.6335877862595419
1747985914.2636404,0.49609375,-0.8837890625,0.1982421875,-2.236641221374046,-0.8320610687022901,-0.7404580152671756
1747985914.3636394,0.49267578125,-0.894287109375,0.19580078125,1.8854961832061068,-0.25190839694656486,0.05343511450381679
1747985914.4636407,0.49853515625,-0.900390625,0.19775390625,1.3969465648854962,-0.33587786259541985,0.04580152671755725
1747985914.5636404,0.505126953125,-0.92041015625,0.2021484375,2.312977099236641,-0.7633587786259542,-0.6641221374045801
1747985914.6636407,0.50439453125,-0.89111328125,0.201904296875,0.11450381679389313,-0.25190839694656486,-1.5648854961832062
1747985914.7636409,0.50439453125,-0.89990234375,0.184326171875,1.0381679389312977,1.4122137404580153,1.0381679389312977
1747985914.8636408,0.49560546875,-0.8876953125,0.20947265625,-3.9770992366412212,1.534351145038168,-2.4656488549618323
1747985914.9636407,0.47216796875,-0.916748046875,0.218994140625,2.4122137404580153,-0.20610687022900764,-1.7099236641221374
1747985915.0636425,0.5029296875,-0.869384765625,0.198974609375,1.7709923664122138,0.13740458015267176,-0.6412213740458015
1747985915.1636412,0.528564453125,-0.888427734375,0.19482421875,-4.473282442748092,0.5572519083969466,-2.3282442748091605
1747985915.2636409,0.495849609375,-0.878173828125,0.215576171875,-3.3893129770992365,0.20610687022900764,-1.0763358778625953
1747985915.3636417,0.50634765625,-0.888427734375,0.213134765625,-0.25190839694656486,-0.07633587786259542,-0.816793893129771
1747985915.4636407,0.48828125,-0.8896484375,0.202880859375,-3.6259541984732824,1.1450381679389312,-1.366412213740458
1747985915.5636404,0.509765625,-0.881103515625,0.197509765625,-4.6106870229007635,1.2061068702290076,-1.3969465648854962
1747985915.6636002,0.48876953125,-0.895751953125,0.201171875,-2.2595419847328246,2.122137404580153,-2.4885496183206106
1747985915.7636402,0.488037109375,-0.88330078125,0.206787109375,3.312977099236641,0.5954198473282443,-2.1755725190839694
1747985915.8636415,0.488525390625,-0.88916015625,0.219482421875,-1.4732824427480915,-1.2442748091603053,-1.9694656488549618
1747985915.963586,0.5,-0.885498046875,0.21630859375,1.6717557251908397,0.2366412213740458,-1.5725190839694656
1747985916.0636404,0.50537109375,-0.90478515625,0.241943359375,3.122137404580153,-0.9770992366412213,-0.24427480916030533
1747985916.1636407,0.501708984375,-0.88818359375,0.232666015625,2.1374045801526718,-3.267175572519084,-1.4427480916030535
1747985916.2636404,0.50341796875,-0.888427734375,0.231689453125,0.015267175572519083,-0.732824427480916,-1.0076335877862594
1747985916.3636415,0.51318359375,-0.876708984375,0.216796875,1.183206106870229,-0.9923664122137404,-0.2748091603053435
1747985916.4636402,0.507080078125,-0.890380859375,0.21728515625,-3.1068702290076335,1.5190839694656488,-0.6793893129770993
1747985916.5636404,0.50244140625,-0.8974609375,0.23779296875,-3.519083969465649,0.9389312977099237,-1.1145038167938932
1747985916.6636407,0.489990234375,-0.884521484375,0.237548828125,0.6183206106870229,-0.8015267175572519,-0.9618320610687023
1747985916.7636406,0.5029296875,-0.8896484375,0.226318359375,1.8015267175572518,-1.1068702290076335,-0.6641221374045801
1747985916.8636408,0.515380859375,-0.872802734375,0.22998046875,1.2061068702290076,-1.6564885496183206,-1.9083969465648856
1747985916.9636407,0.5,-0.89453125,0.22216796875,-3.618320610687023,0.7175572519083969,-0.9541984732824428
1747985917.0636413,0.50146484375,-0.881103515625,0.228515625,0.5190839694656488,-0.8320610687022901,-0.4961832061068702
1747985917.163641,0.48779296875,-0.87109375,0.2255859375,-2.0381679389312977,-0.5572519083969466,-1.3511450381679388
1747985917.2636409,0.47119140625,-0.89208984375,0.24658203125,11.877862595419847,1.2213740458015268,0.916030534351145
1747985917.3636396,0.465576171875,-0.8564453125,0.34375,71.23664122137404,1.2671755725190839,22.198473282442748
1747985917.4636402,0.4765625,-0.84912109375,0.395751953125,55.9236641221374,29.801526717557252,43.74809160305343
1747985917.5636423,0.387939453125,-0.872802734375,0.497802734375,8.32824427480916,17.47328244274809,18.053435114503817
1747985917.663641,0.396484375,-0.96484375,0.49169921875,27.717557251908396,25.229007633587788,13.32824427480916
1747985917.7636414,0.1962890625,-0.869140625,0.53125,23.717557251908396,10.458015267175572,26.374045801526716
1747985917.8636415,0.322998046875,-0.882568359375,0.600830078125,37.099236641221374,22.458015267175572,19.87786259541985
1747985917.9636407,0.205322265625,-0.78955078125,0.61328125,27.549618320610687,39.81679389312977,17.541984732824428
1747985918.0636404,0.090576171875,-0.762939453125,0.7021484375,43.76335877862596,38.274809160305345,20.244274809160306
1747985918.163641,0.074462890625,-0.6875,0.80322265625,54.20610687022901,14.045801526717558,2.2213740458015265
1747985918.2636406,0.081298828125,-0.70166015625,0.80224609375,36.16030534351145,-1.9236641221374047,-5.488549618320611
1747985918.3636405,0.0693359375,-0.619384765625,0.8740234375,28.137404580152673,2.450381679389313,-1.2061068702290076
1747985918.4636402,0.067138671875,-0.5849609375,0.89599609375,8.83206106870229,0.549618320610687,-1.816793893129771
1747985918.56364,0.059326171875,-0.59912109375,0.90625,-0.8854961832061069,-0.6106870229007634,-1.297709923664122
1747985918.66364,0.063720703125,-0.58642578125,0.89404296875,-0.8091603053435115,-1.8396946564885497,-1.251908396946565
1747985918.763556,0.0634765625,-0.5859375,0.884033203125,-3.900763358778626,-0.46564885496183206,-1.5648854961832062
1747985918.8636408,0.07080078125,-0.588134765625,0.896484375,-1.8625954198473282,-0.04580152671755725,-0.9465648854961832
1747985918.9636412,0.0654296875,-0.58447265625,0.882568359375,-1.4122137404580153,0.06870229007633588,-0.9465648854961832
1747985919.0636404,0.07177734375,-0.58837890625,0.883056640625,-1.6259541984732824,-0.3969465648854962,-1.0534351145038168
1747985919.1636407,0.07275390625,-0.608154296875,0.89404296875,-1.8473282442748091,-0.22137404580152673,-1.1984732824427482
1747985919.2636409,0.071044921875,-0.593994140625,0.888671875,-2.66412213740458,0.16030534351145037,-1.0
1747985919.3636415,0.06591796875,-0.5859375,0.887939453125,-0.07633587786259542,0.5190839694656488,-1.0
1747985919.4636402,0.060546875,-0.592041015625,0.885986328125,-1.1145038167938932,-0.37404580152671757,-1.1297709923664123
1747985919.563641,0.06640625,-0.589599609375,0.88720703125,-0.7862595419847328,0.16030534351145037,-0.9923664122137404
1747985919.663641,0.065185546875,-0.592041015625,0.88427734375,0.9389312977099237,-0.6412213740458015,-1.3206106870229009
1747985919.763642,0.06982421875,-0.57763671875,0.882568359375,3.4122137404580153,-0.9770992366412213,-1.9465648854961832
1747985919.8636422,0.066650390625,-0.569580078125,0.892822265625,3.16793893129771,-3.015267175572519,-1.5038167938931297
1747985919.963641,0.095947265625,-0.50146484375,0.952880859375,8.290076335877863,-5.1679389312977095,-1.9465648854961832
1747985920.0636423,0.0654296875,-0.5576171875,0.854248046875,19.908396946564885,10.50381679389313,-4.480916030534351
1747985920.16364,0.07421875,-0.498046875,1.015869140625,27.610687022900763,12.84732824427481,0.6106870229007634
1747985920.2636404,-0.11181640625,-0.335205078125,1.233154296875,-74.2442748091603,-23.328244274809162,-2.5343511450381677
1747985920.3636422,-0.02099609375,-1.12548828125,0.75146484375,-250.13740458015266,35.11450381679389,-9.221374045801527
1747985920.4636405,0.13818359375,-0.884765625,0.27734375,-68.74809160305344,55.412213740458014,61.61068702290076
1747985920.5636396,-0.099853515625,-0.715576171875,0.156982421875,-113.95419847328245,51.725190839694655,60.35114503816794
1747985920.66364,0.1123046875,-1.0478515625,0.1279296875,-66.21374045801527,69.93129770992367,-24.442748091603054
1747985920.7636409,-0.00146484375,-0.782958984375,-0.019287109375,-129.3053435114504,108.13740458015268,-53.93893129770992
1747985920.8636398,-0.01416015625,-1.083740234375,-0.1064453125,-10.312977099236642,102.49618320610686,-33.61068702290076
1747985920.9636402,0.094970703125,-0.893798828125,-0.464111328125,25.47328244274809,117.30534351145039,24.251908396946565
1747985921.063641,0.0185546875,-1.048583984375,-0.310302734375,24.564885496183205,21.6793893129771,27.84732824427481
1747985921.1636403,-0.177978515625,-0.84619140625,-0.1376953125,-96.16030534351145,-69.31297709923665,21.732824427480917
1747985921.2636404,-0.23876953125,-0.8349609375,-0.32421875,-9.091603053435115,31.396946564885496,20.977099236641223
1747985921.3636405,-0.16748046875,-0.5302734375,0.039794921875,-23.85496183206107,-21.748091603053435,31.389312977099237
1747985921.4636407,0.07958984375,-0.800537109375,-0.34326171875,-60.961832061068705,47.717557251908396,-69.6030534351145
1747985921.56364,0.087646484375,-0.812255859375,-0.462646484375,15.374045801526718,47.80916030534351,-47.152671755725194
1747985921.6636074,-0.048583984375,-0.635498046875,-0.3583984375,-5.557251908396947,-24.091603053435115,-25.52671755725191
1747985921.7636409,0.32177734375,-0.8935546875,-0.465576171875,4.305343511450381,-5.305343511450381,-32.35114503816794
1747985921.8636396,0.314453125,-0.905517578125,-0.446044921875,17.954198473282442,8.274809160305344,-40.19083969465649
1747985921.9636412,0.405517578125,-0.99462890625,-0.37939453125,10.473282442748092,-22.587786259541986,-17.49618320610687
1747985922.063641,0.238525390625,-0.90234375,-0.32763671875,30.419847328244273,-49.58015267175573,4.709923664122138
1747985922.16364,0.316650390625,-0.886962890625,-0.2734375,12.793893129770993,-10.412213740458014,-5.9465648854961835
1747985922.2636404,0.302978515625,-0.97314453125,-0.289794921875,14.122137404580153,-0.6259541984732825,-23.53435114503817
1747985922.3636405,0.508544921875,-1.084228515625,-0.391845703125,35.70992366412214,49.74809160305343,-12.992366412213741
1747985922.4636405,0.397705078125,-0.871826171875,-0.336669921875,37.54961832061068,-48.41984732824427,50.51908396946565
1747985922.5636408,0.2470703125,-0.87451171875,-0.14501953125,70.03053435114504,-49.81679389312977,58.732824427480914
1747985922.6636422,0.08740234375,-1.083251953125,0.0615234375,22.587786259541986,-27.0381679389313,36.18320610687023
1747985922.7636406,0.022216796875,-1.02099609375,-0.070556640625,-13.625954198473282,13.587786259541986,24.022900763358777
1747985922.8636434,0.005126953125,-1.0390625,-0.165283203125,22.66412213740458,-3.8625954198473282,9.778625954198473
1747985922.9635541,-0.017822265625,-0.95361328125,0.011474609375,39.656488549618324,1.7786259541984732,-4.114503816793893
1747985923.0636404,0.060791015625,-0.992919921875,0.095703125,3.648854961832061,5.358778625954199,-3.099236641221374
1747985923.1636407,0.016357421875,-1.01318359375,0.0517578125,-3.954198473282443,5.343511450381679,-3.7557251908396947
1747985923.2636404,0.009033203125,-1.014404296875,-0.0302734375,-0.2824427480916031,13.84732824427481,-9.557251908396946
1747985923.3636405,0.042236328125,-0.979248046875,0.036376953125,-16.27480916030534,17.427480916030536,-7.358778625954199
1747985923.4636395,0.080078125,-0.970458984375,0.004638671875,-20.450381679389313,-3.4427480916030535,-5.534351145038168
1747985923.563641,0.04150390625,-1.0048828125,-0.0439453125,-16.251908396946565,-3.4732824427480917,2.4656488549618323
1747985923.6636415,0.048095703125,-1.005615234375,-0.087890625,-4.519083969465649,-8.664122137404581,15.725190839694656
1747985923.763641,0.052978515625,-1.06298828125,0.001708984375,-5.984732824427481,-5.33587786259542,27.12213740458015
1747985923.863641,0.027587890625,-1.04248046875,-0.067626953125,35.06870229007634,-3.6564885496183206,-21.519083969465647
1747985923.9636426,0.034423828125,-0.982666015625,-0.011474609375,-4.549618320610687,14.32824427480916,-33.82442748091603
1747985924.0636406,0.0126953125,-0.945556640625,0.00439453125,-18.358778625954198,24.15267175572519,2.969465648854962
1747985924.1636415,0.042236328125,-1.010986328125,0.010986328125,-12.885496183206106,5.442748091603053,17.18320610687023
1747985924.2635589,0.02978515625,-0.995849609375,-0.019287109375,-10.801526717557252,-0.5343511450381679,2.854961832061069
1747985924.3636405,0.019775390625,-1.0048828125,-0.0234375,8.236641221374045,0.030534351145038167,6.66412213740458
1747985924.4636414,0.02734375,-0.988525390625,-0.012451171875,-2.8244274809160306,2.1374045801526718,0.007633587786259542
1747985924.56364,0.025634765625,-1.0029296875,-0.03125,-3.4580152671755724,5.061068702290076,-0.5190839694656488
1747985924.6636403,0.01708984375,-0.991455078125,-0.028564453125,-1.8625954198473282,4.083969465648855,-1.1984732824427482
1747985924.7636406,0.012451171875,-1.01611328125,-0.041259765625,0.25190839694656486,1.7786259541984732,-0.8549618320610687
1747985924.863641,0.015380859375,-0.98828125,-0.025146484375,-6.6183206106870225,4.00763358778626,-9.106870229007633
1747985924.9636421,0.00390625,-1.006591796875,-0.019287109375,4.854961832061068,2.969465648854962,1.1374045801526718
1747985925.063641,0.025146484375,-1.007568359375,-0.0390625,1.549618320610687,-5.603053435114504,2.5343511450381677
1747985925.1636403,0.005615234375,-1.005859375,-0.052978515625,-2.0076335877862594,0.44274809160305345,-6.114503816793893
1747985925.2636402,0.011474609375,-1.0029296875,-0.019287109375,-2.9770992366412212,8.198473282442748,2.030534351145038
1747985925.3636408,0.0107421875,-1.010009765625,-0.02783203125,-11.992366412213741,-1.1221374045801527,-3.6793893129770994
1747985925.46364,0.012939453125,-1.013427734375,-0.01708984375,1.5725190839694656,0.3435114503816794,0.17557251908396945
1747985925.5636406,0.02001953125,-1.006591796875,-0.0595703125,3.50381679389313,-2.16793893129771,-0.05343511450381679
1747985925.6636407,0.01171875,-0.99462890625,-0.0439453125,-6.8320610687022905,3.0,-3.50381679389313
1747985925.763641,0.01806640625,-1.00830078125,-0.04638671875,3.030534351145038,2.3435114503816794,0.32061068702290074
1747985925.8636422,0.0205078125,-1.003173828125,-0.045166015625,-1.9236641221374047,-0.8778625954198473,-2.0076335877862594
1747985925.9636395,0.0146484375,-1.00341796875,-0.043701171875,-3.366412213740458,2.8473282442748094,-1.0916030534351144
1747985926.0636423,0.02001953125,-0.99658203125,-0.0341796875,-2.450381679389313,0.9236641221374046,-2.1068702290076335
1747985926.1636407,0.04443359375,-1.012939453125,-0.03271484375,2.946564885496183,-0.3053435114503817,-0.37404580152671757
1747985926.2636404,0.02197265625,-1.015380859375,-0.06396484375,1.5801526717557253,-3.66412213740458,-0.8702290076335878
1747985926.36364,0.005615234375,-1.00244140625,-0.044921875,-6.0,0.6564885496183206,-1.9694656488549618
1747985926.4636405,0.01220703125,-0.984619140625,-0.04736328125,-1.534351145038168,2.49618320610687,0.9007633587786259
1747985926.563641,0.027099609375,-1.0048828125,-0.0419921875,0.22900763358778625,-3.2290076335877864,-0.5190839694656488
1747985926.6636407,0.030029296875,-0.98583984375,-0.03955078125,-0.09923664122137404,0.13740458015267176,-0.9770992366412213
1747985926.763641,0.017822265625,-0.993408203125,-0.03662109375,-2.183206106870229,0.7404580152671756,-0.1450381679389313
1747985926.8636425,0.0166015625,-1.046630859375,-0.050537109375,0.45038167938931295,-1.702290076335878,0.26717557251908397
1747985926.9636414,0.02197265625,-0.991455078125,-0.04736328125,-2.183206106870229,-3.9389312977099236,-3.7557251908396947
1747985927.063641,0.009765625,-0.994140625,-0.0361328125,-2.7022900763358777,1.2595419847328244,-0.8778625954198473
1747985927.1636384,0.00390625,-1.01318359375,-0.0380859375,-2.0,1.450381679389313,-3.618320610687023
1747985927.263641,0.0234375,-1.004150390625,-0.040771484375,2.427480916030534,0.19083969465648856,2.8625954198473282
1747985927.3636403,0.022216796875,-1.011474609375,-0.039306640625,-4.801526717557252,-1.450381679389313,-3.931297709923664
1747985927.46364,0.00830078125,-0.999267578125,-0.043701171875,3.2442748091603053,3.236641221374046,-1.7251908396946565
1747985927.563641,0.028076171875,-0.98876953125,-0.025390625,-1.9770992366412214,0.45038167938931295,0.7251908396946565
1747985927.6636412,0.022705078125,-1.015625,-0.037353515625,-5.8396946564885495,0.9312977099236641,-0.6946564885496184
1747985927.7636406,0.0185546875,-0.995849609375,-0.033935546875,1.1374045801526718,0.2824427480916031,-3.351145038167939
1747985927.8636398,0.02294921875,-1.005859375,-0.045166015625,0.24427480916030533,-1.6106870229007633,0.22900763358778625
1747985927.9636402,0.028076171875,-0.989990234375,-0.0380859375,-2.122137404580153,-1.1068702290076335,-2.8931297709923665
1747985928.063641,0.020751953125,-1.00341796875,-0.026611328125,0.7709923664122137,2.877862595419847,-0.6259541984732825
1747985928.163642,0.026611328125,-1.010009765625,-0.028076171875,10.396946564885496,3.2061068702290076,-5.251908396946565
1747985928.2636416,0.0205078125,-0.9892578125,-0.018310546875,12.48091603053435,1.9694656488549618,-5.076335877862595
1747985928.3636396,0.046142578125,-0.987060546875,0.0048828125,0.5801526717557252,1.183206106870229,-0.3969465648854962
1747985928.4636421,0.04345703125,-1.005126953125,0.023681640625,1.1603053435114503,0.5114503816793893,-0.26717557251908397
1747985928.5636437,0.015869140625,-1.0234375,0.009765625,9.099236641221374,-4.900763358778626,-1.8778625954198473
1747985928.6636403,0.047119140625,-0.99267578125,0.039306640625,6.0458015267175576,-9.923664122137405,-2.4427480916030535
1747985928.7636414,0.04443359375,-0.992431640625,0.07421875,5.2748091603053435,-4.4961832061068705,-2.816793893129771
1747985928.863641,0.019287109375,-1.02490234375,0.04833984375,14.83206106870229,-4.847328244274809,2.4656488549618323
1747985928.9636402,0.031494140625,-1.015380859375,0.068603515625,-4.755725190839694,-2.946564885496183,-3.0916030534351147
1747985929.063641,0.06591796875,-1.07861328125,0.068603515625,6.305343511450381,-0.8473282442748091,5.969465648854962
1747985929.1636415,0.023681640625,-0.935546875,0.113525390625,31.061068702290076,-6.679389312977099,0.4580152671755725
1747985929.2636402,0.0,-0.9072265625,0.18115234375,6.152671755725191,-6.351145038167939,21.85496183206107
1747985929.3636398,-0.015625,-0.955810546875,0.21533203125,80.0,-13.564885496183207,-3.5343511450381677
1747985929.4636414,0.0107421875,-0.965576171875,0.378173828125,112.77099236641222,-25.862595419847327,-7.145038167938932
1747985929.5636413,-0.032470703125,-0.814453125,0.5009765625,107.92366412213741,-34.38931297709924,5.427480916030534
1747985929.6636407,-0.012451171875,-0.7890625,0.776611328125,58.37404580152672,1.1068702290076335,-0.1297709923664122
1747985929.7635505,0.04638671875,-0.737060546875,0.72021484375,75.54961832061069,-9.244274809160306,3.5267175572519083
1747985929.86364,0.0146484375,-0.56787109375,1.01513671875,66.4885496183206,-11.618320610687023,-3.5572519083969465
1747985929.963641,0.0498046875,-0.539306640625,1.013916015625,50.43511450381679,6.595419847328245,-2.282442748091603
1747985930.06364,0.024658203125,-0.465087890625,0.953857421875,-9.229007633587786,-1.2366412213740459,-0.916030534351145
1747985930.1636407,0.025146484375,-0.46240234375,0.9736328125,4.793893129770993,0.7557251908396947,-1.1984732824427482
1747985930.2636402,0.025390625,-0.455322265625,0.971923828125,1.6030534351145038,0.6870229007633588,-1.1526717557251909
1747985930.363641,0.028564453125,-0.45556640625,0.96435546875,2.3053435114503817,0.48091603053435117,-1.1297709923664123
1747985930.46364,0.023193359375,-0.446044921875,0.977783203125,1.213740458015267,0.33587786259541985,-1.2671755725190839
1747985930.563641,0.020751953125,-0.4462890625,0.97998046875,0.9770992366412213,0.31297709923664124,-1.183206106870229
1747985930.6636415,0.023681640625,-0.44482421875,0.9765625,0.366412213740458,-0.05343511450381679,-1.3206106870229009
1747985930.7636414,0.016845703125,-0.442138671875,0.980224609375,0.17557251908396945,0.21374045801526717,-1.1068702290076335
1747985930.8636408,0.022216796875,-0.436767578125,0.972900390625,0.07633587786259542,1.8854961832061068,-1.1450381679389312
1747985930.963641,0.0224609375,-0.43212890625,0.992919921875,0.1297709923664122,0.16793893129770993,-1.1450381679389312
1747985931.0636425,0.0234375,-0.433837890625,0.973388671875,0.07633587786259542,0.08396946564885496,-1.1068702290076335
1747985931.1636407,0.020263671875,-0.429443359375,0.979248046875,-0.12213740458015267,0.0916030534351145,-1.183206106870229
1747985931.2636402,0.02099609375,-0.429443359375,0.98828125,-0.45038167938931295,1.9236641221374047,-1.1603053435114503
1747985931.363642,0.024169921875,-0.4345703125,0.98193359375,-0.25190839694656486,0.015267175572519083,-1.2595419847328244
1747985931.4636405,0.021240234375,-0.430419921875,0.988037109375,0.007633587786259542,-1.9236641221374047,-1.1603053435114503
1747985931.5636406,0.025146484375,-0.4228515625,0.9833984375,0.45038167938931295,0.04580152671755725,-1.0534351145038168
1747985931.6635754,0.0234375,-0.426025390625,0.9697265625,-0.3816793893129771,-0.31297709923664124,-0.9770992366412213
1747985931.763641,0.025634765625,-0.42333984375,0.986572265625,-0.3969465648854962,0.183206106870229,-1.2061068702290076
1747985931.8636403,0.02490234375,-0.4072265625,0.98486328125,-0.3053435114503817,1.8931297709923665,-1.0610687022900764
1747985931.963641,0.023681640625,-0.417724609375,0.9912109375,-0.3893129770992366,-0.10687022900763359,-1.1755725190839694
1747985932.063641,0.01611328125,-0.4189453125,0.986328125,0.3969465648854962,0.022900763358778626,-1.183206106870229
1747985932.163641,0.019287109375,-0.41845703125,0.994384765625,-0.48854961832061067,0.06870229007633588,-1.2671755725190839
1747985932.2636397,0.0146484375,-0.4189453125,0.99365234375,-0.816793893129771,-1.9236641221374047,-1.16793893129771
1747985932.3636415,0.02734375,-0.41455078125,0.991943359375,-0.5190839694656488,-0.007633587786259542,-1.1755725190839694
1747985932.4636407,0.023681640625,-0.408203125,0.985107421875,-0.26717557251908397,0.03816793893129771,-1.0610687022900764
1747985932.5636408,0.002685546875,-0.418701171875,0.993408203125,-0.6564885496183206,0.10687022900763359,-1.1374045801526718
1747985932.6636412,0.0185546875,-0.4140625,0.986328125,-0.7709923664122137,-0.03816793893129771,-1.3053435114503817
1747985932.7636406,0.000732421875,-0.41845703125,1.0126953125,-0.8778625954198473,-0.022900763358778626,-1.1221374045801527
1747985932.8636434,0.01953125,-0.412109375,0.990234375,-0.549618320610687,0.08396946564885496,-1.2900763358778626
1747985932.963642,0.0263671875,-0.4091796875,0.990966796875,-0.7862595419847328,-1.916030534351145,-1.2061068702290076
1747985933.0636413,0.016357421875,-0.411376953125,0.9931640625,-0.7022900763358778,1.9312977099236641,-1.0763358778625953
1747985933.1636403,0.016357421875,-0.39208984375,0.990478515625,-0.5877862595419847,0.03816793893129771,-1.3129770992366412
1747985933.263641,0.015625,-0.408935546875,0.993896484375,-0.5877862595419847,0.11450381679389313,-1.1984732824427482
1747985933.3636403,0.013916015625,-0.41064453125,0.99609375,-0.44274809160305345,-0.03816793893129771,-1.015267175572519
1747985933.463641,0.00537109375,-0.40869140625,1.002197265625,-0.7175572519083969,0.03816793893129771,-1.1145038167938932
1747985933.56364,0.0185546875,-0.4111328125,0.981201171875,-0.7175572519083969,-0.183206106870229,-1.0381679389312977
1747985933.6636407,0.01708984375,-0.4208984375,0.9931640625,-0.7175572519083969,0.061068702290076333,-1.1221374045801527
1747985933.7636416,0.022216796875,-0.4091796875,0.996826171875,-0.7099236641221374,1.9389312977099236,-1.0610687022900764
1747985933.8636432,0.02783203125,-0.421875,0.987060546875,-0.816793893129771,-0.08396946564885496,-1.2366412213740459
1747985933.9636428,0.016845703125,-0.40673828125,1.00439453125,-0.549618320610687,-0.09923664122137404,-1.3358778625954197
1747985934.0636456,0.025634765625,-0.398681640625,0.998046875,-1.0381679389312977,-0.1984732824427481,-1.1221374045801527
1747985934.1636443,0.016357421875,-0.408447265625,1.003173828125,-0.7251908396946565,0.1297709923664122,-1.1603053435114503
1747985934.2636435,0.0185546875,-0.40234375,0.998779296875,-0.916030534351145,-1.9541984732824427,-1.083969465648855
1747985934.3636427,0.00146484375,-0.411865234375,0.99951171875,-0.9770992366412213,1.916030534351145,-1.251908396946565
1747985934.4636428,0.015380859375,-0.406982421875,0.99365234375,-0.916030534351145,-0.2595419847328244,-1.1145038167938932
1747985934.5636458,0.01171875,-0.447509765625,0.871337890625,18.427480916030536,-0.32061068702290074,-3.2977099236641223
1747985934.6636434,0.012939453125,-0.358642578125,1.025146484375,-20.229007633587788,-4.297709923664122,-0.6641221374045801
1747985934.7636435,0.037353515625,-0.3193359375,1.010009765625,4.412213740458015,-4.396946564885496,-2.435114503816794
1747985934.8636432,0.018798828125,-0.3447265625,1.025146484375,17.374045801526716,-4.305343511450381,-1.7328244274809161
1747985934.9636424,0.0205078125,-0.320068359375,1.0478515625,2.030534351145038,0.35877862595419846,-0.8244274809160306
1747985935.0636477,-0.019287109375,-0.359130859375,1.141845703125,-60.25954198473283,1.16793893129771,-4.458015267175573
1747985935.1636436,-0.009765625,-0.502685546875,0.8154296875,-71.12213740458016,5.4961832061068705,-6.778625954198473
1747985935.2636423,-0.040283203125,-0.5859375,0.996337890625,-104.09923664122137,-8.229007633587786,-6.641221374045801
1747985935.3636441,0.0537109375,-0.817138671875,0.671142578125,-176.42748091603053,-7.290076335877862,-6.8320610687022905
1747985935.4636428,0.095703125,-0.968994140625,0.611572265625,-170.5267175572519,-8.206106870229007,-35.282442748091604
1747985935.5636451,0.053466796875,-0.998779296875,0.352294921875,40.49618320610687,32.67175572519084,-40.229007633587784
1747985935.6636472,0.13330078125,-0.87841796875,0.321533203125,-6.786259541984733,47.274809160305345,-2.4198473282442747
1747985935.7636428,0.0751953125,-0.9677734375,0.326416015625,-63.81679389312977,32.67175572519084,4.290076335877862
1747985935.863646,0.083740234375,-1.020263671875,0.295654296875,-22.267175572519083,3.564885496183206,-4.251908396946565
1747985935.963644,0.06591796875,-0.976318359375,0.20703125,-20.893129770992367,19.572519083969464,-4.862595419847328
1747985936.0636458,0.0859375,-0.967529296875,0.216552734375,-21.793893129770993,38.343511450381676,-16.03053435114504
1747985936.1636436,0.095458984375,-0.973876953125,0.19189453125,3.2061068702290076,37.587786259541986,-32.404580152671755
1747985936.2636442,0.173583984375,-1.000732421875,0.177001953125,-5.061068702290076,44.87786259541985,-32.6793893129771
1747985936.363644,0.25634765625,-1.0048828125,0.14501953125,-11.267175572519085,36.916030534351144,-33.01526717557252
1747985936.4636426,0.238037109375,-0.9921875,0.164794921875,-19.641221374045802,30.083969465648856,-0.5190839694656488
1747985936.5636468,0.21533203125,-0.9541015625,0.093994140625,-10.763358778625955,39.42748091603053,15.740458015267176
1747985936.663645,0.23486328125,-0.943115234375,0.135498046875,-30.595419847328245,79.38931297709924,3.2061068702290076
1747985936.7636435,0.231689453125,-0.971923828125,0.16064453125,-15.946564885496183,79.57251908396947,-12.84732824427481
1747985936.8636427,0.23095703125,-0.978759765625,0.14990234375,-10.244274809160306,55.86259541984733,-14.977099236641221
1747985936.9636436,0.210693359375,-0.9794921875,0.115966796875,-17.419847328244273,42.786259541984734,4.145038167938932
1747985937.0636485,0.25146484375,-1.05859375,0.16259765625,-25.12213740458015,25.38167938931298,3.595419847328244
1747985937.1636446,0.27880859375,-1.03857421875,0.11767578125,3.9160305343511452,7.488549618320611,-13.587786259541986
1747985937.263644,0.275146484375,-1.03076171875,0.067138671875,-3.2519083969465647,1.3587786259541985,-10.465648854961833
1747985937.3636432,0.27197265625,-0.9853515625,0.0458984375,-5.251908396946565,-12.465648854961833,-1.8854961832061068
1747985937.463643,0.315185546875,-1.030517578125,0.0927734375,-31.732824427480917,-0.7709923664122137,5.488549618320611
1747985937.5636463,0.307861328125,-1.058837890625,0.0732421875,-36.778625954198475,-17.35114503816794,-17.82442748091603
1747985937.6636457,0.20751953125,-0.9609375,-0.02001953125,8.51908396946565,-50.76335877862596,1.4961832061068703
1747985937.7636437,0.204833984375,-0.968505859375,-0.135498046875,-31.793893129770993,-40.56488549618321,25.0381679389313
1747985937.8636465,0.25146484375,-0.887939453125,-0.22314453125,-53.45038167938932,-26.702290076335878,7.557251908396947
1747985937.963645,0.234130859375,-0.903564453125,-0.264892578125,-37.31297709923664,-7.137404580152672,-22.427480916030536
1747985938.0636468,0.39404296875,-0.99609375,-0.41162109375,3.2519083969465647,33.6793893129771,-67.76335877862596
1747985938.163646,0.090087890625,-0.783203125,-0.277099609375,25.015267175572518,-39.80916030534351,-33.06870229007634
1747985938.2636442,0.305908203125,-0.982666015625,-0.214599609375,12.32824427480916,10.404580152671755,38.6793893129771
1747985938.3636434,0.238525390625,-0.77734375,-0.13232421875,47.74045801526717,44.54961832061068,48.76335877862596
1747985938.4636424,0.2685546875,-0.979736328125,-0.067138671875,67.1526717557252,52.97709923664122,49.725190839694655
1747985938.5636456,0.144775390625,-1.091796875,0.011474609375,24.03053435114504,-24.564885496183205,28.083969465648856
1747985938.6636431,0.185546875,-0.9423828125,0.060302734375,4.6183206106870225,0.48091603053435117,-4.961832061068702
1747985938.763643,0.130615234375,-0.92041015625,0.10595703125,31.82442748091603,10.381679389312977,-0.07633587786259542
1747985938.8636427,0.138916015625,-0.925048828125,0.20654296875,9.488549618320612,-11.351145038167939,-12.557251908396946
1747985938.9636428,0.202880859375,-1.104736328125,0.23681640625,86.83206106870229,22.18320610687023,-19.33587786259542
1747985939.0636475,0.36865234375,-0.892333984375,0.406005859375,77.10687022900764,27.793893129770993,-80.4885496183206
1747985939.1636434,0.322509765625,-0.944091796875,0.429443359375,35.11450381679389,18.229007633587788,-22.938931297709924
1747985939.2636435,0.257568359375,-0.90087890625,0.4453125,-57.45038167938932,14.389312977099237,38.396946564885496
1747985939.3636432,0.183837890625,-0.96337890625,0.40087890625,-67.6412213740458,1.2900763358778626,51.74045801526717
1747985939.4636428,0.156494140625,-1.028076171875,0.39208984375,-38.12213740458015,8.183206106870228,27.51145038167939
1747985939.563645,0.19970703125,-0.93798828125,0.369140625,8.488549618320612,10.442748091603054,-19.244274809160306
1747985939.663644,0.151611328125,-1.044189453125,0.290283203125,16.03053435114504,-14.076335877862595,-25.106870229007633
1747985939.7636433,0.17724609375,-1.015380859375,0.369384765625,23.954198473282442,-13.67175572519084,4.0
1747985939.8636434,0.136474609375,-0.93212890625,0.3740234375,-3.900763358778626,-32.954198473282446,26.549618320610687
1747985939.9636428,0.139892578125,-0.879150390625,0.374755859375,-23.778625954198475,-61.534351145038165,36.57251908396947
1747985940.063646,0.143798828125,-0.920166015625,0.36865234375,23.00763358778626,-65.09160305343511,13.465648854961833
1747985940.1636448,0.07177734375,-0.9501953125,0.274169921875,18.96946564885496,-6.572519083969466,21.557251908396946
1747985940.2636435,0.05029296875,-1.031982421875,0.36328125,-7.587786259541985,53.47328244274809,23.770992366412212
1747985940.3636425,0.02880859375,-0.99365234375,0.360107421875,-15.366412213740459,36.30534351145038,-16.81679389312977
1747985940.463643,0.03076171875,-0.9716796875,0.367431640625,-13.900763358778626,-3.312977099236641,-22.541984732824428
1747985940.5636451,0.073974609375,-0.989990234375,0.368408203125,-3.3282442748091605,-22.916030534351144,-0.030534351145038167
1747985940.6636434,0.050048828125,-0.975830078125,0.33349609375,5.1603053435114505,-10.450381679389313,7.473282442748092
1747985940.7636437,0.068115234375,-0.96240234375,0.357177734375,-7.6106870229007635,-4.99236641221374,5.938931297709924
1747985940.8636453,0.03857421875,-0.969970703125,0.3701171875,-3.7786259541984735,-5.5038167938931295,-1.4351145038167938
1747985940.9636426,0.032470703125,-0.982666015625,0.35498046875,-0.25190839694656486,-15.557251908396946,0.9847328244274809
1747985941.0636451,0.031494140625,-1.029541015625,0.33740234375,12.534351145038167,-36.44274809160305,15.595419847328245
1747985941.163644,0.08056640625,-0.97900390625,0.318603515625,-2.2442748091603053,-10.389312977099237,3.068702290076336
1747985941.263644,0.008544921875,-0.97314453125,0.3427734375,-3.83206106870229,12.267175572519085,-11.206106870229007
1747985941.3636441,0.021728515625,-0.972412109375,0.33447265625,1.2748091603053435,9.236641221374045,0.0
1747985941.463643,0.048583984375,-0.99365234375,0.341552734375,-1.6564885496183206,8.877862595419847,-2.1374045801526718
1747985941.563645,0.05126953125,-0.946533203125,0.34765625,-1.8778625954198473,3.427480916030534,-7.351145038167939
1747985941.6636436,0.050048828125,-0.956787109375,0.340576171875,1.083969465648855,1.2671755725190839,-0.4961832061068702
1747985941.7636452,0.05615234375,-0.968505859375,0.349853515625,-4.351145038167939,8.17557251908397,-4.190839694656488
1747985941.863643,0.05517578125,-0.982421875,0.35400390625,5.473282442748092,2.0229007633587788,4.564885496183206
1747985941.9636428,0.032470703125,-0.973388671875,0.3427734375,-2.480916030534351,-4.6106870229007635,-1.3358778625954197
1747985942.0636463,0.03662109375,-0.998779296875,0.367431640625,2.7022900763358777,0.8015267175572519,5.435114503816794
1747985942.1636434,0.0419921875,-0.98388671875,0.345703125,-0.8320610687022901,-0.015267175572519083,0.5267175572519084
1747985942.2636435,0.01513671875,-0.96435546875,0.34765625,4.236641221374046,-2.4198473282442747,0.4351145038167939
1747985942.3636448,0.026611328125,-0.95654296875,0.35205078125,-4.2748091603053435,4.343511450381679,1.7404580152671756
1747985942.463643,-0.0029296875,-0.95654296875,0.380859375,3.122137404580153,-14.053435114503817,14.106870229007633
1747985942.5636458,0.00244140625,-0.95263671875,0.344970703125,8.969465648854962,-12.633587786259541,14.648854961832061
1747985942.663645,0.010986328125,-0.94140625,0.33544921875,12.282442748091603,-1.9694656488549618,4.32824427480916
1747985942.763644,-0.00927734375,-0.90283203125,0.332763671875,11.366412213740459,14.633587786259541,0.21374045801526717
1747985942.8636513,-0.031982421875,-0.873291015625,0.39404296875,23.801526717557252,23.610687022900763,9.900763358778626
1747985942.9636452,-0.052978515625,-0.9677734375,0.47119140625,0.7022900763358778,26.15267175572519,0.26717557251908397
1747985943.063647,-0.081298828125,-0.8623046875,0.518798828125,24.03053435114504,21.282442748091604,9.687022900763358
1747985943.1636446,-0.16552734375,-0.84326171875,0.5625,14.923664122137405,19.53435114503817,13.938931297709924
1747985943.2636435,-0.212890625,-0.89404296875,0.573486328125,-1.4045801526717556,24.65648854961832,0.6870229007633588
1747985943.3636432,-0.170654296875,-0.91259765625,0.552734375,18.564885496183205,30.916030534351144,17.290076335877863
1747985943.4636436,-0.184326171875,-0.828857421875,0.513671875,-10.198473282442748,4.480916030534351,11.961832061068701
1747985943.5636466,-0.202392578125,-0.838623046875,0.57080078125,-0.5725190839694656,-9.17557251908397,9.290076335877863
1747985943.6636858,-0.292236328125,-0.779296875,0.61279296875,65.90839694656489,-24.419847328244273,-5.8396946564885495
1747985943.7636423,-0.25927734375,-0.656005859375,0.72021484375,60.213740458015266,-60.41984732824427,-7.3893129770992365
1747985943.863648,-0.16455078125,-0.575927734375,0.814697265625,67.68702290076335,-54.11450381679389,-26.129770992366414
1747985943.9636447,-0.022216796875,-0.510498046875,0.60693359375,237.06870229007635,-70.40458015267176,-40.82442748091603
1747985944.0636458,0.08056640625,-0.131103515625,1.3056640625,55.54961832061068,92.95419847328245,12.274809160305344
1747985944.1636477,0.09619140625,0.003173828125,1.076171875,-1.6488549618320612,-5.526717557251908,-3.2290076335877864
1747985944.2636476,0.0712890625,-0.005615234375,1.0732421875,1.6793893129770991,-2.5343511450381677,-0.7709923664122137
1747985944.363644,0.0693359375,0.00732421875,1.06640625,0.2748091603053435,0.5343511450381679,-0.8091603053435115
1747985944.4636474,0.0654296875,0.00634765625,1.08544921875,-0.061068702290076333,-0.9083969465648855,-1.0458015267175573
1747985944.563648,0.067138671875,0.009765625,1.082275390625,0.3282442748091603,0.15267175572519084,-0.9618320610687023
1747985944.6636457,0.077880859375,0.014404296875,1.071533203125,1.2366412213740459,1.1145038167938932,-1.0458015267175573
1747985944.7636435,0.070068359375,0.00244140625,1.07861328125,-0.46564885496183206,-0.4580152671755725,-1.0534351145038168
1747985944.863643,0.072265625,0.0224609375,1.077880859375,0.32061068702290074,-0.2366412213740458,-0.9465648854961832
1747985944.9636424,0.07568359375,0.017822265625,1.06298828125,-0.25190839694656486,-0.4961832061068702,-1.1450381679389312
1747985945.0636442,0.069580078125,0.020263671875,1.07177734375,-0.42748091603053434,-0.22900763358778625,-1.1603053435114503
1747985945.1636443,0.07080078125,0.02001953125,1.070068359375,-0.549618320610687,-0.3053435114503817,-1.099236641221374
1747985945.2636435,0.069580078125,0.02392578125,1.077880859375,-0.4122137404580153,-0.32061068702290074,-1.0076335877862594
1747985945.3636425,0.0732421875,0.01904296875,1.07421875,-0.5419847328244275,-0.26717557251908397,-0.9923664122137404
1747985945.4636424,0.06640625,0.028076171875,1.090576171875,-0.5419847328244275,-0.4580152671755725,-1.1068702290076335
1747985945.5636513,0.0712890625,0.025634765625,1.07568359375,-0.5114503816793893,-0.17557251908396945,-1.0458015267175573
1747985945.6636455,0.068603515625,0.02001953125,1.07666015625,-0.5114503816793893,-0.1984732824427481,-0.9923664122137404
1747985945.763645,0.072509765625,0.026123046875,1.064697265625,-0.6030534351145038,-0.19083969465648856,-1.2061068702290076
1747985945.8636436,0.07763671875,0.028076171875,1.07763671875,-0.5801526717557252,-0.3435114503816794,-1.1374045801526718
1747985945.9636436,0.07421875,0.02392578125,1.0703125,-0.4732824427480916,0.20610687022900764,-1.1145038167938932
1747985946.0636446,0.071044921875,0.0322265625,1.072265625,-0.648854961832061,0.16030534351145037,-1.099236641221374
1747985946.1636431,0.07470703125,0.01953125,1.08203125,0.6870229007633588,-0.06870229007633588,-0.7557251908396947
1747985946.2636442,0.06787109375,0.031982421875,1.08251953125,-0.5725190839694656,-0.1984732824427481,-1.0916030534351144
1747985946.3636436,0.071044921875,0.03369140625,1.073974609375,-0.19083969465648856,0.1984732824427481,-1.0458015267175573
1747985946.4636424,0.07080078125,0.034423828125,1.0771484375,-0.7099236641221374,-0.16030534351145037,-0.8854961832061069
1747985946.5636444,0.072265625,0.036865234375,1.081298828125,-0.9312977099236641,-0.13740458015267176,-1.0076335877862594
1747985946.6636436,0.073486328125,0.03759765625,1.06884765625,-0.7557251908396947,-0.15267175572519084,-1.0916030534351144
1747985946.7636435,0.068603515625,0.043701171875,1.076171875,-1.0229007633587786,-0.04580152671755725,-0.9236641221374046
1747985946.8636432,0.068603515625,0.03955078125,1.064453125,-0.5572519083969466,-0.24427480916030533,-1.0763358778625953
1747985946.9636426,0.07080078125,0.03662109375,1.0791015625,-0.8931297709923665,-0.030534351145038167,-0.8931297709923665
1747985947.063644,0.076171875,0.03955078125,1.090087890625,-1.1297709923664123,-0.030534351145038167,-1.099236641221374
1747985947.163644,0.071044921875,0.043701171875,1.072509765625,-0.19083969465648856,0.19083969465648856,-1.0076335877862594
1747985947.2636435,0.07080078125,0.04296875,1.066650390625,1.2290076335877862,0.9541984732824428,-0.7175572519083969
1747985947.3636436,0.069091796875,0.039794921875,1.06640625,-0.5343511450381679,-0.04580152671755725,-1.183206106870229
1747985947.463643,0.068359375,0.049072265625,1.0712890625,-0.8549618320610687,-0.26717557251908397,-1.183206106870229
1747985947.5636456,0.071044921875,0.04443359375,1.073974609375,-0.9770992366412213,-1.9312977099236641,-1.183206106870229
1747985947.663643,0.072265625,0.052490234375,1.083740234375,-0.21374045801526717,0.0916030534351145,-1.1221374045801527
1747985947.763644,0.074951171875,0.056396484375,1.08251953125,-0.8244274809160306,-1.9236641221374047,-1.2061068702290076
1747985947.863643,0.0673828125,0.045166015625,1.074951171875,-0.8931297709923665,0.1297709923664122,-0.9770992366412213
1747985947.963643,0.074462890625,0.04541015625,1.074462890625,-0.549618320610687,0.030534351145038167,-1.0305343511450382
1747985948.0636446,0.064453125,0.048583984375,1.068603515625,-0.44274809160305345,1.9389312977099236,-1.1145038167938932
1747985948.1636431,0.07275390625,0.045166015625,1.0712890625,0.2748091603053435,1.1297709923664123,-1.015267175572519
1747985948.263643,0.068359375,0.051025390625,1.07763671875,-1.4885496183206106,-0.12213740458015267,-1.0076335877862594
1747985948.3636422,0.07177734375,0.045654296875,1.0810546875,-0.8778625954198473,-0.2824427480916031,-1.1068702290076335
1747985948.4636424,0.06591796875,0.058349609375,1.0703125,-1.099236641221374,-0.16030534351145037,-1.2595419847328244
1747985948.563645,0.072265625,0.05078125,1.081298828125,-1.083969465648855,-0.22137404580152673,-1.0458015267175573
1747985948.6636448,0.07470703125,0.049560546875,1.073486328125,-1.0381679389312977,-0.061068702290076333,-1.099236641221374
1747985948.7636437,0.068359375,0.0537109375,1.07373046875,-1.1984732824427482,0.12213740458015267,-1.0458015267175573
1747985948.8636744,0.07763671875,0.03369140625,1.047119140625,0.5648854961832062,1.282442748091603,-0.9847328244274809
1747985948.9636421,0.064208984375,0.055419921875,1.0859375,-1.0,0.20610687022900764,-0.9618320610687023
1747985949.0636458,0.066162109375,0.056884765625,1.0869140625,-1.0305343511450382,-0.2366412213740458,-1.1755725190839694
1747985949.1636448,0.067626953125,0.0498046875,1.066650390625,-1.0,-0.16793893129770993,-1.1374045801526718
1747985949.2636454,0.0673828125,0.052490234375,1.08056640625,-0.6870229007633588,0.40458015267175573,-0.9312977099236641
1747985872.8635411,0.149658203125,-0.99072265625,0.285400390625,-2.068702290076336,0.6412213740458015,-2.480916030534351
1747985872.9636488,0.146728515625,-0.97900390625,0.27099609375,0.48091603053435117,3.1603053435114505,-4.66412213740458
1747985873.0636427,0.121826171875,-0.959716796875,0.269775390625,-0.16793893129770993,5.770992366412214,-7.442748091603053
1747985873.163641,0.141845703125,-1.020263671875,0.320556640625,6.862595419847328,-5.6183206106870225,-8.473282442748092
1747985873.2636402,0.15185546875,-0.92431640625,0.27880859375,5.847328244274809,-3.946564885496183,-4.931297709923665
1747985873.3636403,0.168701171875,-0.975341796875,0.267822265625,0.9923664122137404,-3.2061068702290076,-1.4961832061068703
1747985873.4636412,0.183349609375,-0.955810546875,0.281494140625,-2.6030534351145036,4.33587786259542,-1.8702290076335877
1747985873.5636404,0.137939453125,-0.94921875,0.302734375,-6.732824427480916,13.877862595419847,-5.9541984732824424
1747985873.6636417,0.066650390625,-0.9990234375,0.279296875,-7.137404580152672,8.435114503816793,-8.541984732824428
1747985873.7636397,0.055908203125,-1.0029296875,0.2998046875,-3.6030534351145036,7.862595419847328,3.4885496183206106
1747985873.8636403,0.130615234375,-0.9736328125,0.279296875,-5.847328244274809,7.99236641221374,0.5648854961832062
1747985873.9636402,0.068115234375,-1.006591796875,0.275146484375,-2.9236641221374047,11.488549618320612,2.236641221374046
1747985874.0636387,0.054443359375,-0.9755859375,0.2744140625,-2.053435114503817,4.190839694656488,2.2213740458015265
1747985874.16364,0.1103515625,-0.97216796875,0.277099609375,-3.435114503816794,-2.564885496183206,-1.4045801526717556
1747985874.26364,0.052001953125,-1.044921875,0.2841796875,-6.099236641221374,7.022900763358779,5.6183206106870225
1747985874.36364,0.083740234375,-0.983154296875,0.2607421875,-3.801526717557252,2.1603053435114505,9.076335877862595
1747985874.463641,0.113525390625,-1.049560546875,0.34228515625,11.931297709923664,-4.297709923664122,5.099236641221374
1747985874.5636396,0.1123046875,-0.9638671875,0.28515625,14.702290076335878,-14.045801526717558,-6.229007633587786
1747985874.6636388,0.138671875,-0.987548828125,0.32470703125,5.091603053435114,-0.9236641221374046,-3.6412213740458017
1747985874.763639,0.1103515625,-0.93603515625,0.32763671875,-0.5114503816793893,4.343511450381679,-0.7786259541984732
1747985874.8636396,0.082275390625,-0.98828125,0.288330078125,-1.3435114503816794,-14.641221374045802,0.5648854961832062
1747985874.9636402,0.125732421875,-0.98974609375,0.33544921875,2.9770992366412212,-2.6717557251908395,0.48854961832061067
1747985875.0636404,0.0966796875,-0.964111328125,0.319091796875,1.2366412213740459,-3.0381679389312977,2.3587786259541983
1747985875.1636398,0.091552734375,-0.971923828125,0.33056640625,-0.8931297709923665,-3.2900763358778624,1.7633587786259541
1747985875.2636402,0.12548828125,-0.9560546875,0.336669921875,-0.03816793893129771,-2.7404580152671754,0.06870229007633588
1747985875.3636396,0.113525390625,-0.94189453125,0.332275390625,-4.106870229007634,-0.3969465648854962,-2.0763358778625953
1747985875.4636405,0.080322265625,-0.968994140625,0.352783203125,-4.015267175572519,1.83206106870229,-2.0381679389312977
1747985875.5636437,0.091796875,-0.966552734375,0.338623046875,-2.3435114503816794,2.5343511450381677,-1.2748091603053435
1747985875.6636395,0.08203125,-0.9638671875,0.340087890625,-1.8473282442748091,3.3282442748091605,-1.7786259541984732
1747985875.7636395,0.05859375,-0.9091796875,0.278564453125,-3.900763358778626,1.0687022900763359,-4.8320610687022905
1747985875.86364,0.105224609375,-1.007568359375,0.255859375,-25.755725190839694,3.366412213740458,1.6641221374045803
1747985875.9636397,0.067626953125,-0.964111328125,0.312255859375,-0.6793893129770993,-0.3969465648854962,-2.8091603053435112
1747985876.0636392,0.09375,-1.006103515625,0.271728515625,-4.076335877862595,-4.450381679389313,0.8320610687022901
1747985876.1636398,0.09765625,-0.984619140625,0.28369140625,-0.7480916030534351,-5.641221374045801,-1.3969465648854962
1747985876.2636392,0.09375,-0.97412109375,0.265869140625,-3.8931297709923665,-4.641221374045801,-0.8702290076335878
1747985876.363639,0.098876953125,-0.98193359375,0.282958984375,-1.6641221374045803,-2.7557251908396947,-2.6946564885496183
1747985876.4636412,0.08984375,-0.997314453125,0.267578125,-2.9618320610687023,-3.33587786259542,-1.0763358778625953
1747985876.5636396,0.08642578125,-0.993408203125,0.266845703125,-0.9465648854961832,-5.183206106870229,-0.8854961832061069
1747985876.6636403,0.091552734375,-0.99365234375,0.269287109375,0.3893129770992366,-6.977099236641221,1.900763358778626
1747985876.76364,0.10791015625,-0.977294921875,0.26904296875,-0.07633587786259542,-7.343511450381679,-0.7938931297709924
1747985876.8636405,0.095703125,-0.98876953125,0.270751953125,-1.1755725190839694,-5.221374045801527,-0.16030534351145037
1747985876.96364,0.086669921875,-0.97998046875,0.26416015625,-2.8931297709923665,-3.83206106870229,0.25190839694656486
1747985877.0636408,0.123046875,-0.988037109375,0.26220703125,-2.045801526717557,-4.2748091603053435,-1.2061068702290076
1747985877.1636398,0.114990234375,-0.987060546875,0.260009765625,-0.4732824427480916,-2.648854961832061,-1.7938931297709924
1747985877.2636397,0.096923828125,-0.988037109375,0.259033203125,-0.9618320610687023,0.022900763358778626,-0.8015267175572519
1747985877.3636396,0.1064453125,-0.991943359375,0.271728515625,-2.6412213740458017,1.015267175572519,0.4580152671755725
1747985877.4636412,0.1103515625,-0.985595703125,0.281005859375,-2.7404580152671754,0.7633587786259542,-1.618320610687023
1747985877.5636418,0.095458984375,-0.975341796875,0.281494140625,-3.0,1.7251908396946565,-1.9541984732824427
1747985877.663643,0.1015625,-0.99267578125,0.262939453125,0.2748091603053435,3.6030534351145036,-1.534351145038168
1747985877.7636435,0.10498046875,-0.986572265625,0.260498046875,-0.5801526717557252,3.6793893129770994,-1.702290076335878
1747985877.8636434,0.078125,-0.99365234375,0.257080078125,-0.3816793893129771,-0.3816793893129771,-1.9465648854961832
1747985877.9636436,0.07958984375,-0.977783203125,0.275146484375,-3.2977099236641223,-4.343511450381679,-1.0076335877862594
1747985878.0636451,0.102783203125,-0.994384765625,0.270263671875,-0.9541984732824428,-2.2595419847328246,-0.8778625954198473
1747985878.1636436,0.103759765625,-0.987548828125,0.253173828125,-0.40458015267175573,0.7022900763358778,-0.7862595419847328
1747985878.263643,0.08935546875,-0.98974609375,0.258056640625,-1.2061068702290076,-0.4122137404580153,-1.3587786259541985
1747985878.363647,0.10498046875,-0.989501953125,0.273681640625,-3.213740458015267,-0.5954198473282443,-0.1297709923664122
1747985878.4636457,0.123779296875,-1.000732421875,0.258056640625,-2.8473282442748094,2.6412213740458017,-1.2290076335877862
1747985878.5636432,0.09716796875,-0.992919921875,0.260009765625,-0.648854961832061,2.0076335877862594,-1.2213740458015268
1747985878.6636453,0.10107421875,-0.991455078125,0.2578125,0.549618320610687,1.5725190839694656,-2.0839694656488548
1747985878.7636445,0.085693359375,-0.99755859375,0.257080078125,-1.083969465648855,1.213740458015267,-2.3587786259541983
1747985878.8636453,0.0966796875,-0.982177734375,0.249755859375,-1.9083969465648856,0.37404580152671757,-0.9694656488549618
1747985878.963645,0.09814453125,-0.98828125,0.254150390625,-0.9770992366412213,-0.1450381679389313,-1.3435114503816794
1747985879.0636451,0.106201171875,-0.995849609375,0.262451171875,0.29770992366412213,-0.183206106870229,-1.4274809160305344
1747985879.163647,0.10791015625,-0.975830078125,0.279296875,-0.48854961832061067,-0.6183206106870229,-0.9694656488549618
1747985879.2636452,0.101806640625,-0.989501953125,0.261474609375,-1.717557251908397,-0.4961832061068702,-1.3206106870229009
1747985879.3636456,0.078125,-0.993896484375,0.256103515625,-0.8549618320610687,-0.2595419847328244,-1.6717557251908397
1747985879.4636455,0.104736328125,-0.986572265625,0.272216796875,0.7938931297709924,-1.1221374045801527,-1.1450381679389312
1747985879.5636451,0.1005859375,-0.98828125,0.273193359375,0.5267175572519084,-0.7404580152671756,0.08396946564885496
1747985879.6636465,0.095703125,-0.991943359375,0.27783203125,-0.9847328244274809,-0.06870229007633588,-0.6030534351145038
1747985879.7636454,0.10107421875,-0.989501953125,0.2783203125,0.32061068702290074,0.2595419847328244,-1.5954198473282444
1747985879.863657,0.096923828125,-0.980712890625,0.2734375,0.2595419847328244,-0.1450381679389313,-1.0076335877862594
1747985879.9636462,0.09228515625,-0.9833984375,0.27294921875,-0.24427480916030533,0.5877862595419847,-0.6259541984732825
1747985880.063645,0.09619140625,-0.982666015625,0.29052734375,-0.26717557251908397,0.5572519083969466,-0.7404580152671756
1747985880.1636462,0.09619140625,-0.984130859375,0.289306640625,-1.3587786259541985,-0.3893129770992366,-1.2213740458015268
1747985880.2636452,0.096435546875,-0.98779296875,0.2822265625,-1.3511450381679388,-1.2366412213740459,-0.916030534351145
1747985880.3636448,0.099853515625,-0.984130859375,0.282470703125,-1.5801526717557253,-2.282442748091603,-0.48091603053435117
1747985880.4636455,0.096923828125,-0.974365234375,0.268798828125,-2.0076335877862594,-1.3969465648854962,-1.1068702290076335
1747985880.5636451,0.102783203125,-0.985107421875,0.290283203125,-1.0534351145038168,-0.9770992366412213,-1.0534351145038168
1747985880.6636457,0.094970703125,-0.984130859375,0.275146484375,-0.5267175572519084,-0.8320610687022901,-1.1908396946564885
1747985880.7636445,0.098388671875,-0.981201171875,0.266357421875,-1.1908396946564885,0.5267175572519084,-0.9847328244274809
1747985880.863645,0.093994140625,-0.981201171875,0.26220703125,-1.6717557251908397,0.4961832061068702,-1.282442748091603
1747985880.9636457,0.094970703125,-0.9892578125,0.266357421875,-1.4045801526717556,0.3511450381679389,-2.015267175572519
1747985881.0636442,0.100341796875,-0.988525390625,0.269287109375,-1.1984732824427482,1.083969465648855,-1.1297709923664123
1747985881.163646,0.107666015625,-0.985595703125,0.27099609375,-1.8244274809160306,0.5267175572519084,-0.8396946564885496
1747985881.263645,0.10302734375,-0.982177734375,0.27978515625,-0.5343511450381679,0.35877862595419846,-1.0
1747985881.3636448,0.103515625,-0.98193359375,0.2734375,-0.32061068702290074,0.9541984732824428,-1.4198473282442747
1747985881.463647,0.108642578125,-0.97216796875,0.28369140625,-2.015267175572519,1.213740458015267,-1.4274809160305344
1747985881.563645,0.096435546875,-1.00927734375,0.266357421875,-3.0076335877862594,-0.3435114503816794,-1.1297709923664123
1747985881.6636467,0.08251953125,-0.9814453125,0.272705078125,-0.6030534351145038,-1.015267175572519,-0.9618320610687023
1747985881.7636535,0.0927734375,-0.99951171875,0.281494140625,-0.061068702290076333,-0.7175572519083969,-1.0458015267175573
1747985881.863648,0.097412109375,-0.980712890625,0.277587890625,-0.46564885496183206,-1.3969465648854962,-0.8702290076335878
1747985881.963641,0.10302734375,-0.98388671875,0.278076171875,-1.1526717557251909,-0.31297709923664124,-1.1908396946564885
1747985882.0636446,0.106689453125,-0.995849609375,0.275146484375,-0.816793893129771,0.48854961832061067,-1.3435114503816794
1747985882.163644,0.097900390625,-0.99072265625,0.275146484375,-0.9465648854961832,1.0916030534351144,-1.4885496183206106
1747985882.2636423,0.09619140625,-0.991943359375,0.279296875,-2.1297709923664123,0.0916030534351145,-1.6870229007633588
1747985882.3636415,0.095703125,-0.992919921875,0.281982421875,-1.1755725190839694,-0.9923664122137404,-1.6412213740458015
1747985882.463641,0.10009765625,-0.99462890625,0.2724609375,-0.9236641221374046,-0.7099236641221374,-0.5267175572519084
1747985882.563652,0.102783203125,-0.985595703125,0.2705078125,-1.213740458015267,-0.7404580152671756,-0.16793893129770993
1747985882.6636531,0.10205078125,-0.98486328125,0.263671875,-1.4122137404580153,-0.8625954198473282,-0.3053435114503817
1747985882.7636492,0.098876953125,-0.995361328125,0.2802734375,-1.8625954198473282,-0.6106870229007634,-0.20610687022900764
1747985882.863565,0.097900390625,-0.986083984375,0.278564453125,-1.2900763358778626,0.6793893129770993,-0.8015267175572519
1747985882.963642,0.0986328125,-0.985107421875,0.27099609375,-2.030534351145038,1.6717557251908397,-0.3511450381679389
1747985883.0636392,0.098876953125,-0.989013671875,0.27685546875,-1.5114503816793894,0.9618320610687023,-1.4351145038167938
1747985883.163639,0.09423828125,-0.990234375,0.26953125,-1.5038167938931297,0.916030534351145,-2.015267175572519
1747985883.2636387,0.085205078125,-0.98828125,0.27001953125,-1.9923664122137406,1.0687022900763359,-1.6412213740458015
1747985883.3636377,0.096923828125,-0.98974609375,0.272705078125,-1.3282442748091603,0.3969465648854962,-1.099236641221374
1747985883.4636383,0.10107421875,-0.984375,0.267822265625,-1.015267175572519,0.13740458015267176,-0.9923664122137404
1747985883.5636382,0.093994140625,-0.988037109375,0.251708984375,-1.3206106870229009,0.11450381679389313,-1.0687022900763359
1747985883.6636376,0.103271484375,-0.991943359375,0.265625,-0.7557251908396947,-0.366412213740458,-0.8244274809160306
1747985883.7636173,0.1015625,-0.987548828125,0.26220703125,-1.3129770992366412,-0.8244274809160306,-1.1374045801526718
1747985883.8636384,0.09130859375,-0.997314453125,0.2705078125,-2.1297709923664123,-1.2366412213740459,-1.4122137404580153
1747985883.9636395,0.09814453125,-0.98388671875,0.26171875,-2.7099236641221376,-1.9923664122137406,-1.1374045801526718
1747985884.0636387,0.10498046875,-0.981689453125,0.25537109375,-4.587786259541985,-2.404580152671756,-0.9618320610687023
1747985884.1636384,0.10888671875,-0.990966796875,0.248779296875,-4.862595419847328,-2.8396946564885495,-1.534351145038168
1747985884.263638,0.125732421875,-0.98095703125,0.25732421875,-4.137404580152672,-0.7709923664122137,-3.6717557251908395
1747985884.363638,0.140380859375,-0.98388671875,0.25244140625,-3.145038167938931,-2.8396946564885495,-6.740458015267175
1747985884.4636383,0.118896484375,-1.0107421875,0.25341796875,-1.6259541984732824,-1.5801526717557253,-8.65648854961832
1747985884.563638,0.154052734375,-1.005859375,0.2421875,0.549618320610687,-3.6030534351145036,-10.045801526717558
1747985884.663638,0.139892578125,-1.0,0.24365234375,1.3206106870229009,-0.9007633587786259,-7.595419847328245
1747985884.7636378,0.14697265625,-0.983642578125,0.260498046875,1.5190839694656488,-0.37404580152671757,-6.404580152671755
1747985884.863586,0.15673828125,-0.991943359375,0.252685546875,1.549618320610687,-3.3206106870229006,-7.900763358778626
1747985884.963639,0.17578125,-0.99365234375,0.25634765625,2.282442748091603,0.26717557251908397,-5.847328244274809
1747985885.0636382,0.1826171875,-0.983154296875,0.262939453125,0.7709923664122137,2.5572519083969465,-1.213740458015267
1747985885.1636379,0.168212890625,-0.9853515625,0.25732421875,1.083969465648855,3.2748091603053435,-1.0076335877862594
1747985885.2636383,0.150146484375,-0.97998046875,0.26318359375,-0.08396946564885496,4.3893129770992365,0.9541984732824428
1747985885.3636425,0.142578125,-1.005615234375,0.263427734375,-2.50381679389313,3.49618320610687,5.465648854961832
1747985885.4636586,0.15234375,-0.97900390625,0.263916015625,-1.7328244274809161,5.847328244274809,3.114503816793893
1747985885.5636477,0.166259765625,-0.973388671875,0.288330078125,-5.557251908396947,7.7251908396946565,-0.13740458015267176
1747985885.6636822,0.068603515625,-0.985107421875,0.228271484375,-5.267175572519084,4.6183206106870225,-3.1297709923664123
1747985885.7636435,0.109130859375,-1.01513671875,0.228271484375,-3.8244274809160306,-4.2748091603053435,-0.9312977099236641
1747985885.8636498,0.15869140625,-1.02294921875,0.277099609375,-2.053435114503817,1.366412213740458,6.450381679389313
1747985885.9636557,0.0703125,-0.982421875,0.271240234375,4.0534351145038165,3.4656488549618323,14.641221374045802
1747985886.0636427,0.139404296875,-0.9931640625,0.29296875,-4.198473282442748,-1.0076335877862594,3.6030534351145036
1747985886.1636488,0.102783203125,-0.989990234375,0.27197265625,-2.1908396946564888,0.26717557251908397,1.9770992366412214
1747985886.2636764,0.1171875,-1.00634765625,0.268310546875,0.9236641221374046,-10.206106870229007,1.633587786259542
1747985886.3636494,0.10205078125,-0.97900390625,0.25439453125,3.5419847328244276,-1.4045801526717556,5.190839694656488
1747985886.4636548,0.1357421875,-1.0146484375,0.291015625,1.4122137404580153,-5.488549618320611,-1.900763358778626
1747985886.5636535,0.079833984375,-0.92431640625,0.254638671875,24.068702290076335,-11.854961832061068,-12.717557251908397
1747985886.663653,0.138427734375,-0.98583984375,0.377685546875,12.740458015267176,5.694656488549619,-6.885496183206107
1747985886.7636523,0.095458984375,-0.935546875,0.31298828125,-6.358778625954199,11.404580152671755,-2.687022900763359
1747985886.8636544,0.1240234375,-1.013916015625,0.321044921875,2.0916030534351147,10.122137404580153,0.4122137404580153
1747985886.9636667,0.162353515625,-0.9677734375,0.318359375,-0.11450381679389313,18.16030534351145,-2.2213740458015265
1747985887.0636487,0.09912109375,-0.966796875,0.33837890625,-3.549618320610687,16.82442748091603,-4.091603053435114
1747985887.163645,0.09521484375,-0.9580078125,0.32470703125,-4.717557251908397,13.793893129770993,-2.83206106870229
1747985887.2636554,0.118408203125,-0.977294921875,0.315185546875,-4.244274809160306,10.32824427480916,-4.969465648854962
1747985887.3636758,0.070068359375,-0.951904296875,0.315673828125,-5.251908396946565,6.0458015267175576,-6.580152671755725
1747985887.4636574,0.093017578125,-1.0458984375,0.389404296875,-18.984732824427482,1.1755725190839694,4.374045801526718
1747985887.5636477,0.123779296875,-0.9755859375,0.311279296875,-6.343511450381679,-2.618320610687023,2.7709923664122136
1747985887.6636446,0.0771484375,-0.96826171875,0.282958984375,0.20610687022900764,-6.633587786259542,1.6717557251908397
1747985887.7636473,0.07861328125,-0.98779296875,0.283935546875,-0.12213740458015267,-10.473282442748092,1.4351145038167938
1747985887.8636446,0.095703125,-0.974365234375,0.296630859375,0.6030534351145038,-10.351145038167939,2.717557251908397
1747985887.963643,0.07861328125,-0.984375,0.287841796875,-1.0,-9.854961832061068,1.7099236641221374
1747985888.0636427,0.10986328125,-0.98681640625,0.2890625,-0.6793893129770993,-6.854961832061068,0.6030534351145038
1747985888.1636431,0.095703125,-0.983642578125,0.29638671875,-0.6564885496183206,-5.534351145038168,0.2595419847328244
1747985888.2636423,0.101318359375,-0.978759765625,0.28857421875,-0.648854961832061,-3.4122137404580153,-0.3435114503816794
1747985888.3636422,0.10693359375,-0.987060546875,0.30126953125,-1.183206106870229,-1.0458015267175573,-0.9923664122137404
1747985888.4636426,0.091552734375,-0.97607421875,0.30224609375,-0.8015267175572519,0.24427480916030533,-0.9007633587786259
1747985888.5636423,0.08203125,-0.97607421875,0.298095703125,-2.984732824427481,2.236641221374046,-0.33587786259541985
1747985888.6636426,0.089111328125,-0.979248046875,0.306884765625,-2.213740458015267,4.862595419847328,-1.465648854961832
1747985888.7636433,0.0908203125,-0.976318359375,0.288818359375,-1.5267175572519085,4.969465648854962,-2.5343511450381677
1747985888.863643,0.07568359375,-0.98095703125,0.27734375,-1.7786259541984732,3.519083969465649,-3.267175572519084
1747985888.9636426,0.085205078125,-0.999267578125,0.276123046875,-3.687022900763359,1.7786259541984732,-2.2748091603053435
1747985889.063643,0.068115234375,-0.979248046875,0.279052734375,-1.6030534351145038,1.3511450381679388,-2.0229007633587788
1747985889.163644,0.08056640625,-0.988525390625,0.294921875,-0.4351145038167939,-0.6030534351145038,-0.35877862595419846
1747985889.2636435,0.084228515625,-0.98876953125,0.2900390625,-0.648854961832061,-2.8396946564885495,0.29770992366412213
1747985889.3636434,0.10888671875,-0.99169921875,0.28857421875,1.1450381679389312,-3.4122137404580153,-0.816793893129771
1747985889.4636426,0.08984375,-0.97705078125,0.30224609375,0.0916030534351145,-2.6717557251908395,-0.4580152671755725
1747985889.5636425,0.093994140625,-0.993408203125,0.2890625,-2.16793893129771,-2.045801526717557,-0.2595419847328244
1747985889.6636431,0.120849609375,-0.974609375,0.28662109375,0.9389312977099237,0.8244274809160306,-1.1297709923664123
1747985889.763643,0.083251953125,-0.975341796875,0.290283203125,0.6564885496183206,0.5343511450381679,-2.0763358778625953
1747985889.863642,0.087890625,-0.982421875,0.30322265625,-0.6259541984732825,1.6106870229007633,-2.2977099236641223
1747985889.9636512,0.076904296875,-0.983154296875,0.300048828125,-1.8244274809160306,1.3206106870229009,-2.0763358778625953
1747985890.0636454,0.085693359375,-0.97607421875,0.304443359375,-0.9236641221374046,1.3435114503816794,-1.6870229007633588
1747985890.1636434,0.083984375,-0.979248046875,0.30126953125,-0.9923664122137404,1.2366412213740459,-1.1450381679389312
1747985890.2636425,0.0859375,-0.97998046875,0.29150390625,0.09923664122137404,0.32061068702290074,-1.0458015267175573
1747985890.363643,0.093505859375,-0.98095703125,0.299560546875,-1.2061068702290076,-0.31297709923664124,-0.8473282442748091
1747985890.4636426,0.08447265625,-0.98828125,0.290771484375,-1.282442748091603,-0.4122137404580153,-1.099236641221374
1747985890.5636425,0.082763671875,-0.982177734375,0.296630859375,-2.053435114503817,-1.0229007633587786,-0.8702290076335878
1747985890.6636484,0.08056640625,-0.97314453125,0.28515625,-1.0610687022900764,-1.213740458015267,-0.9694656488549618
1747985890.7636478,0.08447265625,-0.978271484375,0.3017578125,-0.6717557251908397,-0.8473282442748091,-0.7786259541984732
1747985890.8636446,0.106689453125,-0.99609375,0.304931640625,-0.22900763358778625,-0.42748091603053434,-1.083969465648855
1747985890.9636467,0.08642578125,-0.990478515625,0.2939453125,-1.0,0.3053435114503817,-1.3893129770992367
1747985891.0636432,0.086181640625,-0.954345703125,0.292724609375,-2.2519083969465647,1.1374045801526718,-0.8320610687022901
1747985891.1636438,0.092041015625,-0.982666015625,0.305419921875,-2.9389312977099236,0.3816793893129771,-1.282442748091603
1747985891.2636428,0.08642578125,-0.982666015625,0.30029296875,-2.114503816793893,1.099236641221374,-1.702290076335878
1747985891.3636467,0.085693359375,-0.98974609375,0.303466796875,-0.44274809160305345,1.4198473282442747,-2.122137404580153
1747985891.4636467,0.077880859375,-0.9912109375,0.295166015625,-0.5877862595419847,0.8015267175572519,-1.3358778625954197
1747985891.5636463,0.08544921875,-0.9775390625,0.284912109375,-0.9312977099236641,-0.7099236641221374,-0.916030534351145
1747985891.6636467,0.0888671875,-0.986572265625,0.2939453125,-0.9083969465648855,-0.8015267175572519,-1.0076335877862594
1747985891.7636461,0.086669921875,-0.995361328125,0.29931640625,-1.3969465648854962,-1.2671755725190839,-0.9923664122137404
1747985891.8636487,0.090576171875,-0.984130859375,0.302734375,-1.0458015267175573,-1.4122137404580153,-1.0610687022900764
1747985891.963645,0.090576171875,-0.969970703125,0.28173828125,-0.8320610687022901,-1.0610687022900764,-1.1145038167938932
1747985892.0636446,0.097900390625,-0.98046875,0.303466796875,-0.9618320610687023,-0.1450381679389313,-1.1450381679389312
1747985892.1636481,0.087890625,-0.984130859375,0.295166015625,-0.3969465648854962,-0.1450381679389313,-1.4427480916030535
1747985892.263648,0.08544921875,-0.984130859375,0.304443359375,0.0,0.26717557251908397,-1.4580152671755726
1747985892.3636448,0.0908203125,-0.9775390625,0.298583984375,-0.7938931297709924,0.4122137404580153,-1.282442748091603
1747985892.4636452,0.08447265625,-0.976318359375,0.297607421875,-0.7022900763358778,0.31297709923664124,-1.083969465648855
1747985892.5636475,0.09033203125,-0.97705078125,0.300048828125,-1.1450381679389312,-0.0916030534351145,-1.1221374045801527
1747985892.6636446,0.092041015625,-0.98388671875,0.301025390625,-0.9465648854961832,-0.3893129770992366,-1.0076335877862594
1747985892.763644,0.097412109375,-0.97705078125,0.309326171875,-0.7862595419847328,-0.04580152671755725,-1.0534351145038168
1747985892.8636527,0.106201171875,-0.983154296875,0.30419921875,-0.7786259541984732,-0.25190839694656486,-1.1145038167938932
1747985892.9636462,0.092041015625,-0.97998046875,0.29931640625,-0.8625954198473282,0.21374045801526717,-1.3282442748091603
1747985893.0636444,0.089111328125,-0.988037109375,0.307861328125,-1.4885496183206106,0.3053435114503817,-1.1068702290076335
1747985893.163645,0.084228515625,-0.98681640625,0.306884765625,-0.732824427480916,0.2824427480916031,-1.1984732824427482
1747985893.2636456,0.0849609375,-0.982177734375,0.301513671875,-1.0610687022900764,0.33587786259541985,-0.8931297709923665
1747985893.3636456,0.092041015625,-0.984375,0.30810546875,-1.0305343511450382,0.1450381679389313,-0.8244274809160306
1747985893.4636455,0.0830078125,-0.975830078125,0.30224609375,-1.6488549618320612,-0.12213740458015267,-1.0610687022900764
1747985893.5636673,0.0927734375,-0.984375,0.297119140625,-1.366412213740458,-0.3969465648854962,-1.2595419847328244
1747985893.6636467,0.085205078125,-0.98876953125,0.2939453125,-0.6793893129770993,-0.061068702290076333,-1.0610687022900764
1747985893.7636456,0.089111328125,-0.974609375,0.300048828125,-0.7404580152671756,0.030534351145038167,-1.083969465648855
1747985893.8636448,0.087646484375,-0.984375,0.29736328125,-1.2900763358778626,0.31297709923664124,-1.4198473282442747
1747985893.9636445,0.086181640625,-0.9794921875,0.29541015625,-1.5648854961832062,0.09923664122137404,-1.0229007633587786
1747985894.0636477,0.07763671875,-0.979736328125,0.305419921875,-1.3129770992366412,-0.25190839694656486,-1.1145038167938932
1747985894.1636477,0.089599609375,-0.98095703125,0.29296875,-1.2671755725190839,-0.22900763358778625,-0.9541984732824428
1747985894.2636445,0.083740234375,-0.982177734375,0.306396484375,-1.3358778625954197,-0.42748091603053434,-1.3129770992366412
1747985894.3636448,0.08642578125,-0.98193359375,0.287353515625,-1.4961832061068703,-0.3969465648854962,-1.1603053435114503
1747985894.463644,0.085693359375,-0.984130859375,0.30859375,-1.6870229007633588,-0.2748091603053435,-1.099236641221374
1747985894.5636473,0.083740234375,-0.983642578125,0.29833984375,-1.7328244274809161,-0.3816793893129771,-1.1297709923664123
1747985894.6636453,0.084716796875,-0.982177734375,0.301025390625,-1.5725190839694656,-0.31297709923664124,-1.183206106870229
1747985894.7636461,0.078369140625,-0.976806640625,0.28857421875,-1.4351145038167938,-2.114503816793893,-0.3893129770992366
1747985894.863646,0.08447265625,-0.977294921875,0.295654296875,-1.366412213740458,-2.7251908396946565,-0.06870229007633588
1747985894.9636464,0.09521484375,-0.988525390625,0.299560546875,-3.5343511450381677,-1.8549618320610688,-1.1450381679389312
1747985895.0636468,0.099853515625,-0.966796875,0.2734375,2.1755725190839694,-1.7328244274809161,-0.1297709923664122
1747985895.1636474,0.1064453125,-0.97412109375,0.282470703125,0.549618320610687,1.1984732824427482,-2.816793893129771
1747985895.263648,0.079345703125,-0.974365234375,0.3056640625,-1.1984732824427482,3.5114503816793894,-3.045801526717557
1747985895.3636448,0.0478515625,-1.00927734375,0.311767578125,0.6335877862595419,-4.32824427480916,-0.3816793893129771
1747985895.4636443,0.113525390625,-0.944580078125,0.283447265625,2.435114503816794,-1.3129770992366412,0.7099236641221374
1747985895.5636506,0.11474609375,-0.9755859375,0.295166015625,-1.015267175572519,14.84732824427481,-2.8625954198473282
