Time(s),AccX,AccY,AccZ,GyrX,GyrY,GyrZ
1.9073486328125e-06,0.06982421875,-1.0029296875,0.06787109375,-0.7709923664122137,-0.06870229007633588,-1.1908396946564885
0.010057687759399414,0.06689453125,-1.003662109375,0.06201171875,-0.7175572519083969,-0.25190839694656486,-1.381679389312977
0.020056486129760742,0.07080078125,-1.002685546875,0.05810546875,-0.2824427480916031,-0.08396946564885496,-1.366412213740458
0.03006744384765625,0.075439453125,-0.99267578125,0.06298828125,-0.29770992366412213,-0.19083969465648856,-1.4122137404580153
0.04005599021911621,0.068603515625,-1.00341796875,0.061279296875,-0.08396946564885496,-0.20610687022900764,-1.4580152671755726
0.050057172775268555,0.068359375,-1.010009765625,0.065185546875,-0.3816793893129771,-0.12213740458015267,-1.2671755725190839
0.06005668640136719,0.06787109375,-1.00439453125,0.06591796875,-0.7099236641221374,-0.030534351145038167,-1.5038167938931297
0.07005667686462402,0.075927734375,-1.0048828125,0.06494140625,-0.5343511450381679,-0.13740458015267176,-1.3587786259541985
0.08005595207214355,0.071533203125,-1.008056640625,0.076416015625,-0.6412213740458015,-0.1450381679389313,-1.4045801526717556
0.09005618095397949,0.067626953125,-1.00634765625,0.065673828125,-0.26717557251908397,0.007633587786259542,-1.2900763358778626
0.10005593299865723,0.0712890625,-0.98486328125,0.053466796875,-0.32061068702290074,-0.183206106870229,-1.4885496183206106
0.11005663871765137,0.0751953125,-1.00634765625,0.06982421875,-0.40458015267175573,-0.21374045801526717,-1.3435114503816794
0.1200559139251709,0.068115234375,-1.008056640625,0.07568359375,-0.48091603053435117,-0.16030534351145037,-1.450381679389313
0.13005566596984863,0.07177734375,-0.995849609375,0.06787109375,-0.6946564885496184,-0.06870229007633588,-1.3358778625954197
0.14005613327026367,0.072509765625,-1.002685546875,0.06494140625,-0.42748091603053434,-1.9541984732824427,-1.5877862595419847
0.1500566005706787,0.06787109375,-1.005126953125,0.0654296875,-0.45038167938931295,0.06870229007633588,-1.1603053435114503
0.16005563735961914,0.06884765625,-1.014892578125,0.0693359375,-0.5190839694656488,-0.24427480916030533,-1.4198473282442747
0.17005658149719238,0.076416015625,-1.001953125,0.066650390625,-0.35877862595419846,-0.15267175572519084,-1.3587786259541985
0.1800553798675537,0.0673828125,-0.98681640625,0.066650390625,-0.33587786259541985,-1.9312977099236641,-1.2366412213740459
0.19005608558654785,0.070068359375,-0.99951171875,0.07421875,-0.08396946564885496,-0.16030534351145037,-1.3740458015267176
0.20005583763122559,0.071533203125,-1.006103515625,0.0732421875,-0.5038167938931297,0.08396946564885496,-1.2900763358778626
0.21005654335021973,0.072021484375,-1.00048828125,0.063720703125,-0.6641221374045801,-0.12213740458015267,-1.3893129770992367
0.22005605697631836,0.072509765625,-0.998291015625,0.06103515625,-0.5572519083969466,-0.05343511450381679,-1.5801526717557253
0.2300558090209961,0.072998046875,-1.01416015625,0.062255859375,-0.5114503816793893,-0.05343511450381679,-1.3053435114503817
0.24005603790283203,0.074462890625,-0.9990234375,0.072021484375,-0.4732824427480916,-0.16030534351145037,-1.3587786259541985
0.25005602836608887,0.07470703125,-1.00634765625,0.060791015625,-0.0916030534351145,-0.15267175572519084,-1.4351145038167938
0.2600564956665039,0.072265625,-0.99951171875,0.070556640625,-0.42748091603053434,-0.07633587786259542,-1.213740458015267
0.27005529403686523,0.067626953125,-1.00732421875,0.064453125,-0.48091603053435117,0.030534351145038167,-1.3129770992366412
0.2800559997558594,0.068359375,-1.00146484375,0.0693359375,-0.5954198473282443,-0.2595419847328244,-1.5725190839694656
0.2900547981262207,0.07470703125,-0.99951171875,0.05810546875,-0.6030534351145038,-1.8931297709923665,-1.3587786259541985
0.30005598068237305,0.0712890625,-0.9921875,0.069091796875,-0.48091603053435117,-0.08396946564885496,-1.4885496183206106
0.3100566864013672,0.068603515625,-0.98828125,0.0693359375,-0.4961832061068702,-0.05343511450381679,-1.3511450381679388
0.3200552463531494,0.06494140625,-1.01513671875,0.066650390625,-0.10687022900763359,-0.015267175572519083,-1.4274809160305344
0.33005619049072266,0.06494140625,-1.002685546875,0.070068359375,-0.16030534351145037,-0.10687022900763359,-1.2366412213740459
0.3400559425354004,0.067626953125,-0.997802734375,0.068603515625,-0.5267175572519084,-0.16030534351145037,-1.2366412213740459
0.3500556945800781,0.073974609375,-0.999755859375,0.07080078125,-0.5648854961832062,-0.0916030534351145,-1.3129770992366412
0.36005520820617676,0.07080078125,-0.999267578125,0.071533203125,-0.5343511450381679,-0.2366412213740458,-1.3206106870229009
0.3700559139251709,0.068359375,-0.9873046875,0.067138671875,-0.6793893129770993,-0.3511450381679389,-1.1984732824427482
0.38005590438842773,0.072509765625,-1.005126953125,0.066162109375,-0.4961832061068702,-0.11450381679389313,-1.4427480916030535
0.39005613327026367,0.06982421875,-1.003173828125,0.065185546875,-0.20610687022900764,-0.1450381679389313,-1.4045801526717556
0.4000551700592041,0.069091796875,-0.997314453125,0.070068359375,-0.1297709923664122,-1.9389312977099236,-1.3969465648854962
0.41005611419677734,0.070068359375,-0.995849609375,0.0673828125,-0.5114503816793893,-0.183206106870229,-1.3129770992366412
0.4200551509857178,0.0693359375,-1.0009765625,0.066162109375,-0.4732824427480916,1.900763358778626,-1.4122137404580153
0.430056095123291,0.07666015625,-1.001708984375,0.0625,-0.648854961832061,-0.05343511450381679,-1.366412213740458
0.44005537033081055,0.064697265625,-1.006103515625,0.065673828125,-0.4351145038167939,-0.13740458015267176,-1.3358778625954197
0.4500560760498047,0.0703125,-1.014404296875,0.07373046875,-0.6259541984732825,-1.9541984732824427,-1.450381679389313
0.4600560665130615,0.068359375,-1.00244140625,0.069091796875,-0.46564885496183206,-0.09923664122137404,-1.465648854961832
0.47005534172058105,0.0693359375,-1.00341796875,0.07421875,-0.15267175572519084,-1.9541984732824427,-1.4122137404580153
0.4800560474395752,0.071044921875,-1.000244140625,0.06884765625,-0.37404580152671757,1.8854961832061068,-1.3969465648854962
0.49005627632141113,0.068115234375,-0.999755859375,0.0693359375,-0.2366412213740458,-0.1297709923664122,-1.4198473282442747
0.5000557899475098,0.06982421875,-1.00439453125,0.06982421875,-0.46564885496183206,-0.09923664122137404,-1.4732824427480915
0.510056734085083,0.0732421875,-1.00634765625,0.067138671875,-0.5114503816793893,-0.07633587786259542,-1.3969465648854962
0.5200562477111816,0.0625,-1.00439453125,0.07763671875,-0.5038167938931297,0.0,-1.2366412213740459
0.5300559997558594,0.071044921875,-1.001708984375,0.068603515625,-0.5419847328244275,-0.15267175572519084,-1.4045801526717556
0.5400562286376953,0.070556640625,-0.998046875,0.069580078125,-0.5038167938931297,-0.06870229007633588,-1.4732824427480915
0.5500552654266357,0.071533203125,-1.002197265625,0.066162109375,-0.3816793893129771,-0.13740458015267176,-1.2213740458015268
0.5600554943084717,0.07373046875,-1.004150390625,0.0693359375,-0.35877862595419846,-0.24427480916030533,-1.2748091603053435
0.5700559616088867,0.070556640625,-1.001953125,0.06689453125,-0.4351145038167939,-0.16030534351145037,-1.4732824427480915
0.5800554752349854,0.071533203125,-1.015625,0.072509765625,-0.366412213740458,-0.1297709923664122,-1.2900763358778626
0.5900561809539795,0.068603515625,-1.002685546875,0.0654296875,-0.5343511450381679,-0.11450381679389313,-1.381679389312977
0.6000556945800781,0.07080078125,-1.00146484375,0.059326171875,-0.6641221374045801,-0.0916030534351145,-1.3511450381679388
0.6100573539733887,0.06689453125,-1.000732421875,0.063232421875,-0.366412213740458,0.007633587786259542,-1.282442748091603
0.6200559139251709,0.071044921875,-1.003173828125,0.068359375,-0.5114503816793893,0.11450381679389313,-1.450381679389313
0.6300568580627441,0.0693359375,-1.004638671875,0.074462890625,-0.15267175572519084,0.1297709923664122,-1.1908396946564885
0.6400558948516846,0.070068359375,-0.999755859375,0.067626953125,-0.3511450381679389,-0.15267175572519084,-1.4580152671755726
0.6500561237335205,0.0654296875,-1.00244140625,0.068603515625,-0.5954198473282443,-0.1450381679389313,-1.3435114503816794
0.660057544708252,0.072509765625,-1.002197265625,0.06298828125,-0.3969465648854962,-0.03816793893129771,-1.3740458015267176
0.6700649261474609,0.0693359375,-1.00048828125,0.062744140625,-0.40458015267175573,1.9236641221374047,-1.2061068702290076
0.6800565719604492,0.0654296875,-1.00146484375,0.053955078125,-0.5343511450381679,-0.061068702290076333,-1.4961832061068703
0.690056562423706,0.0712890625,-1.00439453125,0.07177734375,-0.3511450381679389,-0.13740458015267176,-1.3893129770992367
0.7000565528869629,0.06787109375,-1.0009765625,0.065673828125,-0.4961832061068702,-0.08396946564885496,-1.4274809160305344
0.7100560665130615,0.0693359375,-1.001708984375,0.073486328125,-0.5648854961832062,-0.25190839694656486,-1.3358778625954197
0.7200560569763184,0.06884765625,-1.001708984375,0.059814453125,-0.29770992366412213,-0.15267175572519084,-1.3358778625954197
0.7300562858581543,0.0732421875,-1.002685546875,0.0634765625,-0.5038167938931297,-0.22900763358778625,-1.366412213740458
0.7400565147399902,0.067626953125,-1.00244140625,0.072265625,-0.5267175572519084,-0.11450381679389313,-1.2595419847328244
0.7500560283660889,0.0751953125,-1.0009765625,0.070556640625,-0.4732824427480916,-1.9083969465648856,-1.3129770992366412
0.7600584030151367,0.06640625,-1.00390625,0.072509765625,-0.5648854961832062,-0.2748091603053435,-1.3740458015267176
0.7700543403625488,0.069580078125,-1.007568359375,0.067138671875,-0.25190839694656486,-1.9465648854961832,-1.5190839694656488
0.7800543308258057,0.073486328125,-1.006103515625,0.069091796875,-0.4961832061068702,-0.1297709923664122,-1.2290076335877862
0.7900567054748535,0.072509765625,-1.0087890625,0.065185546875,-0.5267175572519084,-0.04580152671755725,-1.3206106870229009
0.8000540733337402,0.069091796875,-1.005126953125,0.077392578125,-0.7709923664122137,0.015267175572519083,-1.1908396946564885
0.8100552558898926,0.0732421875,-1.013916015625,0.07275390625,-0.32061068702290074,0.10687022900763359,-1.2671755725190839
0.820054292678833,0.069091796875,-0.992431640625,0.064697265625,-0.4580152671755725,-0.07633587786259542,-1.3206106870229009
0.8300542831420898,0.064208984375,-1.001220703125,0.071044921875,-0.48091603053435117,-0.1984732824427481,-1.4045801526717556
0.8400542736053467,0.075439453125,-1.001708984375,0.0625,-0.366412213740458,0.07633587786259542,-1.3893129770992367
0.8500545024871826,0.0693359375,-1.00390625,0.06201171875,-0.45038167938931295,-0.09923664122137404,-1.3282442748091603
0.8600540161132812,0.070068359375,-0.9970703125,0.063232421875,-0.35877862595419846,-0.2824427480916031,-1.4961832061068703
0.8700547218322754,0.06982421875,-1.00048828125,0.07763671875,-0.48091603053435117,-0.11450381679389313,-1.381679389312977
0.8800544738769531,0.065185546875,-1.008544921875,0.0634765625,-0.4198473282442748,-0.17557251908396945,-1.4885496183206106
0.8900549411773682,0.070068359375,-1.012451171875,0.074951171875,-0.42748091603053434,-0.11450381679389313,-1.4732824427480915
0.9000539779663086,0.074462890625,-1.004150390625,0.07373046875,-0.5267175572519084,-0.1450381679389313,-1.3740458015267176
0.9100549221038818,0.072509765625,-1.00244140625,0.0654296875,-0.35877862595419846,-0.08396946564885496,-1.2671755725190839
0.9200124740600586,0.07763671875,-1.003173828125,0.066162109375,-0.6641221374045801,-0.08396946564885496,-1.4274809160305344
0.9300544261932373,0.077392578125,-0.998046875,0.068359375,-0.7557251908396947,-0.06870229007633588,-1.1526717557251909
0.9400553703308105,0.073486328125,-1.0048828125,0.072265625,-0.4580152671755725,-0.21374045801526717,-1.4427480916030535
0.9500546455383301,0.0703125,-1.0048828125,0.069091796875,-0.5725190839694656,-0.183206106870229,-1.4885496183206106
0.9600543975830078,0.06982421875,-1.000732421875,0.06640625,-0.33587786259541985,-0.1450381679389313,-1.4122137404580153
0.9700541496276855,0.0703125,-1.006103515625,0.06591796875,-0.46564885496183206,-0.25190839694656486,-1.5114503816793894
0.9800536632537842,0.071533203125,-0.9970703125,0.06640625,-0.4580152671755725,-0.11450381679389313,-1.3893129770992367
0.9900548458099365,0.072998046875,-0.99951171875,0.061767578125,-0.5038167938931297,-0.3435114503816794,-1.2442748091603053
1.000054121017456,0.072998046875,-1.001708984375,0.072998046875,-0.3969465648854962,0.04580152671755725,-1.450381679389313
1.010056972503662,0.0732421875,-1.005126953125,0.063232421875,-0.40458015267175573,-0.13740458015267176,-1.3893129770992367
1.0200550556182861,0.07373046875,-1.0029296875,0.072998046875,-0.17557251908396945,-1.9236641221374047,-1.3969465648854962
1.0300564765930176,0.070068359375,-1.01123046875,0.0478515625,-0.46564885496183206,-0.21374045801526717,-1.4351145038167938
1.0400540828704834,0.07275390625,-1.000244140625,0.061279296875,-0.44274809160305345,-0.22900763358778625,-1.4351145038167938
1.0500545501708984,0.061767578125,-0.99951171875,0.068115234375,-0.2824427480916031,-0.12213740458015267,-1.366412213740458
1.060053825378418,0.0693359375,-0.9990234375,0.065673828125,-0.4961832061068702,-0.24427480916030533,-1.2671755725190839
1.070054531097412,0.071533203125,-1.001953125,0.06884765625,-0.22137404580152673,-0.20610687022900764,-1.3893129770992367
1.0800561904907227,0.06591796875,-0.990966796875,0.07421875,-0.40458015267175573,-0.2595419847328244,-1.3206106870229009
1.0900547504425049,0.074462890625,-1.004638671875,0.064208984375,-0.46564885496183206,-0.1297709923664122,-1.450381679389313
1.1000540256500244,0.07080078125,-1.006591796875,0.066162109375,-0.48854961832061067,-0.030534351145038167,-1.366412213740458
1.1100547313690186,0.075927734375,-1.0,0.0673828125,-0.3435114503816794,-0.12213740458015267,-1.4427480916030535
1.1200544834136963,0.070556640625,-1.001953125,0.06689453125,-0.17557251908396945,-0.1450381679389313,-1.3129770992366412
1.1300544738769531,0.0712890625,-1.00048828125,0.065673828125,-0.4198473282442748,-0.16030534351145037,-1.4427480916030535
1.1400549411773682,0.069580078125,-1.0009765625,0.066162109375,-0.20610687022900764,-0.1984732824427481,-1.534351145038168
1.1500542163848877,0.069580078125,-1.0068359375,0.066650390625,-0.6793893129770993,-1.9541984732824427,-1.282442748091603
1.1600539684295654,0.071533203125,-1.0146484375,0.069580078125,-0.42748091603053434,-0.022900763358778626,-1.4045801526717556
1.1700549125671387,0.0712890625,-0.98974609375,0.068603515625,-0.6717557251908397,-0.12213740458015267,-1.297709923664122
1.1800541877746582,0.06689453125,-1.001220703125,0.072509765625,-0.48091603053435117,-0.06870229007633588,-1.3893129770992367
1.1900544166564941,0.068603515625,-0.999267578125,0.060791015625,-0.549618320610687,1.9083969465648856,-1.3893129770992367
1.2000541687011719,0.068603515625,-1.010498046875,0.064697265625,-0.45038167938931295,0.1297709923664122,-1.3435114503816794
1.210054874420166,0.0732421875,-1.00146484375,0.066650390625,-0.31297709923664124,-0.03816793893129771,-1.3740458015267176
1.2200536727905273,0.066162109375,-1.002197265625,0.06787109375,-0.48854961832061067,-0.17557251908396945,-1.2290076335877862
1.2300102710723877,0.070068359375,-1.00439453125,0.06396484375,-0.7022900763358778,-1.9465648854961832,-1.2595419847328244
1.2400543689727783,0.068603515625,-1.00244140625,0.069580078125,-0.48091603053435117,-0.0916030534351145,-1.366412213740458
1.2500555515289307,0.0703125,-1.004638671875,0.052978515625,-0.5877862595419847,-0.04580152671755725,-1.4198473282442747
1.260054588317871,0.0771484375,-1.006103515625,0.06689453125,-0.5801526717557252,0.08396946564885496,-1.251908396946565
1.2700541019439697,0.066162109375,-1.00048828125,0.06396484375,-0.6641221374045801,0.061068702290076333,-1.2671755725190839
1.2800540924072266,0.067138671875,-1.00634765625,0.069580078125,-0.5038167938931297,-1.9541984732824427,-1.5419847328244274
1.2900547981262207,0.0712890625,-1.001220703125,0.0732421875,-0.3053435114503817,0.07633587786259542,-1.3206106870229009
1.3000540733337402,0.07373046875,-1.006591796875,0.076416015625,-0.42748091603053434,-1.9541984732824427,-1.5038167938931297
1.3100545406341553,0.06884765625,-1.00146484375,0.068115234375,-0.5267175572519084,-0.22137404580152673,-1.3053435114503817
1.320054292678833,0.07275390625,-1.009033203125,0.064208984375,-0.5572519083969466,-0.06870229007633588,-1.3129770992366412
1.330054521560669,0.06982421875,-1.00341796875,0.066162109375,-0.3816793893129771,-0.11450381679389313,-1.3740458015267176
1.3400545120239258,0.069091796875,-1.00439453125,0.0625,-0.7022900763358778,-0.05343511450381679,-1.3587786259541985
1.3500540256500244,0.07177734375,-1.0029296875,0.06396484375,-0.5725190839694656,-0.03816793893129771,-1.3740458015267176
1.3600542545318604,0.069580078125,-1.01220703125,0.06396484375,-0.549618320610687,-0.05343511450381679,-1.366412213740458
1.3700547218322754,0.074951171875,-0.985107421875,0.070556640625,-0.5114503816793893,-0.09923664122137404,-1.4732824427480915
1.380009412765503,0.0693359375,-1.004150390625,0.05078125,-0.366412213740458,0.15267175572519084,-1.3969465648854962
1.3900554180145264,0.073974609375,-1.0048828125,0.0771484375,-0.4122137404580153,-0.04580152671755725,-1.5267175572519085
1.400054693222046,0.071044921875,-0.995849609375,0.072265625,-0.5343511450381679,0.07633587786259542,-1.381679389312977
1.4100546836853027,0.06884765625,-0.999267578125,0.065673828125,-0.5038167938931297,0.061068702290076333,-1.5801526717557253
1.4200546741485596,0.0625,-1.009765625,0.0693359375,-0.2366412213740458,-0.1450381679389313,-1.5038167938931297
1.4300546646118164,0.070556640625,-1.0029296875,0.07177734375,-0.42748091603053434,-0.2824427480916031,-1.5648854961832062
1.440054178237915,0.073486328125,-1.005126953125,0.07421875,-0.33587786259541985,-0.08396946564885496,-1.2900763358778626
1.45005464553833,0.068115234375,-0.992919921875,0.068603515625,-0.5419847328244275,1.9465648854961832,-1.297709923664122
1.460054636001587,0.072998046875,-1.00390625,0.050537109375,-0.48854961832061067,-1.9236641221374047,-1.3358778625954197
1.4700543880462646,0.070556640625,-1.003173828125,0.0654296875,-0.4580152671755725,-0.10687022900763359,-1.3129770992366412
1.4800541400909424,0.07568359375,-0.99755859375,0.060791015625,-0.2366412213740458,0.16793893129770993,-1.3358778625954197
1.4900543689727783,0.063720703125,-1.00048828125,0.06591796875,-0.25190839694656486,-0.05343511450381679,-1.4809160305343512
1.5000543594360352,0.07177734375,-1.001220703125,0.0595703125,-0.20610687022900764,-0.05343511450381679,-1.282442748091603
1.510054111480713,0.07421875,-1.0068359375,0.0673828125,-0.2595419847328244,1.900763358778626,-1.2671755725190839
1.5200541019439697,0.068359375,-1.002197265625,0.068603515625,-0.5877862595419847,-0.12213740458015267,-1.2290076335877862
1.5300540924072266,0.0712890625,-1.005126953125,0.065673828125,-0.3969465648854962,-0.10687022900763359,-1.4351145038167938
1.5400538444519043,0.0703125,-1.0048828125,0.05908203125,-0.48854961832061067,-0.07633587786259542,-1.3740458015267176
1.5500502586364746,0.079833984375,-0.999267578125,0.06640625,-0.3435114503816794,1.9389312977099236,-1.4274809160305344
1.560053825378418,0.0703125,-1.00634765625,0.06298828125,-0.5267175572519084,0.04580152671755725,-1.3511450381679388
1.5700562000274658,0.073486328125,-1.003173828125,0.063232421875,-0.3893129770992366,0.04580152671755725,-1.3740458015267176
1.5800542831420898,0.07373046875,-1.006103515625,0.050537109375,-0.37404580152671757,-0.1297709923664122,-1.3206106870229009
1.5900545120239258,0.0712890625,-1.001708984375,0.0732421875,-0.5114503816793893,-0.17557251908396945,-1.2595419847328244
1.6000542640686035,0.066650390625,-1.0068359375,0.0703125,-0.5038167938931297,-0.1297709923664122,-1.4274809160305344
1.6100549697875977,0.070068359375,-1.00390625,0.0634765625,-0.6259541984732825,-0.015267175572519083,-1.450381679389313
1.620053768157959,0.07275390625,-1.005615234375,0.0673828125,-0.7099236641221374,0.07633587786259542,-1.3587786259541985
1.6300551891326904,0.07470703125,-1.00634765625,0.066162109375,-0.3969465648854962,0.03816793893129771,-1.2442748091603053
1.640054702758789,0.068359375,-1.00146484375,0.072998046875,-0.2900763358778626,0.10687022900763359,-1.3893129770992367
1.6500544548034668,0.07373046875,-1.01416015625,0.07763671875,-0.5267175572519084,-0.2824427480916031,-1.4045801526717556
1.6600544452667236,0.0712890625,-0.986083984375,0.071533203125,-0.48854961832061067,0.007633587786259542,-1.3511450381679388
1.6700553894042969,0.0712890625,-1.00634765625,0.05712890625,-0.6030534351145038,-0.22137404580152673,-1.282442748091603
1.6800544261932373,0.0693359375,-1.00146484375,0.066162109375,-0.5190839694656488,-0.13740458015267176,-1.3358778625954197
1.6900551319122314,0.072509765625,-1.0029296875,0.06591796875,-0.5648854961832062,-0.03816793893129771,-1.282442748091603
1.700054407119751,0.0703125,-1.00244140625,0.056640625,-0.46564885496183206,0.06870229007633588,-1.282442748091603
1.7100543975830078,0.071044921875,-1.004638671875,0.065673828125,-0.40458015267175573,-0.061068702290076333,-1.183206106870229
1.7200133800506592,0.07275390625,-1.015380859375,0.06201171875,-0.29770992366412213,1.9465648854961832,-1.4351145038167938
1.7300543785095215,0.072021484375,-1.006103515625,0.07763671875,-0.5648854961832062,-0.1297709923664122,-1.465648854961832
1.7400553226470947,0.067138671875,-1.0107421875,0.068359375,-0.5190839694656488,-0.03816793893129771,-1.3893129770992367
1.750054121017456,0.068603515625,-1.004638671875,0.05419921875,-0.4198473282442748,-1.9541984732824427,-1.3435114503816794
1.760054588317871,0.072509765625,-1.001708984375,0.066650390625,-0.24427480916030533,-0.015267175572519083,-1.3587786259541985
1.7700543403625488,0.073486328125,-1.0029296875,0.067626953125,-0.3511450381679389,-0.11450381679389313,-1.4351145038167938
1.7800536155700684,0.066162109375,-1.001220703125,0.064208984375,-0.3511450381679389,-0.1450381679389313,-1.3358778625954197
1.7900545597076416,0.067626953125,-1.00244140625,0.066162109375,-0.35877862595419846,0.061068702290076333,-1.3435114503816794
1.8000540733337402,0.072509765625,-0.988037109375,0.0693359375,-0.648854961832061,-0.11450381679389313,-1.2748091603053435
1.8100543022155762,0.071533203125,-1.005126953125,0.065185546875,-0.5572519083969466,0.04580152671755725,-1.4961832061068703
1.820054292678833,0.07568359375,-1.00732421875,0.066650390625,-0.5877862595419847,-0.022900763358778626,-1.2748091603053435
1.830054759979248,0.07177734375,-0.996337890625,0.065673828125,-0.4580152671755725,0.030534351145038167,-1.3053435114503817
1.8400533199310303,0.07470703125,-1.005126953125,0.062255859375,-0.25190839694656486,0.015267175572519083,-1.381679389312977
1.8500545024871826,0.07080078125,-1.0009765625,0.0634765625,-0.3053435114503817,-0.1984732824427481,-1.4198473282442747
1.8600544929504395,0.068115234375,-1.000244140625,0.064453125,-0.3511450381679389,-0.15267175572519084,-1.4198473282442747
1.870054006576538,0.07421875,-0.985107421875,0.072265625,-0.37404580152671757,-0.04580152671755725,-1.2213740458015268
1.880054235458374,0.071044921875,-0.991943359375,0.064208984375,-0.5801526717557252,-0.21374045801526717,-1.3282442748091603
1.8900492191314697,0.067626953125,-0.997802734375,0.063720703125,-0.7175572519083969,-0.16793893129770993,-1.4198473282442747
1.9000539779663086,0.069580078125,-1.004150390625,0.062255859375,-0.5343511450381679,-0.26717557251908397,-1.3587786259541985
1.9100563526153564,0.070556640625,-1.007080078125,0.060791015625,-0.32061068702290074,-0.1297709923664122,-1.465648854961832
1.9200546741485596,0.07275390625,-1.006103515625,0.059814453125,0.16793893129770993,-0.15267175572519084,-1.5267175572519085
1.9300553798675537,0.062744140625,-1.002197265625,0.072998046875,-0.15267175572519084,0.0,-1.3511450381679388
1.940054178237915,0.0615234375,-1.014404296875,0.076904296875,-0.48091603053435117,0.07633587786259542,-1.6106870229007633
1.95005464553833,0.0712890625,-0.99853515625,0.063720703125,-1.4198473282442747,0.19083969465648856,-1.4122137404580153
1.9600543975830078,0.079345703125,-1.0048828125,0.046875,-1.465648854961832,-0.15267175572519084,-1.3587786259541985
1.9700543880462646,0.078857421875,-1.003173828125,0.060791015625,-0.48091603053435117,-0.061068702290076333,-1.2900763358778626
1.9800543785095215,0.082275390625,-1.00048828125,0.064453125,1.0076335877862594,0.04580152671755725,-1.366412213740458
1.9900548458099365,0.0693359375,-1.000244140625,0.06689453125,1.381679389312977,-1.8702290076335877,-1.465648854961832
2.000054121017456,0.070068359375,-0.985595703125,0.0771484375,0.17557251908396945,-0.04580152671755725,-1.4198473282442747
2.010056734085083,0.048583984375,-1.002685546875,0.0751953125,-1.7251908396946565,-0.05343511450381679,-1.3587786259541985
2.0200541019439697,0.06689453125,-0.99658203125,0.072509765625,-2.763358778625954,-1.9541984732824427,-1.1603053435114503
2.030057430267334,0.07373046875,-1.001953125,0.058349609375,-1.9923664122137406,-0.12213740458015267,-1.3282442748091603
2.040055274963379,0.0693359375,-1.0078125,0.04931640625,-0.007633587786259542,-0.05343511450381679,-1.3053435114503817
2.0500547885894775,0.0751953125,-1.004638671875,0.05859375,1.633587786259542,-0.183206106870229,-1.4885496183206106
2.060056209564209,0.0732421875,-1.001708984375,0.07080078125,1.6793893129770991,-0.030534351145038167,-1.5038167938931297
2.070056676864624,0.071044921875,-1.005126953125,0.082275390625,0.5801526717557252,-0.09923664122137404,-1.4885496183206106
2.0800588130950928,0.068359375,-1.0107421875,0.08056640625,-1.4885496183206106,-0.061068702290076333,-1.297709923664122
2.090057134628296,0.068359375,-1.00732421875,0.066650390625,-2.6106870229007635,0.1297709923664122,-1.3358778625954197
2.1000564098358154,0.070068359375,-1.001708984375,0.0546875,-2.435114503816794,-0.06870229007633588,-1.3053435114503817
2.1100564002990723,0.07763671875,-1.001220703125,0.051025390625,-1.3206106870229009,-0.35877862595419846,-1.297709923664122
2.120055675506592,0.072998046875,-1.00048828125,0.0537109375,0.6412213740458015,-0.030534351145038167,-1.3587786259541985
2.1300554275512695,0.07177734375,-0.998779296875,0.056640625,2.2213740458015265,0.11450381679389313,-1.4732824427480915
2.1400561332702637,0.071044921875,-0.99365234375,0.076904296875,1.9389312977099236,0.09923664122137404,-1.450381679389313
2.1500561237335205,0.065185546875,-0.9951171875,0.089599609375,-0.20610687022900764,0.21374045801526717,-1.3435114503816794
2.1600570678710938,0.070556640625,-1.012939453125,0.09716796875,-2.2595419847328246,0.08396946564885496,-1.450381679389313
2.1700549125671387,0.0732421875,-1.011962890625,0.06982421875,-3.236641221374046,-0.16030534351145037,-1.251908396946565
2.180056095123291,0.071044921875,-1.0078125,0.0537109375,-2.4122137404580153,-0.12213740458015267,-1.2213740458015268
2.190056324005127,0.07080078125,-0.997802734375,0.054443359375,-0.1450381679389313,0.06870229007633588,-1.4122137404580153
2.200056314468384,0.074951171875,-1.00341796875,0.061767578125,1.7709923664122138,0.16030534351145037,-1.5572519083969465
2.2100558280944824,0.0771484375,-0.998046875,0.066650390625,0.0,-0.10687022900763359,-1.3435114503816794
2.2200562953948975,0.07080078125,-0.987060546875,0.081298828125,0.6412213740458015,-0.03816793893129771,-1.297709923664122
2.230056047439575,0.07080078125,-1.01416015625,0.088134765625,-1.3053435114503817,0.061068702290076333,-1.2213740458015268
2.240055799484253,0.069091796875,-1.00341796875,0.064453125,-2.7022900763358777,-0.1297709923664122,-1.2595419847328244
2.2500555515289307,0.069091796875,-0.99951171875,0.04736328125,-2.1603053435114505,0.13740458015267176,-1.1374045801526718
2.2600555419921875,0.070068359375,-1.002685546875,0.050537109375,-0.6641221374045801,0.022900763358778626,-1.297709923664122
2.2700562477111816,0.072998046875,-1.010498046875,0.05712890625,0.732824427480916,-0.07633587786259542,-1.297709923664122
2.2800559997558594,0.074951171875,-1.001953125,0.068115234375,1.3969465648854962,0.015267175572519083,-1.3435114503816794
2.2900567054748535,0.090087890625,-1.0009765625,0.081298828125,0.8320610687022901,1.9465648854961832,-1.282442748091603
2.300056219100952,0.072998046875,-0.989990234375,0.063720703125,-0.46564885496183206,0.10687022900763359,-1.1908396946564885
2.310056447982788,0.0625,-1.0146484375,0.068359375,-1.8396946564885497,0.15267175572519084,-1.213740458015267
2.3200557231903076,0.068115234375,-1.001953125,0.074462890625,-2.2977099236641223,-0.04580152671755725,-1.213740458015267
2.3300564289093018,0.0693359375,-1.008056640625,0.050048828125,-1.3435114503816794,0.13740458015267176,-1.3587786259541985
2.3400559425354004,0.076416015625,-1.00244140625,0.058837890625,0.13740458015267176,1.9389312977099236,-1.3511450381679388
2.3500566482543945,0.071533203125,-1.0009765625,0.053466796875,1.381679389312977,-0.1450381679389313,-1.381679389312977
2.360055446624756,0.074462890625,-1.01220703125,0.06787109375,1.213740458015267,-0.22137404580152673,-1.534351145038168
2.37005615234375,0.07763671875,-1.0009765625,0.06640625,-0.22900763358778625,-1.9236641221374047,-1.2748091603053435
2.3800554275512695,0.067626953125,-1.00341796875,0.08154296875,-1.5954198473282444,-0.061068702290076333,-1.1908396946564885
2.390056848526001,0.072021484375,-1.00439453125,0.06591796875,-2.33587786259542,-0.20610687022900764,-1.1984732824427482
2.4000558853149414,0.064697265625,-1.00439453125,0.062744140625,-1.5801526717557253,-0.05343511450381679,-1.3740458015267176
2.4100563526153564,0.066650390625,-1.002685546875,0.05712890625,-0.4122137404580153,-0.022900763358778626,-1.4427480916030535
2.4200563430786133,0.075927734375,-1.009033203125,0.05419921875,0.7786259541984732,-0.21374045801526717,-1.3511450381679388
2.430055856704712,0.07568359375,-1.00341796875,0.061279296875,1.3282442748091603,-0.15267175572519084,-1.5954198473282444
2.440056085586548,0.066650390625,-1.003662109375,0.076171875,0.8549618320610687,0.0916030534351145,-1.4961832061068703
2.450056314468384,0.076904296875,-0.98681640625,0.078125,-0.6870229007633588,-0.20610687022900764,-1.549618320610687
2.460054874420166,0.063720703125,-1.000732421875,0.079345703125,-1.8396946564885497,1.9465648854961832,-1.3053435114503817
2.4700562953948975,0.064453125,-0.999755859375,0.06591796875,-2.1297709923664123,0.16793893129770993,-1.4351145038167938
2.4800562858581543,0.071044921875,-1.00390625,0.05810546875,-1.1755725190839694,1.8778625954198473,-1.3053435114503817
2.490056037902832,0.0712890625,-0.998779296875,0.052978515625,-0.1297709923664122,-0.183206106870229,-1.4045801526717556
2.500056505203247,0.069580078125,-1.005859375,0.067138671875,1.0458015267175573,-0.022900763358778626,-1.366412213740458
2.5100560188293457,0.066162109375,-1.001953125,0.063232421875,0.8320610687022901,-0.12213740458015267,-1.4732824427480915
2.5200557708740234,0.07421875,-1.00341796875,0.080322265625,0.022900763358778626,-0.03816793893129771,-1.2748091603053435
2.5300567150115967,0.07470703125,-1.001220703125,0.064208984375,-1.1221374045801527,-0.1450381679389313,-1.3282442748091603
2.540055274963379,0.067138671875,-1.00634765625,0.072265625,-1.786259541984733,0.007633587786259542,-1.2061068702290076
2.550055503845215,0.0712890625,-1.005615234375,0.054443359375,-1.8091603053435115,-1.9236641221374047,-1.2595419847328244
2.5600547790527344,0.0693359375,-1.0078125,0.060546875,-0.816793893129771,-1.8625954198473282,-1.4045801526717556
2.5700571537017822,0.07470703125,-1.014892578125,0.056396484375,0.26717557251908397,0.11450381679389313,-1.465648854961832
2.5800554752349854,0.0732421875,-1.0078125,0.06591796875,0.9007633587786259,-0.04580152671755725,-1.3511450381679388
2.5900564193725586,0.071533203125,-1.00341796875,0.0751953125,0.5419847328244275,-0.16793893129770993,-1.3969465648854962
2.6000559329986572,0.0673828125,-1.00390625,0.06591796875,-0.2366412213740458,-1.9465648854961832,-1.3053435114503817
2.6100564002990723,0.06787109375,-1.0078125,0.064453125,-1.0763358778625953,0.16030534351145037,-1.381679389312977
2.620055675506592,0.069580078125,-1.00146484375,0.066650390625,-1.633587786259542,-0.2824427480916031,-1.465648854961832
2.6300570964813232,0.06640625,-1.0029296875,0.053466796875,-1.1526717557251909,-0.061068702290076333,-1.1755725190839694
2.6400551795959473,0.07275390625,-1.003173828125,0.069091796875,-0.2595419847328244,0.061068702290076333,-1.4351145038167938
2.650055408477783,0.089111328125,-1.001708984375,0.060791015625,0.48854961832061067,0.09923664122137404,-1.3587786259541985
2.660055160522461,0.06591796875,-0.987060546875,0.077880859375,0.29770992366412213,-0.07633587786259542,-1.4427480916030535
2.6700565814971924,0.067626953125,-1.005126953125,0.076171875,0.007633587786259542,-0.061068702290076333,-1.3129770992366412
2.680055618286133,0.0693359375,-1.0068359375,0.091552734375,-0.8549618320610687,-0.030534351145038167,-1.297709923664122
2.690056324005127,0.0712890625,-1.0048828125,0.068115234375,-1.0534351145038168,0.03816793893129771,-1.3129770992366412
2.7000560760498047,0.072265625,-1.002685546875,0.06298828125,-0.8549618320610687,-0.09923664122137404,-1.4427480916030535
2.710057497024536,0.0634765625,-0.998779296875,0.06591796875,-0.7251908396946565,-0.16030534351145037,-1.213740458015267
2.7200560569763184,0.069091796875,-1.01220703125,0.06103515625,0.061068702290076333,-1.916030534351145,-1.3053435114503817
2.730055570602417,0.074951171875,-1.00537109375,0.0703125,0.19083969465648856,-0.07633587786259542,-1.4122137404580153
2.7400548458099365,0.070068359375,-0.9873046875,0.066650390625,-0.0916030534351145,-0.022900763358778626,-1.3282442748091603
2.750056266784668,0.075439453125,-1.015625,0.06982421875,-0.4732824427480916,-0.13740458015267176,-1.3129770992366412
2.7600555419921875,0.06591796875,-1.00048828125,0.075439453125,-1.1068702290076335,-0.15267175572519084,-1.2748091603053435
2.770056962966919,0.0673828125,-1.004150390625,0.0673828125,-0.9847328244274809,-0.07633587786259542,-1.3206106870229009
2.780055522918701,0.07373046875,-1.00341796875,0.0654296875,-0.7862595419847328,-0.1450381679389313,-1.4198473282442747
2.790055751800537,0.067626953125,-1.006591796875,0.060791015625,-0.29770992366412213,-0.015267175572519083,-1.4732824427480915
2.800055742263794,0.0732421875,-0.990478515625,0.07763671875,-0.11450381679389313,-1.8549618320610688,-1.4732824427480915
2.8100569248199463,0.068603515625,-0.9892578125,0.0537109375,-0.10687022900763359,-0.15267175572519084,-1.4885496183206106
2.8200552463531494,0.0732421875,-1.010009765625,0.068359375,-0.3282442748091603,-0.16793893129770993,-1.5114503816793894
2.8300561904907227,0.071044921875,-1.0,0.070068359375,-0.7099236641221374,-0.10687022900763359,-1.3587786259541985
2.8400561809539795,0.07080078125,-0.9970703125,0.078857421875,-0.7709923664122137,-0.1297709923664122,-1.4045801526717556
2.850058078765869,0.072998046875,-1.003662109375,0.06640625,-0.9541984732824428,-0.09923664122137404,-1.381679389312977
2.8600549697875977,0.0654296875,-1.005615234375,0.06787109375,-0.6106870229007634,-1.9236641221374047,-1.3969465648854962
2.870056629180908,0.074951171875,-1.000732421875,0.0732421875,-0.183206106870229,-0.13740458015267176,-1.4351145038167938
2.8800559043884277,0.064453125,-1.0068359375,0.068603515625,-0.2824427480916031,-0.16030534351145037,-1.4351145038167938
2.8900558948516846,0.075927734375,-1.001953125,0.073486328125,-0.46564885496183206,-0.25190839694656486,-1.251908396946565
2.9000558853149414,0.062744140625,-1.002685546875,0.066162109375,-0.648854961832061,0.022900763358778626,-1.4351145038167938
2.910055637359619,0.060302734375,-0.999267578125,0.06884765625,-0.5648854961832062,-0.06870229007633588,-1.4580152671755726
2.9200563430786133,0.06494140625,-1.0009765625,0.06201171875,-0.48854961832061067,-0.04580152671755725,-1.3206106870229009
2.9300568103790283,0.072021484375,-0.99951171875,0.065673828125,-0.3435114503816794,-0.20610687022900764,-1.5038167938931297
2.940056085586548,0.068359375,-1.005126953125,0.068603515625,-0.33587786259541985,-0.19083969465648856,-1.3587786259541985
2.9500560760498047,0.065185546875,-1.006591796875,0.0751953125,-0.20610687022900764,-0.007633587786259542,-1.4732824427480915
2.9600560665130615,0.068603515625,-1.015625,0.076904296875,-0.6183206106870229,0.06870229007633588,-1.3969465648854962
2.97005558013916,0.06640625,-0.99951171875,0.049560546875,-0.6183206106870229,-0.13740458015267176,-1.3587786259541985
2.980056047439575,0.0732421875,-1.002685546875,0.072265625,-0.648854961832061,-0.24427480916030533,-1.381679389312977
2.990056276321411,0.071044921875,-1.001953125,0.066650390625,-0.35877862595419846,-0.22900763358778625,-1.3587786259541985
3.000056505203247,0.06591796875,-1.001220703125,0.076904296875,-0.17557251908396945,-0.03816793893129771,-1.4045801526717556
3.0100574493408203,0.073486328125,-1.013916015625,0.075439453125,-0.1297709923664122,-0.15267175572519084,-1.3893129770992367
3.0200555324554443,0.071533203125,-0.989501953125,0.06982421875,-0.5343511450381679,-0.22137404580152673,-1.381679389312977
3.030057191848755,0.0693359375,-1.000244140625,0.06640625,-0.7404580152671756,0.022900763358778626,-1.4732824427480915
3.0400538444519043,0.06884765625,-0.998046875,0.077880859375,-0.8473282442748091,0.1450381679389313,-1.4045801526717556
3.0500545501708984,0.068603515625,-1.00390625,0.05908203125,-0.648854961832061,-0.007633587786259542,-1.3740458015267176
3.0600545406341553,0.070068359375,-0.996337890625,0.066650390625,-0.07633587786259542,0.05343511450381679,-1.5038167938931297
3.070054292678833,0.06787109375,-1.002685546875,0.0673828125,-0.24427480916030533,-0.13740458015267176,-1.251908396946565
3.08005428314209,0.062744140625,-1.001953125,0.06787109375,0.1297709923664122,-0.16030534351145037,-1.2748091603053435
3.0900542736053467,0.0712890625,-1.015625,0.071044921875,-0.44274809160305345,-0.08396946564885496,-1.4198473282442747
3.100053310394287,0.06689453125,-1.00341796875,0.08740234375,-0.6946564885496184,-0.015267175572519083,-1.3740458015267176
3.110053777694702,0.0703125,-0.999267578125,0.068115234375,-0.8778625954198473,0.12213740458015267,-1.2366412213740459
3.1200544834136963,0.07177734375,-1.003173828125,0.064453125,-0.8091603053435115,-0.05343511450381679,-1.2671755725190839
3.1300547122955322,0.071533203125,-1.00927734375,0.063232421875,-0.5190839694656488,-0.1984732824427481,-1.3587786259541985
3.140031337738037,0.0703125,-1.005859375,0.059326171875,-0.15267175572519084,-0.10687022900763359,-1.4580152671755726
3.150055170059204,0.066162109375,-1.005615234375,0.0712890625,0.10687022900763359,0.015267175572519083,-1.4274809160305344
3.16005539894104,0.06787109375,-1.0107421875,0.073974609375,-0.32061068702290074,-0.20610687022900764,-1.2748091603053435
3.1700549125671387,0.06591796875,-1.013427734375,0.076904296875,-0.7251908396946565,-1.900763358778626,-1.4198473282442747
3.1800546646118164,0.068115234375,-1.00048828125,0.07470703125,-0.9083969465648855,-0.183206106870229,-1.3511450381679388
3.1900546550750732,0.062255859375,-1.001953125,0.065673828125,-0.9389312977099237,-0.12213740458015267,-1.3969465648854962
3.2000539302825928,0.07275390625,-1.003662109375,0.054931640625,-0.48091603053435117,0.05343511450381679,-1.2748091603053435
3.210055112838745,0.07080078125,-1.0048828125,0.062255859375,-0.16030534351145037,0.061068702290076333,-1.4885496183206106
3.2200543880462646,0.07275390625,-1.0048828125,0.06591796875,1.9312977099236641,-1.9465648854961832,-1.3053435114503817
3.230055093765259,0.0634765625,-1.0146484375,0.0712890625,-0.2366412213740458,-0.0916030534351145,-1.2442748091603053
3.240054130554199,0.06640625,-1.00146484375,0.077880859375,-0.40458015267175573,-1.8702290076335877,-1.16793893129771
3.250054359436035,0.07080078125,-1.00146484375,0.064697265625,-0.7862595419847328,-0.03816793893129771,-1.3587786259541985
3.260054349899292,0.075439453125,-1.00244140625,0.064453125,-0.9465648854961832,-0.05343511450381679,-1.1145038167938932
3.270054817199707,0.065185546875,-1.00244140625,0.073486328125,-0.8702290076335878,-0.15267175572519084,-1.3511450381679388
3.2800543308258057,0.0732421875,-1.00390625,0.05712890625,-0.6030534351145038,1.9083969465648856,-1.5572519083969465
3.2900550365448,0.0673828125,-1.00244140625,0.060546875,-0.15267175572519084,-0.19083969465648856,-1.1755725190839694
3.3000550270080566,0.070556640625,-1.00048828125,0.05810546875,-0.13740458015267176,-0.16030534351145037,-1.2671755725190839
3.3100552558898926,0.07080078125,-1.003173828125,0.065673828125,-0.549618320610687,-0.08396946564885496,-1.4045801526717556
3.320054292678833,0.0703125,-1.00048828125,0.062744140625,-0.7022900763358778,-0.10687022900763359,-1.5038167938931297
3.33005428314209,0.07470703125,-0.99755859375,0.06787109375,-0.7404580152671756,-1.9389312977099236,-1.3587786259541985
3.340055227279663,0.070068359375,-0.99951171875,0.0625,-0.6641221374045801,-0.19083969465648856,-1.3740458015267176
3.3500545024871826,0.071044921875,-1.003662109375,0.071533203125,-0.3053435114503817,-1.9389312977099236,-1.4961832061068703
3.3600540161132812,0.071533203125,-1.00537109375,0.064208984375,-0.4198473282442748,-0.29770992366412213,-1.381679389312977
3.3700547218322754,0.0673828125,-0.99072265625,0.070556640625,-0.26717557251908397,0.015267175572519083,-1.5190839694656488
3.380054473876953,0.07470703125,-1.002197265625,0.068603515625,-0.2595419847328244,-0.1297709923664122,-1.4198473282442747
3.3900551795959473,0.072021484375,-0.998779296875,0.0634765625,-0.4961832061068702,-0.030534351145038167,-1.5114503816793894
3.400033712387085,0.07177734375,-1.001708984375,0.07275390625,-0.7251908396946565,0.007633587786259542,-1.3053435114503817
3.410054922103882,0.071533203125,-1.008544921875,0.062744140625,-0.7633587786259542,1.900763358778626,-1.1984732824427482
3.420055389404297,0.069580078125,-0.9990234375,0.060791015625,-0.6259541984732825,-1.8931297709923665,-1.3587786259541985
3.4300549030303955,0.0693359375,-1.015380859375,0.06640625,-0.4961832061068702,1.9236641221374047,-1.3282442748091603
3.4400546550750732,0.076904296875,-1.00341796875,0.06982421875,-0.06870229007633588,-0.04580152671755725,-1.3969465648854962
3.4500555992126465,0.0712890625,-1.0048828125,0.072265625,-1.9236641221374047,-0.16793893129770993,-1.5725190839694656
3.4600541591644287,0.076904296875,-1.007080078125,0.069091796875,-0.31297709923664124,-0.1450381679389313,-1.4809160305343512
3.470054864883423,0.070556640625,-1.001708984375,0.069091796875,-0.40458015267175573,-0.061068702290076333,-1.3893129770992367
3.4800541400909424,0.0673828125,-1.0029296875,0.072509765625,-0.8473282442748091,0.10687022900763359,-1.3358778625954197
3.490054130554199,0.070556640625,-1.010009765625,0.075927734375,-0.9312977099236641,0.1450381679389313,-1.3435114503816794
3.5000545978546143,0.075927734375,-1.004638671875,0.067626953125,-0.8244274809160306,-0.022900763358778626,-1.3129770992366412
3.51005482673645,0.065185546875,-1.00439453125,0.06787109375,-0.3282442748091603,-0.030534351145038167,-1.4732824427480915
3.5200538635253906,0.077392578125,-1.015625,0.076416015625,1.9236641221374047,-0.17557251908396945,-1.3053435114503817
3.530055284500122,0.066162109375,-1.007568359375,0.072998046875,-0.022900763358778626,0.11450381679389313,-1.4961832061068703
3.540053606033325,0.071044921875,-1.00146484375,0.066650390625,-0.2900763358778626,0.07633587786259542,-1.213740458015267
3.5500545501708984,0.07177734375,-1.000244140625,0.0703125,-0.6259541984732825,-0.32061068702290074,-1.3511450381679388
3.5600547790527344,0.0732421875,-0.99658203125,0.068359375,-0.7938931297709924,-0.030534351145038167,-1.465648854961832
3.570054769515991,0.067626953125,-1.003173828125,0.069580078125,-0.7786259541984732,0.10687022900763359,-1.366412213740458
3.580054521560669,0.06982421875,-0.98681640625,0.07177734375,-0.8091603053435115,0.022900763358778626,-1.282442748091603
3.590054512023926,0.072021484375,-1.00146484375,0.058837890625,-0.15267175572519084,-0.061068702290076333,-1.297709923664122
3.6000537872314453,0.06689453125,-1.001708984375,0.05322265625,-0.2748091603053435,-0.05343511450381679,-1.4198473282442747
3.6100540161132812,0.0654296875,-1.001953125,0.077880859375,-1.9312977099236641,-0.04580152671755725,-1.534351145038168
3.6200544834136963,0.073974609375,-1.0078125,0.06689453125,-0.16030534351145037,0.08396946564885496,-1.1603053435114503
3.630054235458374,0.066650390625,-1.002197265625,0.067138671875,-0.5419847328244275,-0.10687022900763359,-1.4351145038167938
3.6400551795959473,0.067138671875,-1.0029296875,0.068603515625,-0.6717557251908397,-0.08396946564885496,-1.3129770992366412
3.650054454803467,0.065673828125,-0.990478515625,0.066162109375,-0.5801526717557252,1.9389312977099236,-1.297709923664122
3.6600542068481445,0.064697265625,-0.987060546875,0.059814453125,-0.6030534351145038,-0.0916030534351145,-1.465648854961832
3.6700546741485596,0.072998046875,-1.003173828125,0.059814453125,-0.3816793893129771,-0.12213740458015267,-1.4732824427480915
3.6800537109375,0.07373046875,-1.00439453125,0.06591796875,-1.9389312977099236,-0.16793893129770993,-1.3282442748091603
3.6900548934936523,0.072998046875,-1.00537109375,0.06982421875,0.061068702290076333,-0.25190839694656486,-1.366412213740458
3.7000539302825928,0.06787109375,-0.999755859375,0.07958984375,-0.3053435114503817,-0.09923664122137404,-1.4732824427480915
3.710054636001587,0.068603515625,-1.001953125,0.07275390625,-0.6946564885496184,-0.08396946564885496,-1.4427480916030535
3.7200536727905273,0.068115234375,-1.0078125,0.06201171875,-1.1603053435114503,-0.17557251908396945,-1.4198473282442747
3.730055093765259,0.074951171875,-1.013671875,0.063720703125,-0.9770992366412213,0.03816793893129771,-1.5267175572519085
3.74005389213562,0.070556640625,-1.00390625,0.064697265625,-0.4198473282442748,0.17557251908396945,-1.251908396946565
3.7500240802764893,0.07177734375,-0.998779296875,0.061767578125,0.09923664122137404,-0.11450381679389313,-1.3740458015267176
3.760053873062134,0.072021484375,-0.998046875,0.069580078125,0.1297709923664122,-0.03816793893129771,-1.282442748091603
3.770054340362549,0.069091796875,-0.9951171875,0.072021484375,0.0,-0.08396946564885496,-1.2900763358778626
3.7800538539886475,0.06982421875,-1.00244140625,0.083984375,-0.3282442748091603,1.9465648854961832,-1.282442748091603
3.7900545597076416,0.064453125,-1.00390625,0.074951171875,-0.9694656488549618,-0.03816793893129771,-1.2290076335877862
3.8000547885894775,0.06982421875,-0.998291015625,0.068115234375,-1.3129770992366412,-0.10687022900763359,-1.633587786259542
3.810054063796997,0.060546875,-1.0078125,0.068603515625,-0.8778625954198473,0.06870229007633588,-1.3740458015267176
3.820054769515991,0.074951171875,-1.00732421875,0.061767578125,-0.2595419847328244,-0.12213740458015267,-1.2900763358778626
3.830054521560669,0.069091796875,-0.9990234375,0.061279296875,0.13740458015267176,-0.2748091603053435,-1.3435114503816794
3.8400542736053467,0.066650390625,-1.00537109375,0.07275390625,0.4732824427480916,1.9312977099236641,-1.3740458015267176
3.8500545024871826,0.0703125,-1.004638671875,0.06494140625,0.061068702290076333,1.916030534351145,-1.1755725190839694
3.8600540161132812,0.093017578125,-1.001953125,0.06884765625,-0.48854961832061067,-0.10687022900763359,-1.5419847328244274
3.8700544834136963,0.07861328125,-1.002685546875,0.07373046875,-1.0916030534351144,0.04580152671755725,-1.4427480916030535
3.8800556659698486,0.069091796875,-1.0009765625,0.064208984375,-1.4961832061068703,-0.11450381679389313,-1.251908396946565
3.890054941177368,0.068115234375,-0.996337890625,0.059326171875,-1.0305343511450382,0.030534351145038167,-1.5267175572519085
3.900054693222046,0.0712890625,-1.003662109375,0.058837890625,-0.09923664122137404,-0.061068702290076333,-1.3053435114503817
3.9100542068481445,0.066650390625,-1.007568359375,0.068359375,0.5114503816793893,-0.1450381679389313,-1.2442748091603053
3.9200541973114014,0.07470703125,-1.005126953125,0.0712890625,0.2595419847328244,0.03816793893129771,-1.2061068702290076
3.9300549030303955,0.0693359375,-1.000244140625,0.090576171875,-0.2900763358778626,-0.15267175572519084,-1.3587786259541985
3.940053939819336,0.069580078125,-1.00244140625,0.073974609375,-0.8931297709923665,0.15267175572519084,-1.2442748091603053
3.9500551223754883,0.067626953125,-1.01025390625,0.070556640625,-1.4045801526717556,-0.015267175572519083,-1.4122137404580153
3.960054636001587,0.072998046875,-1.008544921875,0.064208984375,-1.0229007633587786,-0.11450381679389313,-1.2748091603053435
3.9700541496276855,0.0732421875,-1.0029296875,0.061279296875,-0.6030534351145038,-0.16030534351145037,-1.1984732824427482
3.980053663253784,0.07275390625,-1.00439453125,0.0546875,0.2748091603053435,-0.12213740458015267,-1.5572519083969465
3.9900267124176025,0.06884765625,-0.990478515625,0.06201171875,0.3282442748091603,0.061068702290076333,-1.4122137404580153
4.000053644180298,0.06884765625,-1.00439453125,0.0546875,0.37404580152671757,-1.9541984732824427,-1.5267175572519085
4.010056018829346,0.070556640625,-1.005615234375,0.07080078125,-0.45038167938931295,-0.19083969465648856,-1.3587786259541985
4.020053863525391,0.069091796875,-0.996337890625,0.065185546875,-0.9847328244274809,1.9083969465648856,-1.297709923664122
4.030055999755859,0.070556640625,-1.001220703125,0.06640625,-1.213740458015267,0.03816793893129771,-1.3740458015267176
4.040053367614746,0.069091796875,-0.9970703125,0.06005859375,-0.7938931297709924,-0.1297709923664122,-1.4198473282442747
4.05005407333374,0.0712890625,-1.007568359375,0.061767578125,-0.29770992366412213,-1.9236641221374047,-1.4580152671755726
4.060053825378418,0.0712890625,-1.00146484375,0.062255859375,0.366412213740458,-0.06870229007633588,-1.4961832061068703
4.0700647830963135,0.068359375,-1.00244140625,0.065185546875,0.549618320610687,-0.1984732824427481,-1.4045801526717556
4.08005428314209,0.0693359375,-0.987548828125,0.076171875,-0.15267175572519084,-0.3053435114503817,-1.3893129770992367
4.090054512023926,0.0693359375,-0.995849609375,0.069091796875,-0.7480916030534351,0.05343511450381679,-1.4427480916030535
4.1000213623046875,0.070556640625,-1.001708984375,0.07177734375,-1.2442748091603053,-0.022900763358778626,-1.2671755725190839
4.110054016113281,0.069091796875,-0.997314453125,0.07177734375,-0.9770992366412213,-0.12213740458015267,-1.4045801526717556
4.1200549602508545,0.071044921875,-1.00634765625,0.06640625,-0.6641221374045801,-0.09923664122137404,-1.4427480916030535
4.13005518913269,0.07080078125,-1.0009765625,0.06494140625,0.16030534351145037,0.11450381679389313,-1.4809160305343512
4.14005446434021,0.06884765625,-1.013671875,0.059814453125,0.35877862595419846,-0.0916030534351145,-1.366412213740458
4.150054931640625,0.072265625,-1.014892578125,0.069580078125,-0.1984732824427481,-1.8625954198473282,-1.3358778625954197
4.160054683685303,0.06982421875,-1.001953125,0.07275390625,-0.7404580152671756,1.8931297709923665,-1.2900763358778626
4.170053958892822,0.06787109375,-1.000244140625,0.064208984375,-1.1526717557251909,0.09923664122137404,-1.251908396946565
4.180055141448975,0.0673828125,-1.006591796875,0.06884765625,-1.1984732824427482,-0.11450381679389313,-1.3282442748091603
4.190054178237915,0.07080078125,-1.00341796875,0.06201171875,-0.8549618320610687,-0.03816793893129771,-1.2748091603053435
4.200053691864014,0.07421875,-1.007080078125,0.062744140625,-0.06870229007633588,-0.1450381679389313,-1.2671755725190839
4.210054874420166,0.0751953125,-1.00341796875,0.06396484375,0.17557251908396945,-0.07633587786259542,-1.3511450381679388
4.220054388046265,0.070068359375,-1.00537109375,0.063720703125,1.8854961832061068,-0.16030534351145037,-1.4427480916030535
4.230021238327026,0.071533203125,-0.99951171875,0.0712890625,-0.4961832061068702,-0.1984732824427481,-1.5267175572519085
4.240054368972778,0.066162109375,-1.00146484375,0.070068359375,-1.0381679389312977,-0.15267175572519084,-1.3053435114503817
4.250055551528931,0.0673828125,-1.00634765625,0.065185546875,-1.0229007633587786,-0.1984732824427481,-1.3358778625954197
4.260053396224976,0.068603515625,-0.995849609375,0.066162109375,-0.7251908396946565,-0.0916030534351145,-1.366412213740458
4.270054340362549,0.068603515625,-0.985595703125,0.060302734375,-0.1450381679389313,-0.17557251908396945,-1.2900763358778626
4.2800538539886475,0.072509765625,-0.9853515625,0.06494140625,-1.9389312977099236,-0.10687022900763359,-1.3969465648854962
4.290054559707642,0.07470703125,-1.005859375,0.0625,0.07633587786259542,-0.2595419847328244,-1.3282442748091603
4.300054550170898,0.0712890625,-1.002685546875,0.06787109375,-0.4351145038167939,1.9389312977099236,-1.3511450381679388
4.3100550174713135,0.072265625,-1.002197265625,0.072021484375,-0.5038167938931297,-0.16793893129770993,-1.3511450381679388
4.320054531097412,0.072265625,-1.003662109375,0.0732421875,-0.8244274809160306,-0.1984732824427481,-1.3740458015267176
4.33005428314209,0.064453125,-1.0078125,0.05859375,-0.6717557251908397,-0.21374045801526717,-1.2671755725190839
4.340054273605347,0.069091796875,-1.003662109375,0.06787109375,-0.3282442748091603,-0.1450381679389313,-1.1603053435114503
4.350054025650024,0.071044921875,-0.99853515625,0.06103515625,0.16793893129770993,0.16793893129770993,-1.4045801526717556
4.3600547313690186,0.073486328125,-1.002685546875,0.0693359375,0.05343511450381679,0.03816793893129771,-1.4122137404580153
4.370055198669434,0.0703125,-1.00439453125,0.0673828125,-0.16793893129770993,0.015267175572519083,-1.4809160305343512
4.380053997039795,0.065185546875,-1.008056640625,0.05908203125,-0.7633587786259542,-0.183206106870229,-1.3587786259541985
4.390054225921631,0.069580078125,-1.002197265625,0.056884765625,-0.916030534351145,-0.11450381679389313,-1.3435114503816794
4.400054216384888,0.07373046875,-1.003173828125,0.06884765625,-0.7404580152671756,-0.061068702290076333,-1.3969465648854962
4.4100542068481445,0.068359375,-1.002685546875,0.060546875,-0.44274809160305345,1.9465648854961832,-1.3587786259541985
4.420053958892822,0.07177734375,-1.001953125,0.068359375,-0.11450381679389313,-0.03816793893129771,-1.450381679389313
4.430054664611816,0.072998046875,-1.002685546875,0.06494140625,0.030534351145038167,-1.9541984732824427,-1.3893129770992367
4.440054655075073,0.06591796875,-1.0009765625,0.070068359375,-0.48854961832061067,0.061068702290076333,-1.4351145038167938
4.450053691864014,0.0751953125,-1.003173828125,0.07666015625,-0.5114503816793893,-1.8931297709923665,-1.3435114503816794
4.46005392074585,0.07275390625,-1.00537109375,0.06494140625,-1.0610687022900764,0.06870229007633588,-1.3969465648854962
4.47005558013916,0.07080078125,-1.00390625,0.08154296875,-0.8244274809160306,1.9389312977099236,-1.4809160305343512
4.480054140090942,0.0654296875,-1.01123046875,0.056396484375,-0.4732824427480916,-0.05343511450381679,-1.2671755725190839
4.490055084228516,0.0703125,-1.009033203125,0.076171875,-0.5267175572519084,-0.15267175572519084,-1.3893129770992367
4.500053644180298,0.070068359375,-1.0146484375,0.069091796875,0.0916030534351145,-0.16030534351145037,-1.2900763358778626
4.510054349899292,0.074951171875,-1.005126953125,0.072509765625,1.8931297709923665,0.007633587786259542,-1.4732824427480915
4.520053863525391,0.06982421875,-0.999755859375,0.068115234375,-0.4122137404580153,0.15267175572519084,-1.465648854961832
4.530056953430176,0.069580078125,-1.00390625,0.0693359375,-0.5419847328244275,0.030534351145038167,-1.3282442748091603
4.540056228637695,0.073974609375,-1.004638671875,0.068603515625,-0.732824427480916,-0.030534351145038167,-1.2900763358778626
4.55005669593811,0.066650390625,-1.0068359375,0.067138671875,-0.8320610687022901,-0.15267175572519084,-1.2213740458015268
4.560057878494263,0.071533203125,-1.00390625,0.054443359375,-0.5267175572519084,-0.2824427480916031,-1.2595419847328244
4.570056438446045,0.071044921875,-1.01513671875,0.06640625,-0.29770992366412213,-0.183206106870229,-1.381679389312977
4.580055475234985,0.067626953125,-0.998046875,0.068603515625,-0.05343511450381679,-0.09923664122137404,-1.297709923664122
4.5900561809539795,0.068603515625,-1.003662109375,0.06982421875,-0.16793893129770993,-0.17557251908396945,-1.4885496183206106
4.600055694580078,0.070068359375,-1.002197265625,0.070068359375,-0.48091603053435117,-0.09923664122137404,-1.3129770992366412
4.610055923461914,0.07861328125,-1.000732421875,0.072998046875,-0.732824427480916,-0.17557251908396945,-1.366412213740458
4.620055913925171,0.0625,-1.00732421875,0.0654296875,-0.6641221374045801,-0.08396946564885496,-1.2595419847328244
4.630056381225586,0.0712890625,-1.003173828125,0.067626953125,-0.9389312977099237,-0.061068702290076333,-1.366412213740458
4.640056133270264,0.06982421875,-1.007080078125,0.06298828125,-0.3969465648854962,-0.24427480916030533,-1.3969465648854962
4.650056600570679,0.0625,-1.004638671875,0.04736328125,-0.3511450381679389,-1.9389312977099236,-1.381679389312977
4.6600563526153564,0.0703125,-1.00390625,0.071044921875,-0.3053435114503817,-0.09923664122137404,-1.549618320610687
4.6700568199157715,0.076416015625,-1.0107421875,0.06689453125,-0.37404580152671757,0.0,-1.5190839694656488
4.680057525634766,0.071044921875,-1.0068359375,0.066162109375,-0.3511450381679389,-0.08396946564885496,-1.3740458015267176
4.690056800842285,0.079345703125,-1.005126953125,0.064453125,-0.6259541984732825,-1.900763358778626,-1.3282442748091603
4.700056076049805,0.070556640625,-0.985107421875,0.051025390625,-0.6641221374045801,-1.8549618320610688,-1.450381679389313
4.710056781768799,0.06591796875,-0.988525390625,0.07373046875,-0.4961832061068702,0.05343511450381679,-1.450381679389313
4.720056772232056,0.07568359375,-0.989990234375,0.07763671875,-0.648854961832061,-0.08396946564885496,-1.183206106870229
4.730055809020996,0.070556640625,-1.0068359375,0.076904296875,-0.3053435114503817,-0.22900763358778625,-1.4274809160305344
4.740056037902832,0.072021484375,-1.00830078125,0.0751953125,0.20610687022900764,-0.061068702290076333,-1.282442748091603
4.750056505203247,0.07177734375,-0.9990234375,0.07177734375,-0.3435114503816794,-0.015267175572519083,-1.381679389312977
4.760056257247925,0.076904296875,-1.003173828125,0.06689453125,-0.6335877862595419,-0.15267175572519084,-1.1908396946564885
4.7700560092926025,0.075927734375,-0.986328125,0.06298828125,-0.7099236641221374,-1.9465648854961832,-1.3129770992366412
4.780055522918701,0.0703125,-1.001953125,0.06689453125,-0.648854961832061,-0.1984732824427481,-1.2671755725190839
4.7900567054748535,0.072021484375,-0.985107421875,0.0771484375,-0.4198473282442748,-1.9541984732824427,-1.4198473282442747
4.800048112869263,0.066650390625,-0.998046875,0.069580078125,-0.2900763358778626,-0.08396946564885496,-1.4961832061068703
4.810057878494263,0.06787109375,-1.006103515625,0.0615234375,-0.17557251908396945,-0.13740458015267176,-1.3587786259541985
4.820056200027466,0.06982421875,-1.000732421875,0.061767578125,-0.2900763358778626,-0.11450381679389313,-1.450381679389313
4.830056190490723,0.073486328125,-1.002685546875,0.075927734375,-0.37404580152671757,0.0,-1.4427480916030535
4.840055465698242,0.065185546875,-1.015625,0.06591796875,-0.7175572519083969,0.09923664122137404,-1.4274809160305344
4.850056171417236,0.06591796875,-1.0087890625,0.067626953125,-0.48091603053435117,-0.2366412213740458,-1.2900763358778626
4.860055685043335,0.072509765625,-1.004638671875,0.062744140625,-0.5954198473282443,-0.19083969465648856,-1.450381679389313
4.870056867599487,0.0673828125,-1.004150390625,0.067138671875,-0.5114503816793893,-0.13740458015267176,-1.4122137404580153
4.880055904388428,0.072265625,-1.003173828125,0.065673828125,-0.5572519083969466,-0.22900763358778625,-1.251908396946565
4.89005708694458,0.070556640625,-1.000244140625,0.065185546875,-0.2366412213740458,-0.19083969465648856,-1.297709923664122
4.900055885314941,0.0712890625,-1.004150390625,0.063232421875,-0.19083969465648856,-0.05343511450381679,-1.3740458015267176
4.910057067871094,0.073486328125,-1.001953125,0.07373046875,-0.29770992366412213,-0.12213740458015267,-1.4961832061068703
4.920056343078613,0.07763671875,-0.992431640625,0.0634765625,-0.4198473282442748,-0.1450381679389313,-1.3511450381679388
4.930058479309082,0.06884765625,-1.000732421875,0.0693359375,-0.5267175572519084,-0.10687022900763359,-1.3587786259541985
4.9400553703308105,0.06982421875,-1.009765625,0.069091796875,-0.7175572519083969,0.015267175572519083,-1.2595419847328244
4.950056076049805,0.06982421875,-1.001953125,0.0712890625,-0.816793893129771,-0.2595419847328244,-1.3969465648854962
4.960056304931641,0.073974609375,-1.003173828125,0.063720703125,-0.5877862595419847,-0.07633587786259542,-1.3206106870229009
4.970056772232056,0.070556640625,-1.003662109375,0.0693359375,-0.42748091603053434,-0.2595419847328244,-1.3053435114503817
4.980055809020996,0.066162109375,-1.001220703125,0.067138671875,-0.22137404580152673,0.061068702290076333,-1.4580152671755726
4.990051507949829,0.066162109375,-1.000732421875,0.063232421875,-0.24427480916030533,0.1450381679389313,-1.4961832061068703
5.000056505203247,0.0771484375,-1.004150390625,0.070068359375,-0.45038167938931295,1.8931297709923665,-1.465648854961832
5.010057687759399,0.071044921875,-0.999755859375,0.068603515625,-0.5343511450381679,-0.16793893129770993,-1.381679389312977
5.0200560092926025,0.0703125,-1.0,0.072265625,-0.46564885496183206,-0.061068702290076333,-1.4351145038167938
5.0300586223602295,0.072021484375,-0.997314453125,0.065673828125,-0.5419847328244275,0.015267175572519083,-1.3129770992366412
5.040056228637695,0.068115234375,-1.005126953125,0.069091796875,-0.9389312977099237,-0.20610687022900764,-1.4427480916030535
5.050056457519531,0.0771484375,-0.985595703125,0.069091796875,-0.5954198473282443,-0.13740458015267176,-1.4045801526717556
5.060055255889893,0.073486328125,-1.003173828125,0.065185546875,-0.42748091603053434,-1.9389312977099236,-1.5267175572519085
5.070057153701782,0.07080078125,-1.001708984375,0.07421875,-0.19083969465648856,-0.007633587786259542,-1.3893129770992367
5.0800559520721436,0.06689453125,-1.007568359375,0.06640625,-0.03816793893129771,0.12213740458015267,-1.4351145038167938
5.090056657791138,0.068115234375,-0.99609375,0.067626953125,-0.4198473282442748,-1.9389312977099236,-1.3358778625954197
5.100050687789917,0.063232421875,-0.99951171875,0.067626953125,-0.48854961832061067,-0.08396946564885496,-1.2900763358778626
5.110056161880493,0.06396484375,-1.00537109375,0.067138671875,-0.816793893129771,-0.1450381679389313,-1.4809160305343512
5.1200573444366455,0.072998046875,-1.001953125,0.064208984375,-0.6946564885496184,-0.05343511450381679,-1.3358778625954197
5.130056142807007,0.0703125,-1.01416015625,0.05615234375,-0.21374045801526717,0.05343511450381679,-1.3435114503816794
5.140056133270264,0.0625,-1.015625,0.05126953125,-0.2824427480916031,-1.9465648854961832,-1.3206106870229009
5.150055885314941,0.072021484375,-1.005615234375,0.070556640625,-0.4122137404580153,-0.12213740458015267,-1.4351145038167938
5.1600565910339355,0.0693359375,-1.00341796875,0.0732421875,-0.48091603053435117,-0.030534351145038167,-1.381679389312977
5.170053720474243,0.07373046875,-0.99951171875,0.069091796875,-0.7251908396946565,-1.916030534351145,-1.3511450381679388
5.18005633354187,0.072265625,-1.0029296875,0.06640625,-0.4351145038167939,-0.061068702290076333,-1.4045801526717556
5.190056562423706,0.072021484375,-1.00048828125,0.073974609375,-0.21374045801526717,-0.12213740458015267,-1.4961832061068703
5.200056552886963,0.066650390625,-1.01513671875,0.06640625,-0.46564885496183206,-0.3282442748091603,-1.251908396946565
5.21005654335022,0.06689453125,-0.998291015625,0.0703125,-0.4198473282442748,0.17557251908396945,-1.3206106870229009
5.220055818557739,0.073486328125,-1.004638671875,0.068603515625,-0.5114503816793893,-0.16030534351145037,-1.4274809160305344
5.230056047439575,0.064697265625,-1.002197265625,0.07568359375,-0.5114503816793893,1.9312977099236641,-1.3740458015267176
5.240055799484253,0.07421875,-0.99853515625,0.068359375,-0.42748091603053434,-0.0916030534351145,-1.4427480916030535
5.250056982040405,0.068359375,-1.004638671875,0.070556640625,-0.366412213740458,0.12213740458015267,-1.4122137404580153
5.260055780410767,0.072509765625,-1.004638671875,0.06640625,-0.22900763358778625,-0.21374045801526717,-1.3893129770992367
5.27005672454834,0.072265625,-1.001708984375,0.0751953125,-0.2824427480916031,-0.22900763358778625,-1.4732824427480915
5.280056476593018,0.06591796875,-0.99853515625,0.06884765625,-0.5572519083969466,-0.09923664122137404,-1.4961832061068703
5.290056467056274,0.0654296875,-1.006591796875,0.071533203125,-0.4961832061068702,-1.9541984732824427,-1.1908396946564885
5.300055503845215,0.072998046875,-1.001220703125,0.06787109375,-0.5877862595419847,-0.12213740458015267,-1.5419847328244274
5.3100574016571045,0.073974609375,-1.00390625,0.060791015625,-0.6412213740458015,-1.9236641221374047,-1.2748091603053435
5.320055246353149,0.06884765625,-0.99951171875,0.05908203125,-0.6183206106870229,-0.06870229007633588,-1.2748091603053435
5.330056667327881,0.065185546875,-1.001220703125,0.065185546875,-0.648854961832061,-0.15267175572519084,-1.297709923664122
5.340055465698242,0.0751953125,-1.003173828125,0.062744140625,-0.48091603053435117,-0.07633587786259542,-1.282442748091603
5.350055932998657,0.068115234375,-1.00439453125,0.0703125,-0.2595419847328244,0.07633587786259542,-1.3358778625954197
5.360055446624756,0.073486328125,-1.014892578125,0.063232421875,-0.366412213740458,0.05343511450381679,-1.3358778625954197
5.370056867599487,0.068603515625,-1.0029296875,0.076171875,-0.48854961832061067,-0.16793893129770993,-1.3740458015267176
5.3800554275512695,0.06591796875,-1.004638671875,0.059326171875,-0.816793893129771,-0.07633587786259542,-1.3740458015267176
5.390056371688843,0.066650390625,-1.00537109375,0.067138671875,-0.5572519083969466,-0.07633587786259542,-1.4427480916030535
5.400055646896362,0.07275390625,-1.0048828125,0.06298828125,-0.4198473282442748,0.007633587786259542,-1.4122137404580153
5.410056829452515,0.070556640625,-1.006103515625,0.063232421875,-0.3893129770992366,0.06870229007633588,-1.3587786259541985
5.420056343078613,0.07177734375,-1.01513671875,0.075439453125,-0.35877862595419846,0.061068702290076333,-1.3282442748091603
5.430058479309082,0.068359375,-1.004638671875,0.049072265625,-0.20610687022900764,-0.1450381679389313,-1.4198473282442747
5.4400553703308105,0.070068359375,-1.0,0.066162109375,-0.3816793893129771,-0.1297709923664122,-1.3893129770992367
5.450056791305542,0.07080078125,-1.00146484375,0.074462890625,-0.3893129770992366,-0.15267175572519084,-1.4274809160305344
5.460055351257324,0.0703125,-1.0048828125,0.06005859375,-0.6030534351145038,-0.07633587786259542,-1.4274809160305344
5.470056533813477,0.07568359375,-1.00341796875,0.0693359375,-0.45038167938931295,-0.3435114503816794,-1.4274809160305344
5.480055570602417,0.0712890625,-1.00146484375,0.06591796875,-0.5343511450381679,-0.0916030534351145,-1.4580152671755726
5.490055799484253,0.06298828125,-1.015625,0.06494140625,-0.33587786259541985,-0.2366412213740458,-1.3893129770992367
5.5000598430633545,0.06640625,-1.005615234375,0.07080078125,-0.6106870229007634,-0.13740458015267176,-1.4809160305343512
5.510056018829346,0.070068359375,-1.004150390625,0.071044921875,-0.3282442748091603,-0.2595419847328244,-1.3511450381679388
5.520055532455444,0.076416015625,-1.001708984375,0.0595703125,-0.3511450381679389,0.13740458015267176,-1.366412213740458
5.530056715011597,0.068603515625,-1.000732421875,0.068603515625,-0.31297709923664124,-0.4351145038167939,-1.381679389312977
5.540055990219116,0.069091796875,-1.008544921875,0.071533203125,-0.5190839694656488,-0.2366412213740458,-1.3969465648854962
5.550055742263794,0.075927734375,-1.001220703125,0.061767578125,-0.5190839694656488,-0.04580152671755725,-1.2671755725190839
5.560056209564209,0.070068359375,-0.999755859375,0.06591796875,-0.31297709923664124,-0.022900763358778626,-1.3740458015267176
5.570056676864624,0.071044921875,-1.00390625,0.06884765625,-0.44274809160305345,-0.22137404580152673,-1.4274809160305344
5.580056190490723,0.068603515625,-1.00341796875,0.0712890625,-0.42748091603053434,-0.183206106870229,-1.251908396946565
5.590056896209717,0.072021484375,-1.005126953125,0.064208984375,-0.42748091603053434,-0.10687022900763359,-1.2748091603053435
5.600055456161499,0.069580078125,-1.000732421875,0.060791015625,-0.35877862595419846,-0.1297709923664122,-1.2671755725190839
5.610056400299072,0.068115234375,-1.005126953125,0.065185546875,-0.4961832061068702,-0.22137404580152673,-1.3587786259541985
5.620055675506592,0.067626953125,-1.005126953125,0.070556640625,-0.6030534351145038,-0.16030534351145037,-1.213740458015267
5.630057096481323,0.072265625,-1.00439453125,0.07421875,-0.5877862595419847,0.08396946564885496,-1.2595419847328244
5.640055894851685,0.072998046875,-1.000732421875,0.074462890625,-0.366412213740458,-0.030534351145038167,-1.450381679389313
5.650056838989258,0.07666015625,-1.00244140625,0.04736328125,-0.4122137404580153,-0.26717557251908397,-1.5114503816793894
5.660055637359619,0.0732421875,-1.007080078125,0.07177734375,-0.40458015267175573,-0.061068702290076333,-1.297709923664122
5.670056343078613,0.07373046875,-1.00341796875,0.065185546875,-0.6564885496183206,-0.1297709923664122,-1.3587786259541985
5.680056095123291,0.07275390625,-0.99560546875,0.0712890625,-0.5419847328244275,0.03816793893129771,-1.3740458015267176
5.690053701400757,0.069580078125,-1.003662109375,0.070556640625,-0.5954198473282443,-1.9083969465648856,-1.2671755725190839
5.700056791305542,0.071044921875,-1.013671875,0.067138671875,-0.48854961832061067,1.9236641221374047,-1.4885496183206106
5.71005654335022,0.070556640625,-1.0146484375,0.05419921875,-0.16793893129770993,0.05343511450381679,-1.366412213740458
5.720056533813477,0.0673828125,-1.00341796875,0.06591796875,-0.3282442748091603,-0.20610687022900764,-1.183206106870229
5.730057239532471,0.070556640625,-1.005859375,0.066650390625,-0.4580152671755725,-0.05343511450381679,-1.2671755725190839
5.740056037902832,0.072265625,-1.00390625,0.0673828125,-0.4580152671755725,0.05343511450381679,-1.534351145038168
5.750056266784668,0.07275390625,-1.002197265625,0.07568359375,-0.5801526717557252,-0.12213740458015267,-1.2290076335877862
5.760056018829346,0.07568359375,-1.00830078125,0.07080078125,-0.5801526717557252,-0.19083969465648856,-1.5725190839694656
5.770056247711182,0.070068359375,-1.003662109375,0.066650390625,-0.25190839694656486,-1.9083969465648856,-1.465648854961832
5.780055999755859,0.0703125,-1.00244140625,0.076416015625,-0.2748091603053435,-0.15267175572519084,-1.4274809160305344
5.790055751800537,0.071533203125,-1.007080078125,0.06298828125,-0.25190839694656486,-0.16030534351145037,-1.3129770992366412
5.800056219100952,0.068115234375,-1.001953125,0.068115234375,-0.4580152671755725,-0.05343511450381679,-1.3282442748091603
5.81005334854126,0.0673828125,-1.00830078125,0.072998046875,-0.6183206106870229,1.8931297709923665,-1.3740458015267176
5.820056915283203,0.072998046875,-0.99755859375,0.058837890625,-0.6793893129770993,0.05343511450381679,-1.465648854961832
5.830059289932251,0.072998046875,-1.006103515625,0.06884765625,-0.732824427480916,0.11450381679389313,-1.465648854961832
5.840055704116821,0.07275390625,-1.00048828125,0.062744140625,-0.5877862595419847,-0.1297709923664122,-1.3893129770992367
5.850055932998657,0.076171875,-1.007568359375,0.068603515625,-0.17557251908396945,-0.22900763358778625,-1.2290076335877862
5.860055208206177,0.0693359375,-1.0146484375,0.0712890625,-0.022900763358778626,-0.2748091603053435,-1.4045801526717556
5.870056629180908,0.06396484375,-1.00634765625,0.06298828125,-0.2595419847328244,-0.061068702290076333,-1.4351145038167938
5.880108833312988,0.0673828125,-1.001708984375,0.065673828125,-0.2748091603053435,0.030534351145038167,-1.3511450381679388
5.89005708694458,0.071533203125,-1.005126953125,0.073486328125,-0.5954198473282443,-1.900763358778626,-1.4885496183206106
5.900056838989258,0.06591796875,-1.007080078125,0.059814453125,-0.6335877862595419,-1.916030534351145,-1.4961832061068703
5.910056829452515,0.06396484375,-0.986083984375,0.06591796875,-0.6259541984732825,-0.06870229007633588,-1.3587786259541985
5.920056343078613,0.0693359375,-1.001953125,0.057373046875,-0.1984732824427481,-0.0916030534351145,-1.4885496183206106
5.930055856704712,0.068359375,-1.002685546875,0.065673828125,-0.24427480916030533,-1.9236641221374047,-1.3587786259541985
5.940056085586548,0.0732421875,-1.004150390625,0.048095703125,-0.13740458015267176,-0.29770992366412213,-1.4122137404580153
5.950058460235596,0.0751953125,-1.00048828125,0.060302734375,-0.48091603053435117,-0.0916030534351145,-1.4351145038167938
5.960056304931641,0.06201171875,-0.999755859375,0.064208984375,-0.5801526717557252,-0.1984732824427481,-1.4809160305343512
5.970057487487793,0.072265625,-0.999755859375,0.072509765625,-0.816793893129771,-1.900763358778626,-1.2900763358778626
5.980056285858154,0.074462890625,-0.989013671875,0.06201171875,-0.6641221374045801,0.06870229007633588,-1.4427480916030535
5.990056037902832,0.0712890625,-1.015380859375,0.07763671875,-0.3893129770992366,-0.030534351145038167,-1.282442748091603
6.000056266784668,0.07177734375,-1.005126953125,0.068603515625,-0.24427480916030533,0.17557251908396945,-1.2900763358778626
6.01005744934082,0.071533203125,-0.99658203125,0.0634765625,-0.40458015267175573,-0.17557251908396945,-1.450381679389313
6.020057916641235,0.071533203125,-1.00390625,0.06494140625,-0.3816793893129771,-0.15267175572519084,-1.3358778625954197
6.030057907104492,0.0703125,-1.004638671875,0.07177734375,-0.6946564885496184,-0.03816793893129771,-1.3435114503816794
6.0400567054748535,0.069091796875,-0.996826171875,0.068359375,-0.7709923664122137,-0.11450381679389313,-1.2595419847328244
6.050056457519531,0.07080078125,-1.00146484375,0.0556640625,-0.5954198473282443,-0.26717557251908397,-1.381679389312977
6.060056209564209,0.069580078125,-1.000732421875,0.05517578125,-0.16793893129770993,0.05343511450381679,-1.3740458015267176
6.070056676864624,0.07080078125,-1.00439453125,0.048583984375,-0.32061068702290074,-1.9083969465648856,-1.1526717557251909
6.080056428909302,0.0673828125,-0.99853515625,0.071044921875,-0.46564885496183206,-0.030534351145038167,-1.4198473282442747
6.090057134628296,0.06787109375,-1.006591796875,0.069580078125,-0.6030534351145038,-0.11450381679389313,-1.3129770992366412
6.100056171417236,0.06494140625,-0.996826171875,0.068603515625,-0.8091603053435115,1.7557251908396947,-1.4732824427480915
6.110056161880493,0.0634765625,-1.0087890625,0.068359375,-0.6946564885496184,-0.12213740458015267,-1.618320610687023
6.120055913925171,0.069091796875,-1.00732421875,0.069580078125,-0.7022900763358778,0.030534351145038167,-1.4351145038167938
6.130056381225586,0.069580078125,-1.010498046875,0.06494140625,-0.1297709923664122,-0.22137404580152673,-1.2061068702290076
6.140055894851685,0.06787109375,-1.0068359375,0.063232421875,-0.17557251908396945,1.8778625954198473,-1.465648854961832
6.150056838989258,0.07177734375,-1.005126953125,0.076416015625,-0.4961832061068702,0.04580152671755725,-1.366412213740458
6.160055637359619,0.069091796875,-1.001220703125,0.07080078125,-0.5801526717557252,-0.05343511450381679,-1.3435114503816794
6.170056343078613,0.072265625,-1.00634765625,0.05810546875,-0.5877862595419847,-0.19083969465648856,-1.4885496183206106
6.180056095123291,0.065185546875,-0.997314453125,0.061279296875,-0.7022900763358778,0.1297709923664122,-1.3435114503816794
6.190056562423706,0.0712890625,-1.000244140625,0.058349609375,-0.4198473282442748,-0.0916030534351145,-1.2595419847328244
6.200055360794067,0.068359375,-0.98974609375,0.078857421875,-0.21374045801526717,-0.022900763358778626,-1.4580152671755726
6.21005654335022,0.07666015625,-1.005615234375,0.06982421875,-0.22900763358778625,0.1297709923664122,-1.366412213740458
6.220055818557739,0.0732421875,-1.008056640625,0.06103515625,-0.3816793893129771,1.9312977099236641,-1.4885496183206106
6.230056524276733,0.0654296875,-0.997314453125,0.06982421875,-0.44274809160305345,-0.20610687022900764,-1.3282442748091603
6.240055799484253,0.068603515625,-1.001953125,0.07080078125,-0.5725190839694656,-0.12213740458015267,-1.5038167938931297
6.250056028366089,0.06884765625,-1.007568359375,0.067138671875,-0.7480916030534351,-0.10687022900763359,-1.297709923664122
6.260051965713501,0.0625,-1.00390625,0.067626953125,-0.5190839694656488,-0.061068702290076333,-1.4045801526717556
6.270056962966919,0.067138671875,-1.001953125,0.06640625,-0.3053435114503817,-0.061068702290076333,-1.381679389312977
6.280055999755859,0.069580078125,-1.00390625,0.073486328125,-0.42748091603053434,1.83206106870229,-1.4045801526717556
6.2900567054748535,0.0712890625,-1.002685546875,0.057373046875,-0.1984732824427481,-0.11450381679389313,-1.5572519083969465
6.300056457519531,0.07177734375,-1.003662109375,0.06884765625,-0.4961832061068702,1.9389312977099236,-1.4351145038167938
6.310056447982788,0.072509765625,-0.999267578125,0.060546875,-0.37404580152671757,-0.08396946564885496,-1.282442748091603
6.320056915283203,0.065673828125,-1.005615234375,0.06298828125,-0.48091603053435117,-0.05343511450381679,-1.3053435114503817
6.3300580978393555,0.068603515625,-0.99951171875,0.0732421875,-0.3893129770992366,-0.07633587786259542,-1.2748091603053435
6.3400561809539795,0.071533203125,-1.002685546875,0.06591796875,-0.48091603053435117,1.8854961832061068,-1.251908396946565
6.350056886672974,0.069091796875,-1.00146484375,0.07666015625,-0.366412213740458,-0.09923664122137404,-1.3969465648854962
6.360055923461914,0.068359375,-0.984619140625,0.064208984375,-0.5038167938931297,-1.8931297709923665,-1.381679389312977
6.370056867599487,0.066162109375,-1.000732421875,0.0732421875,-0.6183206106870229,0.03816793893129771,-1.2595419847328244
6.380055904388428,0.0703125,-1.0068359375,0.067138671875,-0.4961832061068702,-1.9541984732824427,-1.5190839694656488
6.390056610107422,0.0693359375,-1.0,0.069091796875,-0.48854961832061067,-0.3282442748091603,-1.3206106870229009
6.4000561237335205,0.06689453125,-1.004638671875,0.071044921875,-0.366412213740458,-0.1297709923664122,-1.4427480916030535
6.410056829452515,0.0673828125,-0.995849609375,0.061767578125,-0.3053435114503817,-0.0916030534351145,-1.4122137404580153
6.420056581497192,0.072509765625,-0.989013671875,0.071533203125,-0.06870229007633588,0.31297709923664124,-1.4122137404580153
6.430056095123291,0.062744140625,-1.0126953125,0.07470703125,-0.31297709923664124,1.9312977099236641,-1.2595419847328244
6.4400551319122314,0.07177734375,-1.001953125,0.0703125,-0.5954198473282443,-0.16030534351145037,-1.3511450381679388
6.450052976608276,0.07080078125,-1.00390625,0.073486328125,-0.8320610687022901,-0.15267175572519084,-1.3129770992366412
6.460055112838745,0.07177734375,-1.007568359375,0.069091796875,-0.5038167938931297,-0.1297709923664122,-1.4885496183206106
6.4700562953948975,0.072021484375,-1.00146484375,0.06396484375,-0.4198473282442748,-0.061068702290076333,-1.1755725190839694
6.480055570602417,0.0712890625,-1.001953125,0.063232421875,-0.2366412213740458,0.030534351145038167,-1.5190839694656488
6.49005651473999,0.072021484375,-1.014404296875,0.067138671875,-0.061068702290076333,-0.11450381679389313,-1.5114503816793894
6.500055313110352,0.072509765625,-0.9873046875,0.071533203125,-0.3816793893129771,-0.3053435114503817,-1.4427480916030535
6.510056734085083,0.069091796875,-1.002197265625,0.07177734375,-0.8015267175572519,0.11450381679389313,-1.4122137404580153
6.520056247711182,0.060791015625,-0.995849609375,0.0693359375,-0.7709923664122137,-0.24427480916030533,-1.3282442748091603
6.530056476593018,0.0703125,-0.9970703125,0.066162109375,-0.6870229007633588,0.16793893129770993,-1.183206106870229
6.540055751800537,0.06787109375,-1.00634765625,0.057373046875,-0.42748091603053434,-0.15267175572519084,-1.6412213740458015
6.550056219100952,0.067138671875,-1.002197265625,0.065673828125,-0.5419847328244275,-0.19083969465648856,-1.4732824427480915
6.560056686401367,0.065673828125,-1.000732421875,0.064697265625,-0.22137404580152673,1.9236641221374047,-1.4885496183206106
6.570058345794678,0.072998046875,-1.014892578125,0.065185546875,-0.17557251908396945,0.022900763358778626,-1.3358778625954197
6.5800559520721436,0.072509765625,-1.001708984375,0.066650390625,-0.5877862595419847,1.8702290076335877,-1.297709923664122
6.590056419372559,0.067626953125,-1.000244140625,0.0595703125,-0.7633587786259542,-0.1297709923664122,-1.3435114503816794
6.600056409835815,0.07177734375,-1.006103515625,0.071044921875,-0.7709923664122137,-0.19083969465648856,-1.4732824427480915
6.610056638717651,0.069580078125,-1.004150390625,0.069580078125,-0.6183206106870229,0.007633587786259542,-1.2442748091603053
6.620055913925171,0.0703125,-1.01318359375,0.070068359375,-0.46564885496183206,-1.9541984732824427,-1.4045801526717556
6.630056858062744,0.066162109375,-0.986083984375,0.062744140625,-0.46564885496183206,-1.916030534351145,-1.251908396946565
6.640057802200317,0.072509765625,-1.001220703125,0.077392578125,-0.4198473282442748,-0.21374045801526717,-1.2595419847328244
6.6500563621521,0.0693359375,-1.005615234375,0.063232421875,-0.25190839694656486,-0.15267175572519084,-1.4198473282442747
6.660055875778198,0.068115234375,-1.0048828125,0.066650390625,-0.4351145038167939,1.9312977099236641,-1.282442748091603
6.6700663566589355,0.0673828125,-1.006103515625,0.07080078125,-0.549618320610687,-0.15267175572519084,-1.465648854961832
6.680056095123291,0.071044921875,-1.00146484375,0.0712890625,-0.5954198473282443,-0.022900763358778626,-1.3969465648854962
6.690056562423706,0.0625,-1.00146484375,0.072265625,-0.3816793893129771,0.05343511450381679,-1.549618320610687
6.700055837631226,0.066162109375,-1.01513671875,0.0673828125,-0.5343511450381679,1.8931297709923665,-1.3969465648854962
6.710056781768799,0.064697265625,-1.005126953125,0.064697265625,-0.5572519083969466,-0.10687022900763359,-1.3206106870229009
6.720055818557739,0.068115234375,-1.001953125,0.06005859375,-0.22137404580152673,-0.17557251908396945,-1.2595419847328244
6.730057239532471,0.06982421875,-1.0009765625,0.0693359375,-0.3282442748091603,0.030534351145038167,-1.5954198473282444
6.740056037902832,0.074951171875,-1.001220703125,0.06298828125,-0.19083969465648856,-0.1984732824427481,-1.3282442748091603
6.750056028366089,0.0693359375,-1.00048828125,0.07568359375,-0.3969465648854962,-0.1450381679389313,-1.4122137404580153
6.760047674179077,0.067138671875,-1.00244140625,0.06201171875,-0.3511450381679389,-0.16793893129770993,-1.4809160305343512
6.77005672454834,0.074951171875,-0.987060546875,0.06591796875,-0.6030534351145038,-0.08396946564885496,-1.3511450381679388
6.780056476593018,0.069091796875,-1.006103515625,0.07763671875,-0.7786259541984732,-0.21374045801526717,-1.5725190839694656
6.7900567054748535,0.07861328125,-0.999755859375,0.075439453125,-0.6183206106870229,0.13740458015267176,-1.3893129770992367
6.80005669593811,0.0712890625,-1.003662109375,0.064453125,-0.1984732824427481,-0.10687022900763359,-1.2213740458015268
6.810056447982788,0.070068359375,-0.99853515625,0.055908203125,-0.12213740458015267,1.9465648854961832,-1.4274809160305344
6.820056438446045,0.067138671875,-1.0009765625,0.0654296875,-0.20610687022900764,-0.1297709923664122,-1.5267175572519085
6.8300559520721436,0.068603515625,-1.00048828125,0.0693359375,-0.29770992366412213,0.007633587786259542,-1.3740458015267176
6.8400559425354,0.06787109375,-1.003662109375,0.066650390625,-0.44274809160305345,-1.9389312977099236,-1.4122137404580153
6.850057125091553,0.086181640625,-1.00732421875,0.07470703125,-0.7480916030534351,-0.17557251908396945,-1.3206106870229009
6.860055685043335,0.066162109375,-1.00927734375,0.051513671875,-0.732824427480916,-0.022900763358778626,-1.381679389312977
6.870055913925171,0.071533203125,-1.002685546875,0.063720703125,-0.5343511450381679,0.04580152671755725,-1.5190839694656488
6.880049228668213,0.074951171875,-1.004638671875,0.070068359375,-0.3282442748091603,-0.2366412213740458,-1.5190839694656488
6.890056133270264,0.072265625,-0.997314453125,0.06787109375,-0.2824427480916031,-1.8854961832061068,-1.3587786259541985
6.9000561237335205,0.06787109375,-1.003173828125,0.06005859375,-0.32061068702290074,-0.15267175572519084,-1.465648854961832
6.910057067871094,0.072509765625,-1.00146484375,0.07275390625,-0.366412213740458,0.04580152671755725,-1.183206106870229
6.920055866241455,0.06982421875,-1.0146484375,0.0556640625,-0.5267175572519084,-0.09923664122137404,-1.6259541984732824
6.930056810379028,0.070556640625,-1.000732421875,0.075439453125,-0.6717557251908397,0.08396946564885496,-1.3587786259541985
6.94005560874939,0.0712890625,-1.00146484375,0.069091796875,-0.6946564885496184,-0.1450381679389313,-1.3282442748091603
6.950052976608276,0.072021484375,-1.00048828125,0.064453125,-0.48854961832061067,-0.15267175572519084,-1.2748091603053435
6.960059404373169,0.069091796875,-1.00048828125,0.065185546875,-0.46564885496183206,-0.0916030534351145,-1.3969465648854962
6.970056772232056,0.073974609375,-1.002197265625,0.062744140625,-0.26717557251908397,-0.08396946564885496,-1.4580152671755726
6.980055570602417,0.067626953125,-0.9970703125,0.0654296875,-0.22137404580152673,-0.12213740458015267,-1.5038167938931297
6.99005651473999,0.071044921875,-1.013916015625,0.07568359375,-0.549618320610687,-0.03816793893129771,-1.5114503816793894
7.000056505203247,0.070556640625,-0.996337890625,0.07080078125,-0.4961832061068702,-0.20610687022900764,-1.4580152671755726
7.010058879852295,0.064453125,-1.008056640625,0.0703125,-0.48854961832061067,-1.9312977099236641,-1.297709923664122
7.020056247711182,0.070556640625,-1.00439453125,0.07666015625,-0.2824427480916031,-0.1297709923664122,-1.282442748091603
7.030057668685913,0.072265625,-1.00830078125,0.065185546875,-0.4351145038167939,0.030534351145038167,-1.4885496183206106
7.040056228637695,0.071044921875,-1.00634765625,0.05859375,-0.5038167938931297,1.916030534351145,-1.4274809160305344
7.050056457519531,0.06982421875,-0.99072265625,0.072998046875,-0.7022900763358778,0.061068702290076333,-1.297709923664122
7.060056686401367,0.0751953125,-1.00732421875,0.069091796875,-0.48091603053435117,-0.22137404580152673,-1.450381679389313
7.070056915283203,0.0712890625,-1.001953125,0.065673828125,-0.6106870229007634,-1.9236641221374047,-1.4045801526717556
7.0800557136535645,0.065673828125,-1.005859375,0.076171875,-0.3969465648854962,-0.17557251908396945,-1.366412213740458
7.090056657791138,0.07080078125,-0.9970703125,0.07080078125,-0.13740458015267176,-0.07633587786259542,-1.3053435114503817
7.100055694580078,0.065673828125,-1.00634765625,0.064697265625,-0.4198473282442748,1.916030534351145,-1.1755725190839694
7.110060691833496,0.072509765625,-1.006591796875,0.0673828125,-0.45038167938931295,-0.030534351145038167,-1.4732824427480915
7.120055913925171,0.070068359375,-1.0068359375,0.0615234375,-0.40458015267175573,0.06870229007633588,-1.2671755725190839
7.130056858062744,0.066162109375,-1.0009765625,0.064697265625,-0.6030534351145038,-0.2595419847328244,-1.534351145038168
7.140056610107422,0.072509765625,-0.997802734375,0.077392578125,-0.4961832061068702,-0.10687022900763359,-1.4045801526717556
7.150057315826416,0.0703125,-1.0048828125,0.06396484375,-0.5038167938931297,-0.09923664122137404,-1.5725190839694656
7.160056829452515,0.06689453125,-1.001953125,0.055419921875,-0.40458015267175573,-0.21374045801526717,-1.4351145038167938
7.170057535171509,0.073974609375,-1.001953125,0.065673828125,-0.1450381679389313,-0.183206106870229,-1.4045801526717556
7.180058002471924,0.069091796875,-1.006103515625,0.0751953125,-0.2595419847328244,-0.022900763358778626,-1.3206106870229009
7.190057277679443,0.0703125,-1.01513671875,0.067138671875,-0.48091603053435117,-1.8854961832061068,-1.2595419847328244
7.200056791305542,0.0654296875,-1.01513671875,0.0771484375,-0.5267175572519084,-0.13740458015267176,-1.282442748091603
7.21005654335022,0.0712890625,-0.98876953125,0.0498046875,-0.4122137404580153,-0.0916030534351145,-1.4045801526717556
7.220056772232056,0.07177734375,-1.004150390625,0.06982421875,-0.5801526717557252,-0.08396946564885496,-1.5038167938931297
7.230056047439575,0.07275390625,-1.007080078125,0.06494140625,-0.20610687022900764,0.022900763358778626,-1.3893129770992367
7.240056991577148,0.075927734375,-1.005126953125,0.06591796875,-0.25190839694656486,-0.09923664122137404,-1.3740458015267176
7.250051021575928,0.0712890625,-1.004638671875,0.065673828125,-0.24427480916030533,-0.09923664122137404,-1.5267175572519085
7.260056495666504,0.071533203125,-1.01513671875,0.06689453125,-0.5954198473282443,1.9312977099236641,-1.2900763358778626
7.270057678222656,0.069580078125,-1.0009765625,0.0654296875,-0.5038167938931297,-0.06870229007633588,-1.251908396946565
7.280059337615967,0.06591796875,-1.014892578125,0.07080078125,-0.5038167938931297,0.007633587786259542,-1.4274809160305344
7.29005765914917,0.070556640625,-1.001708984375,0.06298828125,-0.4198473282442748,-0.07633587786259542,-1.4427480916030535
7.300055980682373,0.0751953125,-1.001708984375,0.06591796875,-0.3816793893129771,0.08396946564885496,-1.4045801526717556
7.310057163238525,0.0751953125,-1.00244140625,0.0615234375,-0.3053435114503817,0.08396946564885496,-1.3893129770992367
7.320055961608887,0.069091796875,-1.00390625,0.0673828125,-0.4122137404580153,0.015267175572519083,-1.3740458015267176
7.33005690574646,0.06884765625,-1.002197265625,0.0654296875,-0.3893129770992366,-0.12213740458015267,-1.450381679389313
7.340059995651245,0.07373046875,-1.005126953125,0.07763671875,-0.6870229007633588,-0.10687022900763359,-1.4122137404580153
7.3500566482543945,0.064208984375,-1.011474609375,0.06396484375,-0.48854961832061067,-1.9236641221374047,-1.4809160305343512
7.360055923461914,0.070068359375,-1.00244140625,0.0771484375,-0.3969465648854962,-0.061068702290076333,-1.465648854961832
7.370057106018066,0.070068359375,-0.99951171875,0.068603515625,-0.33587786259541985,-0.20610687022900764,-1.3053435114503817
7.380056381225586,0.0712890625,-1.0029296875,0.069091796875,-0.3282442748091603,-0.16030534351145037,-1.2442748091603053
7.390056610107422,0.072265625,-1.004150390625,0.066162109375,-0.3435114503816794,-0.04580152671755725,-1.1908396946564885
7.400056600570679,0.07470703125,-1.002197265625,0.0625,-0.37404580152671757,-0.03816793893129771,-1.3893129770992367
7.410049915313721,0.067138671875,-1.0146484375,0.0673828125,-0.3893129770992366,-0.08396946564885496,-1.4961832061068703
7.420055866241455,0.06689453125,-1.002197265625,0.06884765625,-0.648854961832061,-0.1297709923664122,-1.4351145038167938
7.4300572872161865,0.067626953125,-1.0048828125,0.06884765625,-0.48854961832061067,-0.16030534351145037,-1.2595419847328244
7.440056085586548,0.068115234375,-0.99365234375,0.0595703125,-0.3282442748091603,0.19083969465648856,-1.4885496183206106
7.450057506561279,0.069580078125,-1.0029296875,0.073486328125,-0.5190839694656488,-0.1984732824427481,-1.2900763358778626
7.460055351257324,0.069091796875,-1.008056640625,0.059814453125,-0.25190839694656486,-0.13740458015267176,-1.3206106870229009
7.470056772232056,0.069091796875,-1.0,0.0712890625,-0.40458015267175573,-0.1984732824427481,-1.3435114503816794
7.480056285858154,0.067626953125,-1.00390625,0.077392578125,-0.33587786259541985,-0.1450381679389313,-1.381679389312977
7.49005651473999,0.076171875,-1.0048828125,0.0693359375,-0.4732824427480916,-0.06870229007633588,-1.3358778625954197
7.500056505203247,0.073486328125,-0.984619140625,0.067138671875,-0.5801526717557252,0.16030534351145037,-1.2442748091603053
7.5100579261779785,0.075439453125,-0.99951171875,0.070556640625,-0.7480916030534351,0.05343511450381679,-1.6259541984732824
7.520055532455444,0.065673828125,-1.004638671875,0.059326171875,-0.45038167938931295,-0.24427480916030533,-1.2442748091603053
7.530057191848755,0.07177734375,-0.998779296875,0.064453125,-0.4351145038167939,-0.061068702290076333,-1.3893129770992367
7.5400567054748535,0.064697265625,-1.00634765625,0.066650390625,-0.48091603053435117,-0.15267175572519084,-1.2900763358778626
7.5500569343566895,0.069091796875,-1.00390625,0.075927734375,-0.366412213740458,-1.9465648854961832,-1.2213740458015268
7.560056447982788,0.07568359375,-1.00927734375,0.067626953125,-0.2366412213740458,-0.16030534351145037,-1.4809160305343512
7.570044755935669,0.073974609375,-1.0009765625,0.06787109375,-0.45038167938931295,-0.10687022900763359,-1.2900763358778626
7.580056190490723,0.068115234375,-1.0048828125,0.07177734375,-0.4732824427480916,-0.061068702290076333,-1.3129770992366412
7.590057134628296,0.068603515625,-1.00341796875,0.064697265625,-0.5801526717557252,-0.12213740458015267,-1.4045801526717556
7.6000566482543945,0.07470703125,-1.001953125,0.06689453125,-0.6259541984732825,0.007633587786259542,-1.183206106870229
7.610058069229126,0.0732421875,-1.00244140625,0.064208984375,-0.6335877862595419,-0.22900763358778625,-1.381679389312977
7.620056629180908,0.067626953125,-0.9892578125,0.0673828125,-0.4122137404580153,0.08396946564885496,-1.2900763358778626
7.63005805015564,0.06494140625,-1.001953125,0.075439453125,-0.33587786259541985,-0.04580152671755725,-1.3358778625954197
7.640058517456055,0.0732421875,-0.9990234375,0.07080078125,-0.46564885496183206,-0.17557251908396945,-1.3053435114503817
7.650057792663574,0.068603515625,-1.0,0.0634765625,-0.5877862595419847,-0.24427480916030533,-1.4885496183206106
7.6600565910339355,0.070556640625,-0.999755859375,0.06787109375,-0.7480916030534351,-0.11450381679389313,-1.282442748091603
7.6700568199157715,0.071044921875,-1.00048828125,0.067138671875,-0.3435114503816794,0.015267175572519083,-1.1603053435114503
7.68005633354187,0.090576171875,-1.00537109375,0.0712890625,-0.0916030534351145,1.9312977099236641,-1.4351145038167938
7.690056800842285,0.071044921875,-1.0009765625,0.06298828125,-0.09923664122137404,-0.2366412213740458,-1.4122137404580153
7.700057029724121,0.07373046875,-1.01416015625,0.07275390625,-0.3053435114503817,-0.061068702290076333,-1.3053435114503817
7.710045099258423,0.0673828125,-1.00244140625,0.063232421875,-0.6259541984732825,-0.022900763358778626,-1.2290076335877862
7.7200562953948975,0.072998046875,-1.002685546875,0.066162109375,-0.549618320610687,-0.10687022900763359,-1.4351145038167938
7.730057239532471,0.07373046875,-1.0,0.068115234375,-0.4580152671755725,-0.16793893129770993,-1.251908396946565
7.740056753158569,0.070068359375,-1.000244140625,0.05810546875,-0.3053435114503817,-0.25190839694656486,-1.2213740458015268
7.750057220458984,0.076416015625,-1.004638671875,0.0654296875,-0.32061068702290074,-0.0916030534351145,-1.3129770992366412
7.760056257247925,0.066162109375,-1.015380859375,0.066650390625,-0.37404580152671757,0.06870229007633588,-1.381679389312977
7.770057916641235,0.066650390625,-1.003173828125,0.068603515625,-0.6641221374045801,-0.1450381679389313,-1.5572519083969465
7.780059576034546,0.0712890625,-0.98828125,0.076416015625,-0.5572519083969466,0.12213740458015267,-1.251908396946565
7.790057420730591,0.073486328125,-1.001220703125,0.068603515625,-0.29770992366412213,-0.11450381679389313,-1.4580152671755726
7.80005669593811,0.06884765625,-0.996337890625,0.082763671875,-0.3053435114503817,0.030534351145038167,-1.381679389312977
7.810056447982788,0.06982421875,-1.004638671875,0.069091796875,-0.46564885496183206,0.16793893129770993,-1.381679389312977
7.820056438446045,0.073486328125,-1.002197265625,0.063720703125,-0.32061068702290074,-0.11450381679389313,-1.3969465648854962
7.83005690574646,0.072265625,-1.004150390625,0.06884765625,-0.549618320610687,-0.12213740458015267,-1.450381679389313
7.840056657791138,0.0693359375,-1.001708984375,0.073486328125,-0.6717557251908397,-0.183206106870229,-1.381679389312977
7.850052356719971,0.069091796875,-0.98876953125,0.066650390625,-0.45038167938931295,-0.07633587786259542,-1.5419847328244274
7.860056400299072,0.073974609375,-1.002685546875,0.06005859375,-0.31297709923664124,-0.16793893129770993,-1.3435114503816794
7.870056867599487,0.07373046875,-1.010498046875,0.06494140625,-0.15267175572519084,1.9389312977099236,-1.5267175572519085
7.880057096481323,0.072265625,-0.997314453125,0.071533203125,-0.25190839694656486,-0.07633587786259542,-1.282442748091603
7.890057325363159,0.073974609375,-1.003662109375,0.068115234375,-0.13740458015267176,-0.19083969465648856,-1.4274809160305344
7.900055646896362,0.067626953125,-0.98486328125,0.069580078125,-0.5801526717557252,-0.1297709923664122,-1.4580152671755726
7.910057067871094,0.063232421875,-1.00634765625,0.076171875,-0.9541984732824428,-0.15267175572519084,-1.3893129770992367
7.920013904571533,0.070556640625,-0.998046875,0.05078125,-0.7175572519083969,-0.10687022900763359,-1.3206106870229009
7.930057048797607,0.069580078125,-1.001708984375,0.074951171875,-0.549618320610687,-0.08396946564885496,-1.5190839694656488
7.940057039260864,0.072998046875,-1.0048828125,0.064697265625,-0.25190839694656486,0.022900763358778626,-1.2595419847328244
7.950056314468384,0.071044921875,-1.005615234375,0.06689453125,-0.183206106870229,0.007633587786259542,-1.534351145038168
7.9600560665130615,0.068359375,-1.003173828125,0.0712890625,-0.21374045801526717,-0.0916030534351145,-1.4351145038167938
7.970056533813477,0.07568359375,-1.007080078125,0.06640625,-0.5572519083969466,0.05343511450381679,-1.282442748091603
7.980056047439575,0.066650390625,-1.003662109375,0.064453125,-0.648854961832061,-0.22137404580152673,-1.4809160305343512
7.990045785903931,0.065673828125,-1.015625,0.067626953125,-0.9083969465648855,0.015267175572519083,-1.4122137404580153
8.000056266784668,0.073486328125,-1.006103515625,0.070068359375,-0.6793893129770993,-0.12213740458015267,-1.282442748091603
8.010058164596558,0.07373046875,-1.001953125,0.056640625,-0.3893129770992366,0.05343511450381679,-1.4351145038167938
8.02005672454834,0.068115234375,-1.006103515625,0.06884765625,-0.16793893129770993,0.11450381679389313,-1.297709923664122
8.030060768127441,0.071533203125,-1.00390625,0.0654296875,-0.22900763358778625,0.015267175572519083,-1.549618320610687
8.040058374404907,0.06787109375,-0.999755859375,0.073486328125,-0.24427480916030533,-0.2900763358778626,-1.4351145038167938
8.050057888031006,0.069580078125,-1.005126953125,0.064697265625,-0.5725190839694656,-0.21374045801526717,-1.3740458015267176
8.060058116912842,0.068115234375,-1.011962890625,0.069580078125,-0.9541984732824428,0.03816793893129771,-1.3969465648854962
8.070058822631836,0.07275390625,-1.002197265625,0.076416015625,-0.6030534351145038,-0.15267175572519084,-1.2748091603053435
8.080057621002197,0.073974609375,-1.00341796875,0.05908203125,-0.5419847328244275,0.007633587786259542,-1.450381679389313
8.090059280395508,0.072265625,-1.0068359375,0.068603515625,-0.3053435114503817,-0.0916030534351145,-1.3587786259541985
8.100058555603027,0.065673828125,-1.006103515625,0.054443359375,-1.9541984732824427,1.9389312977099236,-1.5190839694656488
8.110057830810547,0.07080078125,-1.0107421875,0.06787109375,-0.22900763358778625,-0.17557251908396945,-1.5114503816793894
8.120058059692383,0.066162109375,-1.01123046875,0.076904296875,-0.16793893129770993,0.061068702290076333,-1.366412213740458
8.130057096481323,0.070556640625,-1.0107421875,0.07177734375,-0.6259541984732825,-0.04580152671755725,-1.465648854961832
8.140058040618896,0.067138671875,-1.001220703125,0.076904296875,-0.5877862595419847,-0.07633587786259542,-1.4427480916030535
8.150057792663574,0.0751953125,-1.003173828125,0.064208984375,-0.5877862595419847,-0.17557251908396945,-1.2290076335877862
8.16005825996399,0.076416015625,-1.004638671875,0.06689453125,-0.3511450381679389,0.04580152671755725,-1.3435114503816794
8.170058727264404,0.07177734375,-1.001708984375,0.062744140625,-0.16793893129770993,0.08396946564885496,-1.4732824427480915
8.180058717727661,0.077880859375,-1.0068359375,0.064453125,-0.1450381679389313,-0.15267175572519084,-1.3740458015267176
8.190058946609497,0.070068359375,-1.0078125,0.062744140625,-0.35877862595419846,-0.0916030534351145,-1.4961832061068703
8.200057983398438,0.0712890625,-1.000732421875,0.076904296875,-0.2366412213740458,-0.06870229007633588,-1.5648854961832062
8.21005916595459,0.06787109375,-0.985595703125,0.066162109375,-0.9083969465648855,-0.21374045801526717,-1.2290076335877862
8.220057964324951,0.0693359375,-1.0029296875,0.07421875,-0.6335877862595419,-0.19083969465648856,-1.366412213740458
8.230059385299683,0.06787109375,-1.001953125,0.072509765625,-0.5419847328244275,-0.15267175572519084,-1.4809160305343512
8.240057945251465,0.068603515625,-1.00732421875,0.0703125,-0.2595419847328244,-0.1984732824427481,-1.3511450381679388
8.250059604644775,0.076171875,-1.00146484375,0.065673828125,-0.1984732824427481,-0.061068702290076333,-1.3511450381679388
8.260057926177979,0.06884765625,-0.9921875,0.0693359375,-0.5343511450381679,-1.9541984732824427,-1.3511450381679388
8.270058631896973,0.07275390625,-1.0009765625,0.072265625,-0.366412213740458,-0.2824427480916031,-1.3282442748091603
8.280058860778809,0.0732421875,-1.001953125,0.061279296875,-0.549618320610687,-0.1297709923664122,-1.3893129770992367
8.29006028175354,0.0712890625,-0.999267578125,0.065673828125,-0.45038167938931295,-0.11450381679389313,-1.4351145038167938
8.300058364868164,0.07080078125,-0.998046875,0.06982421875,-0.46564885496183206,-0.0916030534351145,-1.3740458015267176
8.310059070587158,0.07080078125,-0.998291015625,0.0693359375,-0.09923664122137404,-0.030534351145038167,-1.4809160305343512
8.320058345794678,0.07177734375,-1.00537109375,0.060791015625,-0.183206106870229,-0.07633587786259542,-1.3893129770992367
8.330058097839355,0.070068359375,-1.002197265625,0.07373046875,-0.5572519083969466,0.16030534351145037,-1.1908396946564885
8.340058326721191,0.066650390625,-0.99951171875,0.049560546875,-0.5038167938931297,-0.12213740458015267,-1.3893129770992367
8.35005807876587,0.072509765625,-1.0146484375,0.074462890625,-0.6641221374045801,-0.09923664122137404,-1.297709923664122
8.360059022903442,0.07666015625,-0.998779296875,0.077392578125,-0.6412213740458015,-0.20610687022900764,-1.2366412213740459
8.37006139755249,0.076904296875,-1.006103515625,0.059326171875,-0.5725190839694656,-0.17557251908396945,-1.4732824427480915
8.38005805015564,0.06689453125,-1.001708984375,0.068359375,-0.3053435114503817,1.8931297709923665,-1.4274809160305344
8.390058994293213,0.071044921875,-1.001708984375,0.06884765625,-0.3435114503816794,-0.22137404580152673,-1.297709923664122
8.400058507919312,0.0703125,-1.00634765625,0.070068359375,-0.22900763358778625,-1.8931297709923665,-1.3358778625954197
8.410059213638306,0.070556640625,-0.98828125,0.063232421875,-0.4580152671755725,-0.1984732824427481,-1.2671755725190839
8.420058012008667,0.066650390625,-1.008056640625,0.07080078125,-0.4961832061068702,-0.06870229007633588,-1.4427480916030535
8.43005919456482,0.06787109375,-1.0009765625,0.0673828125,-0.6183206106870229,-0.061068702290076333,-1.4732824427480915
8.440058708190918,0.068359375,-1.005126953125,0.067626953125,-0.5267175572519084,-0.09923664122137404,-1.3358778625954197
8.450057744979858,0.070556640625,-1.002685546875,0.059326171875,-0.4122137404580153,-0.04580152671755725,-1.4045801526717556
8.460060596466064,0.071533203125,-1.002685546875,0.065673828125,-0.2595419847328244,-0.22137404580152673,-1.4351145038167938
8.470059156417847,0.07275390625,-1.003173828125,0.071044921875,-0.2748091603053435,0.0916030534351145,-1.4427480916030535
8.480057716369629,0.069091796875,-1.00244140625,0.07763671875,-0.20610687022900764,-0.11450381679389313,-1.366412213740458
8.490058660507202,0.074462890625,-1.00732421875,0.076416015625,-0.3053435114503817,-0.007633587786259542,-1.465648854961832
8.5000581741333,0.070068359375,-1.006591796875,0.07568359375,-0.5801526717557252,-0.20610687022900764,-1.3740458015267176
8.510058879852295,0.068359375,-1.00048828125,0.0703125,-0.6106870229007634,-0.030534351145038167,-1.5114503816793894
8.520060062408447,0.070068359375,-1.0009765625,0.06494140625,-0.6030534351145038,1.8931297709923665,-1.3053435114503817
8.530058145523071,0.064208984375,-1.008544921875,0.06591796875,-0.3282442748091603,-0.08396946564885496,-1.3893129770992367
8.540058851242065,0.068603515625,-1.0029296875,0.0693359375,-0.3435114503816794,-0.24427480916030533,-1.2595419847328244
8.550059080123901,0.06884765625,-1.003662109375,0.0732421875,-0.19083969465648856,-0.15267175572519084,-1.1755725190839694
8.560058116912842,0.072265625,-1.014892578125,0.06640625,-0.007633587786259542,-0.08396946564885496,-1.381679389312977
8.570059537887573,0.0703125,-1.0048828125,0.06884765625,-0.3511450381679389,-0.09923664122137404,-1.1374045801526718
8.580058097839355,0.073486328125,-0.996826171875,0.0712890625,-0.5114503816793893,-0.1297709923664122,-1.4045801526717556
8.590059518814087,0.06884765625,-1.00341796875,0.066162109375,-1.1145038167938932,-1.9236641221374047,-1.4122137404580153
8.600059270858765,0.06640625,-1.00390625,0.07568359375,-0.6870229007633588,-0.1984732824427481,-1.3206106870229009
8.610058307647705,0.07470703125,-0.99072265625,0.060546875,-0.5038167938931297,-0.007633587786259542,-1.3206106870229009
8.620059251785278,0.075927734375,-1.003173828125,0.05908203125,-0.366412213740458,0.0,-1.4885496183206106
8.630060195922852,0.072998046875,-1.009765625,0.060546875,-0.2824427480916031,-0.05343511450381679,-1.1908396946564885
8.640058994293213,0.07470703125,-0.99951171875,0.0673828125,-0.19083969465648856,0.20610687022900764,-1.4732824427480915
8.650059461593628,0.07421875,-0.9970703125,0.072021484375,-0.2900763358778626,-0.0916030534351145,-1.297709923664122
8.66005825996399,0.063232421875,-1.004638671875,0.06396484375,-0.40458015267175573,-1.9236641221374047,-1.4351145038167938
8.670059204101562,0.070068359375,-1.001220703125,0.06982421875,-0.8091603053435115,-0.06870229007633588,-1.3893129770992367
8.680059909820557,0.072021484375,-1.003173828125,0.068359375,-0.7099236641221374,-0.04580152671755725,-1.4580152671755726
8.690058469772339,0.065185546875,-1.00537109375,0.073974609375,-0.2748091603053435,-1.9389312977099236,-1.2061068702290076
8.700058221817017,0.067626953125,-1.00390625,0.062744140625,-0.366412213740458,-0.04580152671755725,-1.2290076335877862
8.71005916595459,0.0693359375,-0.9990234375,0.070068359375,-0.3893129770992366,0.06870229007633588,-1.450381679389313
8.720058679580688,0.06591796875,-1.006103515625,0.06640625,-0.20610687022900764,0.05343511450381679,-1.4961832061068703
8.730059146881104,0.0693359375,-1.001953125,0.06787109375,-0.5725190839694656,-0.12213740458015267,-1.2442748091603053
8.740058422088623,0.068115234375,-0.998779296875,0.066162109375,-0.7786259541984732,-0.24427480916030533,-1.2900763358778626
8.750059366226196,0.072998046875,-1.004150390625,0.063720703125,-0.4732824427480916,-0.015267175572519083,-1.2442748091603053
8.760058641433716,0.06591796875,-1.012939453125,0.0693359375,-0.4198473282442748,-0.030534351145038167,-1.3358778625954197
8.770060300827026,0.0712890625,-1.009033203125,0.060546875,-0.48854961832061067,-0.03816793893129771,-1.3358778625954197
8.780061960220337,0.0712890625,-1.0009765625,0.062744140625,-0.4198473282442748,-0.13740458015267176,-1.5038167938931297
8.790058851242065,0.075439453125,-1.003173828125,0.072509765625,-0.3511450381679389,-1.9083969465648856,-1.381679389312977
8.800058603286743,0.072998046875,-1.0029296875,0.069091796875,-0.6259541984732825,-0.13740458015267176,-1.4045801526717556
8.810058116912842,0.06591796875,-1.000732421875,0.06640625,-0.4580152671755725,0.21374045801526717,-1.366412213740458
8.820058107376099,0.0703125,-1.0048828125,0.069091796875,-0.3053435114503817,-0.1450381679389313,-1.5801526717557253
8.830059289932251,0.072021484375,-0.989990234375,0.06591796875,-0.3511450381679389,-0.0916030534351145,-1.4351145038167938
8.840058326721191,0.069580078125,-1.004638671875,0.06298828125,-0.366412213740458,1.9465648854961832,-1.3358778625954197
8.850059270858765,0.068359375,-1.001953125,0.073486328125,-0.4961832061068702,-0.22137404580152673,-1.4351145038167938
8.860058784484863,0.069091796875,-1.0048828125,0.0693359375,-0.48091603053435117,-1.9083969465648856,-1.2442748091603053
8.870057821273804,0.07373046875,-0.99951171875,0.060791015625,-0.35877862595419846,0.07633587786259542,-1.6488549618320612
8.880058765411377,0.0751953125,-0.999267578125,0.072265625,-0.5267175572519084,-0.08396946564885496,-1.2442748091603053
8.890058994293213,0.0703125,-1.00634765625,0.06640625,-0.32061068702290074,-0.09923664122137404,-1.465648854961832
8.900057792663574,0.0751953125,-0.986083984375,0.06982421875,-0.3893129770992366,-0.08396946564885496,-1.4122137404580153
8.91006326675415,0.070068359375,-1.003173828125,0.07275390625,-0.35877862595419846,-0.1297709923664122,-1.3435114503816794
8.92005968093872,0.070556640625,-0.99951171875,0.061767578125,-0.5190839694656488,-0.06870229007633588,-1.1145038167938932
8.93006157875061,0.065673828125,-1.003662109375,0.066162109375,-0.648854961832061,-0.03816793893129771,-1.5038167938931297
8.940058946609497,0.068603515625,-1.0087890625,0.064453125,-0.549618320610687,-0.1297709923664122,-1.3053435114503817
8.950059652328491,0.065673828125,-1.009521484375,0.06494140625,-0.7099236641221374,-0.09923664122137404,-1.5190839694656488
8.960058450698853,0.07275390625,-1.00244140625,0.066650390625,-0.2900763358778626,-0.22900763358778625,-1.2366412213740459
8.970059871673584,0.073974609375,-1.000244140625,0.065673828125,-0.45038167938931295,-0.29770992366412213,-1.549618320610687
8.980057954788208,0.068115234375,-0.99951171875,0.06689453125,-0.366412213740458,1.9465648854961832,-1.4809160305343512
8.99005913734436,0.0712890625,-1.002197265625,0.0625,-0.13740458015267176,0.04580152671755725,-1.381679389312977
9.000059366226196,0.071044921875,-1.001953125,0.072509765625,-0.3969465648854962,-0.32061068702290074,-1.2366412213740459
9.01006293296814,0.071044921875,-1.00537109375,0.06884765625,-0.5572519083969466,1.900763358778626,-1.2061068702290076
9.020061016082764,0.0732421875,-1.000244140625,0.064453125,-0.7022900763358778,-0.05343511450381679,-1.3358778625954197
9.0300612449646,0.06494140625,-1.008056640625,0.072509765625,-0.48854961832061067,-0.05343511450381679,-1.3282442748091603
9.040058135986328,0.070556640625,-1.005126953125,0.064453125,-0.5038167938931297,-0.12213740458015267,-1.4045801526717556
9.050058603286743,0.072021484375,-1.00390625,0.07373046875,-0.26717557251908397,-0.061068702290076333,-1.450381679389313
9.060057401657104,0.067626953125,-1.0068359375,0.066650390625,-0.22900763358778625,-0.1450381679389313,-1.3282442748091603
9.070058345794678,0.078857421875,-0.99951171875,0.07080078125,1.9389312977099236,0.0,-1.2213740458015268
9.080058574676514,0.0751953125,-1.0068359375,0.064453125,-0.3435114503816794,-1.9465648854961832,-1.3740458015267176
9.090059280395508,0.06591796875,-1.004150390625,0.072509765625,-0.5267175572519084,-0.05343511450381679,-1.3511450381679388
9.10005807876587,0.073486328125,-0.999267578125,0.06640625,-0.5877862595419847,-0.12213740458015267,-1.4274809160305344
9.11005711555481,0.073486328125,-0.9990234375,0.0732421875,-0.5267175572519084,1.9389312977099236,-1.549618320610687
9.120057582855225,0.0654296875,-0.98779296875,0.071044921875,-0.44274809160305345,-0.015267175572519083,-1.16793893129771
9.13005781173706,0.075439453125,-1.006591796875,0.07373046875,-0.4198473282442748,-0.25190839694656486,-1.5038167938931297
9.140058517456055,0.07080078125,-0.9990234375,0.06396484375,-0.3282442748091603,-0.10687022900763359,-1.2748091603053435
9.150076866149902,0.07470703125,-1.0029296875,0.067626953125,-0.2748091603053435,0.04580152671755725,-1.3969465648854962
9.160058975219727,0.070068359375,-1.004150390625,0.0625,-0.2824427480916031,-0.1450381679389313,-1.2213740458015268
9.170058488845825,0.06494140625,-1.004638671875,0.0654296875,-0.5877862595419847,0.11450381679389313,-1.2900763358778626
9.180058717727661,0.074462890625,-1.005126953125,0.06103515625,-0.6641221374045801,-1.916030534351145,-1.2290076335877862
9.19005823135376,0.069091796875,-1.0048828125,0.05029296875,-0.5877862595419847,1.9465648854961832,-1.4580152671755726
9.200058221817017,0.0712890625,-1.0048828125,0.067626953125,-0.2900763358778626,-0.015267175572519083,-1.4274809160305344
9.21005916595459,0.075927734375,-1.0029296875,0.076904296875,-0.21374045801526717,-0.10687022900763359,-1.4198473282442747
9.22005844116211,0.075927734375,-0.995849609375,0.05908203125,-0.2900763358778626,-0.42748091603053434,-1.465648854961832
9.230058908462524,0.07275390625,-1.0,0.0615234375,-0.5572519083969466,-0.061068702290076333,-1.1526717557251909
9.24005913734436,0.06982421875,-1.00439453125,0.064697265625,-0.3969465648854962,-0.06870229007633588,-1.3511450381679388
9.250064611434937,0.0693359375,-1.006591796875,0.06201171875,-0.5038167938931297,-0.12213740458015267,-1.2671755725190839
9.260058641433716,0.071044921875,-0.98828125,0.064697265625,-0.5190839694656488,-0.21374045801526717,-1.3129770992366412
9.270058631896973,0.073486328125,-1.00634765625,0.06298828125,-0.366412213740458,-0.12213740458015267,-1.3587786259541985
9.280081987380981,0.07177734375,-0.99951171875,0.06640625,-0.24427480916030533,-0.015267175572519083,-1.4045801526717556
9.290058851242065,0.069091796875,-1.005615234375,0.06884765625,-0.40458015267175573,-0.1984732824427481,-1.3435114503816794
9.300058126449585,0.069091796875,-1.004150390625,0.07373046875,-0.37404580152671757,0.0916030534351145,-1.3969465648854962
9.310059785842896,0.06884765625,-1.001708984375,0.072998046875,-0.5267175572519084,-1.9465648854961832,-1.3282442748091603
9.320058345794678,0.0751953125,-1.00244140625,0.062744140625,-0.3511450381679389,-0.07633587786259542,-1.2213740458015268
9.330059289932251,0.07080078125,-1.010498046875,0.07080078125,-0.6564885496183206,0.0,-1.4122137404580153
9.340058326721191,0.06884765625,-1.00244140625,0.05029296875,-0.4198473282442748,-0.05343511450381679,-1.4427480916030535
9.35006594657898,0.073486328125,-1.000732421875,0.073486328125,-0.6183206106870229,-0.2824427480916031,-1.3969465648854962
9.360058546066284,0.066650390625,-1.008056640625,0.063720703125,-0.3511450381679389,0.0916030534351145,-1.450381679389313
9.370059490203857,0.07177734375,-1.000732421875,0.06787109375,-0.2748091603053435,-0.0916030534351145,-1.5572519083969465
9.38005805015564,0.07470703125,-1.00634765625,0.06298828125,-0.31297709923664124,-0.022900763358778626,-1.5190839694656488
9.390059471130371,0.0693359375,-1.00146484375,0.072021484375,-0.3282442748091603,1.9389312977099236,-1.6030534351145038
9.400058507919312,0.066162109375,-1.005615234375,0.063232421875,-0.6870229007633588,-0.061068702290076333,-1.465648854961832
9.410059213638306,0.072265625,-1.013427734375,0.0771484375,-0.549618320610687,-0.030534351145038167,-1.5954198473282444
9.420058012008667,0.06494140625,-1.00048828125,0.073486328125,-0.7404580152671756,-0.16793893129770993,-1.3969465648854962
9.430059671401978,0.064453125,-0.998779296875,0.0693359375,-0.5343511450381679,-0.03816793893129771,-1.4732824427480915
9.44005823135376,0.063720703125,-1.00732421875,0.066650390625,-0.3435114503816794,-1.9541984732824427,-1.3435114503816794
9.450063467025757,0.070556640625,-1.003173828125,0.072509765625,-0.3893129770992366,-0.05343511450381679,-1.3435114503816794
9.460058689117432,0.0712890625,-1.004638671875,0.064208984375,-0.37404580152671757,-0.22137404580152673,-1.4274809160305344
9.470058679580688,0.06787109375,-1.000244140625,0.07421875,-0.29770992366412213,-0.05343511450381679,-1.5572519083969465
9.480057954788208,0.072998046875,-1.0029296875,0.05224609375,-0.4122137404580153,0.04580152671755725,-1.4732824427480915
9.490059614181519,0.07373046875,-1.009033203125,0.07421875,-0.7557251908396947,-0.061068702290076333,-1.3435114503816794
9.500058889389038,0.072998046875,-1.001220703125,0.0625,-0.6183206106870229,-0.16030534351145037,-1.2366412213740459
9.510058164596558,0.07275390625,-0.998779296875,0.072021484375,-0.4122137404580153,-0.1297709923664122,-1.3129770992366412
9.520057916641235,0.067138671875,-1.00341796875,0.06884765625,-0.3893129770992366,-0.22900763358778625,-1.4198473282442747
9.530059576034546,0.06689453125,-1.005615234375,0.0654296875,-0.12213740458015267,-0.16793893129770993,-1.297709923664122
9.54005765914917,0.072509765625,-0.9990234375,0.07373046875,-0.183206106870229,-0.11450381679389313,-1.2671755725190839
9.550066709518433,0.074462890625,-1.005615234375,0.072265625,-0.46564885496183206,-1.916030534351145,-1.5190839694656488
9.560059070587158,0.069091796875,-1.015380859375,0.072265625,-0.5877862595419847,-0.015267175572519083,-1.3893129770992367
9.570058345794678,0.0751953125,-1.001220703125,0.069091796875,-0.7938931297709924,-0.11450381679389313,-1.4351145038167938
9.580057859420776,0.0693359375,-1.002197265625,0.06689453125,-0.7633587786259542,-0.04580152671755725,-1.4198473282442747
9.59005856513977,0.065185546875,-1.0029296875,0.058837890625,-0.4351145038167939,-0.19083969465648856,-1.183206106870229
9.600058555603027,0.0712890625,-1.004638671875,0.063720703125,-0.25190839694656486,-1.9541984732824427,-1.3358778625954197
9.6100594997406,0.0703125,-1.001953125,0.049560546875,-0.16793893129770993,-0.3511450381679389,-1.4351145038167938
9.620059251785278,0.068603515625,-0.98583984375,0.067626953125,-0.33587786259541985,0.030534351145038167,-1.3053435114503817
9.630059957504272,0.0703125,-1.00634765625,0.070556640625,-0.5114503816793893,0.03816793893129771,-1.366412213740458
9.640058517456055,0.068359375,-1.006103515625,0.0673828125,-0.7099236641221374,-0.030534351145038167,-1.3435114503816794
9.650060176849365,0.067626953125,-1.00341796875,0.060302734375,-0.7786259541984732,-0.11450381679389313,-1.3435114503816794
9.660058498382568,0.06787109375,-1.0048828125,0.064697265625,-0.5419847328244275,-0.09923664122137404,-1.3358778625954197
9.670058488845825,0.07080078125,-1.004150390625,0.053955078125,-0.5267175572519084,-0.06870229007633588,-1.5419847328244274
9.680058002471924,0.074462890625,-1.0048828125,0.0634765625,-0.11450381679389313,-0.09923664122137404,-1.3358778625954197
9.690059900283813,0.07080078125,-1.00732421875,0.073486328125,-0.17557251908396945,1.9389312977099236,-1.3053435114503817
9.700058698654175,0.0673828125,-1.000244140625,0.072998046875,-0.17557251908396945,-0.08396946564885496,-1.4809160305343512
9.710059404373169,0.072998046875,-1.00439453125,0.065673828125,-0.4351145038167939,0.09923664122137404,-1.3740458015267176
9.72005844116211,0.07666015625,-1.00439453125,0.07373046875,-0.8015267175572519,0.12213740458015267,-1.4274809160305344
9.730061531066895,0.06494140625,-1.008544921875,0.06494140625,-0.8244274809160306,-0.10687022900763359,-1.2213740458015268
9.740058183670044,0.0693359375,-1.005615234375,0.060302734375,-0.7938931297709924,0.0916030534351145,-1.4351145038167938
9.750058889389038,0.071533203125,-1.005615234375,0.06982421875,-0.21374045801526717,-0.06870229007633588,-1.3893129770992367
9.760057926177979,0.066162109375,-1.008056640625,0.0625,-0.1984732824427481,-0.26717557251908397,-1.2442748091603053
9.770057678222656,0.072998046875,-1.013671875,0.074951171875,-0.09923664122137404,-1.9465648854961832,-1.366412213740458
9.780058145523071,0.06494140625,-0.998046875,0.078369140625,-0.32061068702290074,1.9465648854961832,-1.3511450381679388
9.790058135986328,0.069091796875,-1.004638671875,0.060302734375,-0.5954198473282443,-0.1984732824427481,-1.3282442748091603
9.800058603286743,0.0712890625,-1.008056640625,0.068359375,-0.5038167938931297,-0.030534351145038167,-1.5038167938931297
9.810059547424316,0.067626953125,-0.99267578125,0.070068359375,-0.31297709923664124,-1.9312977099236641,-1.297709923664122
9.820058584213257,0.070068359375,-1.004150390625,0.078369140625,-0.4198473282442748,0.022900763358778626,-1.5725190839694656
9.83005952835083,0.0654296875,-1.001953125,0.05322265625,-0.3282442748091603,-0.0916030534351145,-1.3740458015267176
9.840057849884033,0.073974609375,-1.005126953125,0.0771484375,-0.5648854961832062,0.08396946564885496,-1.2290076335877862
