Time(s),AccX,AccY,AccZ,GyrX,GyrY,GyrZ
2.384185791015625e-06,-0.907958984375,0.075439453125,-0.154052734375,-0.24427480916030533,0.916030534351145,-1.251908396946565
0.010059118270874023,-0.91552734375,0.06396484375,-0.1337890625,-0.2900763358778626,1.015267175572519,-1.3740458015267176
0.02005600929260254,-0.913818359375,0.09033203125,-0.14013671875,-0.3511450381679389,0.5801526717557252,-1.3587786259541985
0.030058622360229492,-0.91064453125,0.0849609375,-0.138916015625,-0.5190839694656488,-0.6946564885496184,-1.5419847328244274
0.04005575180053711,-0.917236328125,0.0859375,-0.138427734375,-0.5114503816793893,-1.1068702290076335,-1.534351145038168
0.05005502700805664,-0.910400390625,0.08056640625,-0.139404296875,-0.3969465648854962,-0.5648854961832062,-1.3206106870229009
0.06005406379699707,-0.9072265625,0.071533203125,-0.13671875,-0.48854961832061067,0.29770992366412213,-1.3358778625954197
0.0700540542602539,-0.911865234375,0.07275390625,-0.140869140625,-0.5190839694656488,0.8244274809160306,-1.381679389312977
0.08005404472351074,-0.913330078125,0.093505859375,-0.12646484375,-0.42748091603053434,0.04580152671755725,-1.4122137404580153
0.09005403518676758,-0.91748046875,0.07763671875,-0.13232421875,-0.3893129770992366,-0.04580152671755725,-1.4580152671755726
0.10005402565002441,-0.91455078125,0.083740234375,-0.139404296875,-0.42748091603053434,0.10687022900763359,-1.3282442748091603
0.11005473136901855,-0.908203125,0.081787109375,-0.1376953125,-0.4580152671755725,0.7938931297709924,-1.3435114503816794
0.12005424499511719,-0.918701171875,0.080322265625,-0.140625,-0.5038167938931297,0.12213740458015267,-1.6870229007633588
0.13005471229553223,-0.912109375,0.078125,-0.150634765625,-0.5572519083969466,-0.3511450381679389,-1.5877862595419847
0.14005494117736816,-0.91455078125,0.067138671875,-0.130126953125,-0.2824427480916031,-0.44274809160305345,-1.6106870229007633
0.1500542163848877,-0.912109375,0.071044921875,-0.149169921875,-0.6030534351145038,-0.12213740458015267,-1.6259541984732824
0.16001486778259277,-0.915283203125,0.076416015625,-0.132080078125,-0.3816793893129771,0.4580152671755725,-1.3206106870229009
0.17005443572998047,-0.912353515625,0.079345703125,-0.14208984375,-0.4580152671755725,1.0763358778625953,-1.3435114503816794
0.1800553798675537,-0.907958984375,0.082763671875,-0.138427734375,-0.4122137404580153,0.6717557251908397,-1.6793893129770991
0.19005441665649414,-0.910888671875,0.08251953125,-0.13818359375,-0.42748091603053434,0.16793893129770993,-1.4122137404580153
0.20005416870117188,-0.906494140625,0.079345703125,-0.142578125,-0.4198473282442748,-0.42748091603053434,-1.3435114503816794
0.2100541591644287,-0.91259765625,0.089599609375,-0.14013671875,-0.29770992366412213,-0.3435114503816794,-1.465648854961832
0.22005414962768555,-0.916015625,0.076171875,-0.140380859375,-0.6183206106870229,-0.030534351145038167,-1.4732824427480915
0.23005461692810059,-0.915283203125,0.07470703125,-0.132080078125,-0.40458015267175573,0.4580152671755725,-1.297709923664122
0.24005365371704102,-0.911865234375,0.088623046875,-0.142578125,-0.26717557251908397,0.9236641221374046,-1.3053435114503817
0.25005388259887695,-0.915283203125,0.08642578125,-0.14208984375,-0.2900763358778626,0.648854961832061,-1.3587786259541985
0.2600541114807129,-0.90869140625,0.08349609375,-0.140380859375,-0.2595419847328244,0.08396946564885496,-1.4198473282442747
0.27005481719970703,-0.910888671875,0.082275390625,-0.136962890625,-0.7633587786259542,-0.6335877862595419,-1.4427480916030535
0.28005385398864746,-0.91015625,0.090087890625,-0.13671875,-0.3282442748091603,-0.8702290076335878,-1.4274809160305344
0.2900536060333252,-0.8935546875,0.074951171875,-0.131103515625,-0.4122137404580153,-0.05343511450381679,-1.366412213740458
0.30005431175231934,-0.908447265625,0.077392578125,-0.135009765625,-0.2900763358778626,0.48854961832061067,-1.2595419847328244
0.31001901626586914,-0.910888671875,0.08544921875,-0.12548828125,-0.2595419847328244,1.2442748091603053,-1.297709923664122
0.3200545310974121,-0.90625,0.08251953125,-0.147216796875,-0.3053435114503817,0.8702290076335878,-1.3053435114503817
0.33005523681640625,-0.9052734375,0.085693359375,-0.1455078125,-0.48091603053435117,0.1450381679389313,-1.4809160305343512
0.340054988861084,-0.908935546875,0.0771484375,-0.1435546875,-0.40458015267175573,-0.8244274809160306,-1.465648854961832
0.3500547409057617,-0.913818359375,0.0771484375,-0.15283203125,-0.4732824427480916,-1.0534351145038168,-1.4274809160305344
0.36005377769470215,-0.906982421875,0.07177734375,-0.137451171875,-0.4198473282442748,-0.4732824427480916,-1.4885496183206106
0.370053768157959,-0.90966796875,0.07470703125,-0.13037109375,-0.48091603053435117,0.44274809160305345,-1.381679389312977
0.3800544738769531,-0.915283203125,0.078125,-0.138671875,-0.4198473282442748,0.24427480916030533,-1.083969465648855
0.39005470275878906,-0.900146484375,0.089599609375,-0.140869140625,-0.04580152671755725,-0.45038167938931295,-1.3969465648854962
0.4000539779663086,-0.90625,0.086181640625,-0.14306640625,-0.2824427480916031,0.648854961832061,-1.534351145038168
0.41005444526672363,-0.8935546875,0.075439453125,-0.14404296875,-0.5343511450381679,1.4045801526717556,-1.1221374045801527
0.42005348205566406,-0.91064453125,0.072021484375,-0.147705078125,-0.45038167938931295,0.25190839694656486,-1.5190839694656488
0.4300541877746582,-0.9111328125,0.066650390625,-0.14990234375,-0.22137404580152673,-1.2671755725190839,-1.7251908396946565
0.44005417823791504,-0.91259765625,0.073486328125,-0.13671875,-0.33587786259541985,-1.2290076335877862,-1.1908396946564885
0.4500539302825928,-0.904296875,0.096923828125,-0.130615234375,-0.29770992366412213,0.9312977099236641,-1.213740458015267
0.46001243591308594,-0.900634765625,0.072998046875,-0.126708984375,-0.8320610687022901,1.381679389312977,-1.7404580152671756
0.47005414962768555,-0.911865234375,0.078857421875,-0.133056640625,-0.4732824427480916,-0.7709923664122137,-1.366412213740458
0.4800558090209961,-0.90966796875,0.08203125,-0.13525390625,-0.2900763358778626,-1.4427480916030535,-1.8244274809160306
0.4900548458099365,-0.918701171875,0.073974609375,-0.138671875,-0.21374045801526717,-1.9389312977099236,-1.0534351145038168
0.500054121017456,-0.9091796875,0.063232421875,-0.150146484375,-0.3893129770992366,2.3435114503816794,-1.2061068702290076
0.5100550651550293,-0.9072265625,0.08251953125,-0.1513671875,-0.549618320610687,1.6259541984732824,-1.3587786259541985
0.5200541019439697,-0.910888671875,0.076904296875,-0.14453125,-0.33587786259541985,-1.4122137404580153,-1.6793893129770991
0.5300540924072266,-0.909912109375,0.0830078125,-0.139404296875,-0.33587786259541985,-3.213740458015267,-1.5114503816793894
0.5400543212890625,-0.90771484375,0.078125,-0.126708984375,-0.3969465648854962,-1.5190839694656488,-1.6488549618320612
0.5500547885894775,-0.91357421875,0.06298828125,-0.133056640625,-0.2595419847328244,1.3129770992366412,-1.1755725190839694
0.5600543022155762,-0.90966796875,0.064453125,-0.141357421875,-0.16793893129770993,2.763358778625954,-1.1984732824427482
0.570054292678833,-0.920166015625,0.07373046875,-0.15380859375,-0.3816793893129771,1.1297709923664123,-1.3358778625954197
0.580054521560669,-0.908203125,0.077392578125,-0.143310546875,-0.5190839694656488,-1.5114503816793894,-1.5572519083969465
0.5900540351867676,-0.91064453125,0.079833984375,-0.143798828125,-0.5190839694656488,-2.030534351145038,-1.4045801526717556
0.6000547409057617,-0.907958984375,0.08251953125,-0.136474609375,-0.2824427480916031,-0.5419847328244275,-1.2748091603053435
0.6100113391876221,-0.912841796875,0.07763671875,-0.13916015625,-0.4580152671755725,1.16793893129771,-1.3435114503816794
0.6200544834136963,-0.9130859375,0.084716796875,-0.142822265625,-0.3282442748091603,0.9694656488549618,-1.4809160305343512
0.6300547122955322,-0.900390625,0.06640625,-0.130615234375,-0.33587786259541985,-0.2900763358778626,-1.6946564885496183
0.6400549411773682,-0.916259765625,0.07568359375,-0.1376953125,-0.46564885496183206,-1.1068702290076335,-1.5419847328244274
0.6500546932220459,-0.911376953125,0.07470703125,-0.135498046875,-0.5343511450381679,-0.2595419847328244,-1.5038167938931297
0.6600539684295654,-0.906494140625,0.078125,-0.148193359375,-0.5572519083969466,1.1297709923664123,-1.251908396946565
0.6700544357299805,-0.913818359375,0.078369140625,-0.13720703125,-0.3969465648854962,0.7022900763358778,-1.381679389312977
0.6800553798675537,-0.91259765625,0.079833984375,-0.145751953125,-0.5267175572519084,-0.6030534351145038,-1.6412213740458015
0.6900544166564941,-0.914306640625,0.07470703125,-0.13427734375,-0.48854961832061067,-1.549618320610687,-1.5572519083969465
0.700054407119751,-0.921142578125,0.08203125,-0.12841796875,-0.17557251908396945,-0.8320610687022901,-1.3129770992366412
0.7100543975830078,-0.921142578125,0.0693359375,-0.133056640625,-0.6106870229007634,0.8320610687022901,-1.297709923664122
0.7200520038604736,-0.90966796875,0.083251953125,-0.14013671875,-0.3435114503816794,1.366412213740458,-1.2671755725190839
0.7300536632537842,-0.9091796875,0.07861328125,-0.1474609375,-0.6259541984732825,0.648854961832061,-1.6106870229007633
0.7400541305541992,-0.915771484375,0.07763671875,-0.14501953125,-0.5572519083969466,-0.7099236641221374,-1.282442748091603
0.750053882598877,-0.908447265625,0.07568359375,-0.1484375,-0.2595419847328244,-1.1526717557251909,-1.534351145038168
0.760054349899292,-0.912841796875,0.07666015625,-0.134033203125,-0.35877862595419846,-0.2900763358778626,-1.5114503816793894
0.770054817199707,-0.91455078125,0.07568359375,-0.13671875,-0.4580152671755725,0.46564885496183206,-1.4351145038167938
0.7800538539886475,-0.913330078125,0.065673828125,-0.155029296875,-0.183206106870229,0.4961832061068702,-1.3893129770992367
0.7900545597076416,-0.916015625,0.078857421875,-0.1416015625,-0.3511450381679389,-0.06870229007633588,-1.3969465648854962
0.800053596496582,-0.910400390625,0.0791015625,-0.142333984375,-0.4351145038167939,-0.2595419847328244,-1.2671755725190839
0.8100545406341553,-0.90869140625,0.08203125,-0.14208984375,-0.6335877862595419,0.1450381679389313,-1.3435114503816794
0.820054292678833,-0.912353515625,0.075439453125,-0.140869140625,-0.31297709923664124,0.732824427480916,-1.251908396946565
0.8300535678863525,-0.915283203125,0.083251953125,-0.1416015625,-0.5114503816793893,1.8854961832061068,-1.4885496183206106
0.8400545120239258,-0.91015625,0.091064453125,-0.140625,-0.37404580152671757,-0.7786259541984732,-1.549618320610687
0.8500540256500244,-0.89453125,0.09326171875,-0.137939453125,-0.5648854961832062,-1.0305343511450382,-1.5572519083969465
0.8600544929504395,-0.912109375,0.07568359375,-0.13916015625,-0.3969465648854962,-0.19083969465648856,-1.4045801526717556
0.8700149059295654,-0.911376953125,0.076171875,-0.14111328125,-0.2900763358778626,0.5954198473282443,-1.282442748091603
0.8800549507141113,-0.908203125,0.08544921875,-0.14013671875,-0.31297709923664124,1.1908396946564885,-1.450381679389313
0.8900549411773682,-0.90673828125,0.076416015625,-0.14990234375,-0.4122137404580153,0.2824427480916031,-1.4961832061068703
0.9000551700592041,-0.911376953125,0.07861328125,-0.1484375,-0.45038167938931295,-0.8244274809160306,-1.4732824427480915
0.9100549221038818,-0.909423828125,0.07373046875,-0.13671875,-0.549618320610687,-0.9312977099236641,-1.4809160305343512
0.9200549125671387,-0.909423828125,0.080078125,-0.1279296875,-0.5648854961832062,-0.648854961832061,-1.3435114503816794
0.9300534725189209,-0.911865234375,0.078125,-0.1357421875,-0.5648854961832062,0.7938931297709924,-1.251908396946565
0.9400548934936523,-0.9130859375,0.075439453125,-0.132568359375,-0.3969465648854962,0.9923664122137404,-1.5419847328244274
0.9500546455383301,-0.90966796875,0.076416015625,-0.153564453125,-0.3435114503816794,0.46564885496183206,-1.3740458015267176
0.9600541591644287,-0.910400390625,0.0810546875,-0.146484375,-0.183206106870229,-0.31297709923664124,-1.4885496183206106
0.9700548648834229,-0.9140625,0.087158203125,-0.142822265625,-0.5419847328244275,-0.8396946564885496,-1.5267175572519085
0.9800543785095215,-0.9111328125,0.0927734375,-0.126953125,-0.5648854961832062,-0.8091603053435115,-1.3893129770992367
0.9900546073913574,-0.908935546875,0.063720703125,-0.150146484375,-0.31297709923664124,-0.1297709923664122,-1.2748091603053435
1.000054121017456,-0.914306640625,0.076904296875,-0.12548828125,-0.3435114503816794,0.16793893129770993,-1.4122137404580153
1.010054111480713,-0.913330078125,0.079833984375,-0.14501953125,-0.549618320610687,0.4580152671755725,-1.4045801526717556
1.0200254917144775,-0.9150390625,0.073486328125,-0.143798828125,-0.2900763358778626,0.061068702290076333,-1.4961832061068703
1.0300540924072266,-0.913330078125,0.0771484375,-0.13427734375,-0.5648854961832062,0.12213740458015267,-1.4351145038167938
1.0400550365447998,-0.910400390625,0.06591796875,-0.14794921875,-0.5038167938931297,-0.37404580152671757,-1.5190839694656488
1.0500540733337402,-0.90966796875,0.09130859375,-0.138427734375,-0.46564885496183206,-0.3282442748091603,-1.5038167938931297
1.060054063796997,-0.91064453125,0.0830078125,-0.152099609375,-0.45038167938931295,-0.6106870229007634,-1.4351145038167938
1.0700547695159912,-0.908935546875,0.085693359375,-0.1357421875,-0.44274809160305345,-0.061068702290076333,-1.3511450381679388
1.0800538063049316,-0.910400390625,0.079833984375,-0.149169921875,-0.33587786259541985,0.26717557251908397,-1.2671755725190839
1.0900545120239258,-0.908447265625,0.078857421875,-0.14599609375,-0.366412213740458,0.24427480916030533,-1.465648854961832
1.1000537872314453,-0.90673828125,0.078857421875,-0.143798828125,-0.3511450381679389,0.183206106870229,-1.3511450381679388
1.1100544929504395,-0.91552734375,0.077392578125,-0.142333984375,-0.4351145038167939,-0.09923664122137404,-1.618320610687023
1.120053768157959,-0.9130859375,0.064453125,-0.136474609375,-0.35877862595419846,-0.3816793893129771,-1.4732824427480915
1.130054235458374,-0.912841796875,0.063232421875,-0.139892578125,-0.5725190839694656,-0.45038167938931295,-1.3893129770992367
1.14005446434021,-0.914794921875,0.075439453125,-0.137939453125,-0.4351145038167939,0.06870229007633588,-1.3129770992366412
1.1500539779663086,-0.90869140625,0.080810546875,-0.13037109375,-0.3893129770992366,0.21374045801526717,-1.5419847328244274
1.1600542068481445,-0.914306640625,0.07568359375,-0.140625,-0.37404580152671757,0.08396946564885496,-1.5572519083969465
1.1700146198272705,-0.913818359375,0.072509765625,-0.145263671875,-0.3282442748091603,-0.16030534351145037,-1.4961832061068703
1.1800546646118164,-0.916748046875,0.068603515625,-0.1416015625,-0.6030534351145038,-0.22137404580152673,-1.2213740458015268
1.1900553703308105,-0.914306640625,0.0791015625,-0.139892578125,-0.5038167938931297,-0.40458015267175573,-1.4809160305343512
1.200054407119751,-0.91259765625,0.074951171875,-0.12841796875,-0.2748091603053435,-0.10687022900763359,-1.3893129770992367
1.210054874420166,-0.910400390625,0.078857421875,-0.140869140625,-0.4580152671755725,-0.007633587786259542,-1.366412213740458
1.2200543880462646,-0.911865234375,0.077880859375,-0.149658203125,-0.37404580152671757,-0.03816793893129771,-1.465648854961832
1.2300543785095215,-0.919677734375,0.07470703125,-0.142822265625,-0.3435114503816794,0.0,-1.450381679389313
1.2400541305541992,-0.907958984375,0.07421875,-0.14501953125,-0.4198473282442748,0.13740458015267176,-1.3893129770992367
1.2500543594360352,-0.90771484375,0.077880859375,-0.14697265625,-0.6183206106870229,-0.03816793893129771,-1.3129770992366412
1.2600538730621338,-0.915283203125,0.0625,-0.140869140625,-0.26717557251908397,-0.10687022900763359,-1.5038167938931297
1.2700541019439697,-0.9111328125,0.093017578125,-0.154296875,-0.37404580152671757,-0.3816793893129771,-1.3206106870229009
1.2800536155700684,-0.913818359375,0.078369140625,-0.1533203125,-0.5038167938931297,-0.08396946564885496,-1.4427480916030535
1.2900545597076416,-0.911865234375,0.077392578125,-0.1474609375,-0.4351145038167939,-0.06870229007633588,-1.3969465648854962
1.3000538349151611,-0.913330078125,0.075439453125,-0.139404296875,-0.4122137404580153,0.0916030534351145,-1.3282442748091603
1.3100545406341553,-0.912353515625,0.08056640625,-0.142822265625,-0.3282442748091603,0.19083969465648856,-1.4045801526717556
1.3200173377990723,-0.91455078125,0.075439453125,-0.138427734375,-0.5114503816793893,-0.22900763358778625,-1.366412213740458
1.3300540447235107,-0.91357421875,0.0625,-0.135986328125,-0.4580152671755725,-0.19083969465648856,-1.3435114503816794
1.3400547504425049,-0.915283203125,0.0751953125,-0.13330078125,-0.3816793893129771,-0.2900763358778626,-1.534351145038168
1.3500542640686035,-0.9111328125,0.08349609375,-0.13916015625,-0.3969465648854962,-0.061068702290076333,-1.2900763358778626
1.3600540161132812,-0.907470703125,0.0791015625,-0.13818359375,-0.19083969465648856,0.06870229007633588,-1.4580152671755726
1.3700535297393799,-0.9072265625,0.076416015625,-0.140625,-0.3053435114503817,0.061068702290076333,-1.282442748091603
1.380054235458374,-0.91357421875,0.09130859375,-0.142578125,-0.366412213740458,1.9083969465648856,-1.3893129770992367
1.3900542259216309,-0.910888671875,0.06591796875,-0.13037109375,-0.3511450381679389,0.05343511450381679,-1.4809160305343512
1.400054931640625,-0.910888671875,0.06396484375,-0.137939453125,-0.37404580152671757,-0.11450381679389313,-1.549618320610687
1.4100542068481445,-0.914794921875,0.079833984375,-0.138671875,-0.46564885496183206,-0.16030534351145037,-1.2671755725190839
1.4200549125671387,-0.909912109375,0.0732421875,-0.145263671875,-0.5267175572519084,-0.183206106870229,-1.534351145038168
1.430053472518921,-0.908203125,0.075439453125,-0.1416015625,-0.25190839694656486,-0.13740458015267176,-1.3129770992366412
1.4400548934936523,-0.9169921875,0.0771484375,-0.140625,-0.5954198473282443,0.06870229007633588,-1.2442748091603053
1.4500539302825928,-0.91552734375,0.089111328125,-0.146240234375,-0.40458015267175573,0.20610687022900764,-1.4198473282442747
1.4600543975830078,-0.91650390625,0.07763671875,-0.1357421875,-0.4351145038167939,0.022900763358778626,-1.4885496183206106
1.4700124263763428,-0.91259765625,0.075927734375,-0.129150390625,-0.366412213740458,0.0,-1.4961832061068703
1.4800548553466797,-0.90869140625,0.074951171875,-0.132080078125,-0.46564885496183206,-0.22137404580152673,-1.5114503816793894
1.4900548458099365,-0.9130859375,0.07470703125,-0.14013671875,-0.5801526717557252,0.05343511450381679,-1.5648854961832062
1.5000543594360352,-0.909423828125,0.078125,-0.140625,-0.31297709923664124,0.26717557251908397,-1.3435114503816794
1.5100536346435547,-0.91650390625,0.084716796875,-0.1474609375,-0.4122137404580153,-0.0916030534351145,-1.3587786259541985
1.5200543403625488,-0.912353515625,0.078369140625,-0.147216796875,-0.3893129770992366,-0.19083969465648856,-1.549618320610687
1.5300543308258057,-0.91162109375,0.0625,-0.128662109375,-0.3893129770992366,-0.44274809160305345,-1.5725190839694656
1.5400545597076416,-0.913818359375,0.082763671875,-0.139404296875,-0.3969465648854962,-0.2595419847328244,-1.366412213740458
1.5500540733337402,-0.910888671875,0.074951171875,-0.140625,-0.44274809160305345,1.8931297709923665,-1.3969465648854962
1.560054063796997,-0.909423828125,0.075927734375,-0.135986328125,-0.4580152671755725,-0.03816793893129771,-1.2900763358778626
1.570054292678833,-0.913818359375,0.07861328125,-0.138671875,-0.5038167938931297,0.0916030534351145,-1.4809160305343512
1.5800542831420898,-0.92138671875,0.080810546875,-0.141357421875,-0.29770992366412213,-0.11450381679389313,-1.3587786259541985
1.5900540351867676,-0.9140625,0.079833984375,-0.14697265625,-0.5419847328244275,-0.2900763358778626,-1.465648854961832
1.6000540256500244,-0.9091796875,0.0771484375,-0.128662109375,-0.4198473282442748,-0.4122137404580153,-1.4427480916030535
1.6100547313690186,-0.912353515625,0.0927734375,-0.129638671875,-0.29770992366412213,-0.2824427480916031,-1.5114503816793894
1.620053768157959,-0.913330078125,0.075439453125,-0.141357421875,-0.3053435114503817,-0.007633587786259542,-1.4274809160305344
1.6300544738769531,-0.907958984375,0.077880859375,-0.139892578125,-0.40458015267175573,-0.13740458015267176,-1.3282442748091603
1.6400492191314697,-0.90966796875,0.07958984375,-0.140625,-0.366412213740458,1.916030534351145,-1.3587786259541985
1.6500542163848877,-0.915771484375,0.084716796875,-0.13623046875,-0.4198473282442748,-0.07633587786259542,-1.4198473282442747
1.6600558757781982,-0.914794921875,0.0927734375,-0.137939453125,-0.5114503816793893,-0.05343511450381679,-1.3587786259541985
1.6700539588928223,-0.90673828125,0.08251953125,-0.126953125,-0.40458015267175573,-0.07633587786259542,-1.4961832061068703
1.680053949356079,-0.910400390625,0.0810546875,-0.154541015625,-0.5114503816793893,-0.2366412213740458,-1.4351145038167938
1.6900546550750732,-0.910400390625,0.07373046875,-0.13818359375,-0.5648854961832062,1.8625954198473282,-1.2442748091603053
1.700054407119751,-0.911865234375,0.077880859375,-0.145751953125,-0.48854961832061067,-0.11450381679389313,-1.4961832061068703
1.7100543975830078,-0.91845703125,0.078125,-0.13671875,-0.549618320610687,-0.07633587786259542,-1.3435114503816794
1.7200543880462646,-0.9140625,0.084716796875,-0.1328125,-0.26717557251908397,0.16793893129770993,-1.4274809160305344
1.7300536632537842,-0.90771484375,0.071533203125,-0.1455078125,-0.22900763358778625,-0.04580152671755725,-1.465648854961832
1.7400546073913574,-0.912109375,0.064697265625,-0.1474609375,-0.4732824427480916,-1.8091603053435115,-1.534351145038168
1.750053882598877,-0.90625,0.092529296875,-0.135009765625,-0.2366412213740458,-0.2366412213740458,-1.282442748091603
1.760054111480713,-0.90869140625,0.08447265625,-0.137939453125,-0.35877862595419846,-0.3282442748091603,-1.3969465648854962
1.7700543403625488,-0.913818359375,0.085693359375,-0.139892578125,-0.40458015267175573,0.09923664122137404,-1.3435114503816794
1.7800548076629639,-0.9091796875,0.075439453125,-0.1357421875,-0.549618320610687,-0.31297709923664124,-1.3740458015267176
1.7900538444519043,-0.913330078125,0.074951171875,-0.142822265625,-0.48091603053435117,-0.0916030534351145,-1.5954198473282444
1.8000545501708984,-0.9169921875,0.08056640625,-0.13134765625,-0.3893129770992366,-0.3053435114503817,-1.2748091603053435
1.8100512027740479,-0.915283203125,0.085205078125,-0.133544921875,-0.4122137404580153,0.022900763358778626,-1.3206106870229009
1.8200538158416748,-0.903564453125,0.0751953125,-0.146484375,-0.5038167938931297,1.9312977099236641,-1.4809160305343512
1.8300542831420898,-0.917724609375,0.080078125,-0.146484375,-0.3435114503816794,-0.0916030534351145,-1.4274809160305344
1.8400545120239258,-0.913818359375,0.080322265625,-0.137939453125,-0.3435114503816794,-0.03816793893129771,-1.4351145038167938
1.8500542640686035,-0.91455078125,0.078857421875,-0.14111328125,-0.48091603053435117,-0.24427480916030533,-1.3969465648854962
1.8600544929504395,-0.917236328125,0.080322265625,-0.144287109375,-0.31297709923664124,0.04580152671755725,-1.2366412213740459
1.870058298110962,-0.906494140625,0.08984375,-0.134521484375,-0.7633587786259542,-0.007633587786259542,-1.4885496183206106
1.8800544738769531,-0.9130859375,0.080810546875,-0.141357421875,-0.2595419847328244,-0.04580152671755725,-1.3969465648854962
1.89005446434021,-0.913818359375,0.075439453125,-0.155029296875,-0.37404580152671757,0.030534351145038167,-1.3587786259541985
1.9000542163848877,-0.914306640625,0.083740234375,-0.14208984375,-0.42748091603053434,-0.3435114503816794,-1.4580152671755726
1.9100542068481445,-0.913818359375,0.073974609375,-0.15087890625,-0.4961832061068702,-0.2824427480916031,-1.381679389312977
1.9200549125671387,-0.907470703125,0.074462890625,-0.13232421875,-0.3893129770992366,-0.09923664122137404,-1.4427480916030535
1.930053949356079,-0.909423828125,0.08203125,-0.141357421875,-0.48091603053435117,0.03816793893129771,-1.3053435114503817
1.9400546550750732,-0.915771484375,0.077880859375,-0.146484375,-0.6030534351145038,0.25190839694656486,-1.251908396946565
1.95005464553833,-0.9072265625,0.083740234375,-0.14453125,-0.5725190839694656,-0.11450381679389313,-1.3893129770992367
1.9600553512573242,-0.916015625,0.08154296875,-0.15185546875,-0.6183206106870229,-0.26717557251908397,-1.4351145038167938
1.9700539112091064,-0.91455078125,0.08447265625,-0.1357421875,-0.42748091603053434,-0.22900763358778625,-1.3740458015267176
1.9800550937652588,-0.912109375,0.0732421875,-0.144775390625,-0.48854961832061067,1.9465648854961832,-1.3282442748091603
1.9900543689727783,-0.91162109375,0.08154296875,-0.1416015625,-0.25190839694656486,0.04580152671755725,-1.4122137404580153
2.000054359436035,-0.919921875,0.079345703125,-0.138671875,-0.42748091603053434,0.21374045801526717,-1.4274809160305344
2.010054588317871,-0.911865234375,0.073974609375,-0.14306640625,-0.48091603053435117,-0.10687022900763359,-1.381679389312977
2.020054817199707,-0.907958984375,0.079833984375,-0.144287109375,-0.35877862595419846,-0.15267175572519084,-1.4274809160305344
2.030054807662964,-0.916259765625,0.076904296875,-0.134765625,-0.44274809160305345,-0.20610687022900764,-1.2900763358778626
2.0400543212890625,-0.90771484375,0.080078125,-0.140380859375,-0.7480916030534351,-0.22900763358778625,-1.4580152671755726
2.0500540733337402,-0.918212890625,0.075439453125,-0.1435546875,-0.31297709923664124,-0.19083969465648856,-1.2595419847328244
2.060054302215576,-0.90966796875,0.070068359375,-0.14306640625,-0.3969465648854962,0.05343511450381679,-1.3206106870229009
2.070054054260254,-0.9169921875,0.070068359375,-0.142333984375,-0.4351145038167939,-0.030534351145038167,-1.3740458015267176
2.08005428314209,-0.907470703125,0.065673828125,-0.144287109375,-0.37404580152671757,0.015267175572519083,-1.3129770992366412
2.0900094509124756,-0.92041015625,0.06494140625,-0.13037109375,-0.5801526717557252,0.06870229007633588,-1.366412213740458
2.1000542640686035,-0.9150390625,0.076171875,-0.142333984375,-0.4961832061068702,-0.25190839694656486,-1.4885496183206106
2.110055685043335,-0.907958984375,0.08203125,-0.13525390625,-0.45038167938931295,-0.13740458015267176,-1.4885496183206106
2.12005352973938,-0.908935546875,0.07861328125,-0.13134765625,-0.366412213740458,0.0,-1.4427480916030535
2.130054235458374,-0.918701171875,0.07666015625,-0.1396484375,-0.5419847328244275,-0.10687022900763359,-1.5725190839694656
2.1400539875030518,-0.916748046875,0.080810546875,-0.150634765625,-0.12213740458015267,-0.21374045801526717,-1.3358778625954197
2.1500542163848877,-0.911865234375,0.0810546875,-0.154541015625,-0.4961832061068702,0.07633587786259542,-1.4427480916030535
2.1600539684295654,-0.9091796875,0.066162109375,-0.140625,-0.32061068702290074,0.1450381679389313,-1.3435114503816794
2.1700546741485596,-0.91259765625,0.078125,-0.138671875,-0.3511450381679389,-0.2748091603053435,-1.3893129770992367
2.180053949356079,-0.91552734375,0.07763671875,-0.134765625,-0.366412213740458,-0.22137404580152673,-1.1908396946564885
2.190054178237915,-0.91015625,0.078369140625,-0.14453125,-0.4732824427480916,-0.16793893129770993,-1.465648854961832
2.2000551223754883,-0.913818359375,0.0771484375,-0.13427734375,-0.3053435114503817,-0.3053435114503817,-1.4274809160305344
2.2100541591644287,-0.894287109375,0.09033203125,-0.1298828125,-0.5954198473282443,-0.21374045801526717,-1.5114503816793894
2.2200546264648438,-0.913818359375,0.0791015625,-0.140869140625,-0.4198473282442748,-0.12213740458015267,-1.465648854961832
2.2300543785095215,-0.91455078125,0.0751953125,-0.135986328125,-0.6183206106870229,0.11450381679389313,-1.366412213740458
2.2400119304656982,-0.9140625,0.078369140625,-0.140869140625,-0.48091603053435117,0.21374045801526717,-1.6030534351145038
2.2500545978546143,-0.9091796875,0.07958984375,-0.14453125,-0.2900763358778626,0.05343511450381679,-1.5114503816793894
2.2600550651550293,-0.910888671875,0.080322265625,-0.15087890625,-0.25190839694656486,0.0916030534351145,-1.3282442748091603
2.270054340362549,-0.890869140625,0.0732421875,-0.14111328125,-0.3435114503816794,-0.2366412213740458,-1.381679389312977
2.2800543308258057,-0.90966796875,0.0927734375,-0.14111328125,-0.46564885496183206,-0.19083969465648856,-1.5190839694656488
2.290053606033325,-0.915771484375,0.069580078125,-0.1435546875,-0.3816793893129771,-0.0916030534351145,-1.3129770992366412
2.3000545501708984,-0.916259765625,0.075439453125,-0.128173828125,-0.5419847328244275,1.9236641221374047,-1.297709923664122
2.310053586959839,-0.91455078125,0.078125,-0.126220703125,-0.3816793893129771,0.10687022900763359,-1.366412213740458
2.320054054260254,-0.91455078125,0.07958984375,-0.143798828125,-0.6564885496183206,0.2900763358778626,-1.4351145038167938
2.3300540447235107,-0.91455078125,0.07958984375,-0.140625,-0.3282442748091603,0.07633587786259542,-1.549618320610687
2.3400540351867676,-0.912353515625,0.08203125,-0.145263671875,-0.29770992366412213,-0.2748091603053435,-1.4045801526717556
2.3500540256500244,-0.9111328125,0.080078125,-0.13818359375,-0.6183206106870229,-0.007633587786259542,-1.3206106870229009
2.3600542545318604,-0.907958984375,0.091552734375,-0.1376953125,-0.4198473282442748,-0.24427480916030533,-1.4961832061068703
2.3700544834136963,-0.9130859375,0.078857421875,-0.138671875,-0.2824427480916031,0.030534351145038167,-1.3282442748091603
2.380053997039795,-0.91162109375,0.07763671875,-0.15380859375,-0.3969465648854962,-0.061068702290076333,-1.3969465648854962
2.3900537490844727,-0.912109375,0.071533203125,-0.13671875,-0.3511450381679389,0.061068702290076333,-1.381679389312977
2.400054931640625,-0.90966796875,0.07666015625,-0.1474609375,-0.3511450381679389,-0.10687022900763359,-1.3893129770992367
2.41001033782959,-0.896484375,0.080322265625,-0.140869140625,-0.549618320610687,-0.17557251908396945,-1.381679389312977
2.420053720474243,-0.90673828125,0.084716796875,-0.131591796875,-0.4351145038167939,-0.17557251908396945,-1.4351145038167938
2.4300553798675537,-0.9169921875,0.0625,-0.13671875,-0.40458015267175573,-0.04580152671755725,-1.3893129770992367
2.440054178237915,-0.917724609375,0.09228515625,-0.136474609375,-0.3969465648854962,0.015267175572519083,-1.2061068702290076
2.450054168701172,-0.911376953125,0.080322265625,-0.127197265625,-0.3969465648854962,0.20610687022900764,-1.2748091603053435
2.460055351257324,-0.91796875,0.076904296875,-0.142822265625,-0.3969465648854962,0.20610687022900764,-1.3435114503816794
2.4700546264648438,-0.9130859375,0.079345703125,-0.143310546875,-0.2595419847328244,-1.9312977099236641,-1.4198473282442747
2.4800546169281006,-0.911376953125,0.07958984375,-0.145751953125,-0.35877862595419846,-0.32061068702290074,-1.450381679389313
2.490054130554199,-0.913818359375,0.076904296875,-0.139892578125,-0.40458015267175573,-0.3969465648854962,-1.381679389312977
2.5000548362731934,-0.912353515625,0.077880859375,-0.151611328125,-0.5267175572519084,-0.3282442748091603,-1.4045801526717556
2.510054349899292,-0.9072265625,0.09033203125,-0.126220703125,-0.46564885496183206,-0.061068702290076333,-1.4274809160305344
2.5200541019439697,-0.91259765625,0.07666015625,-0.149658203125,-0.21374045801526717,0.22137404580152673,-1.1984732824427482
2.5300543308258057,-0.911865234375,0.080322265625,-0.147705078125,-0.5114503816793893,0.29770992366412213,-1.282442748091603
2.5400540828704834,-0.909912109375,0.073974609375,-0.146728515625,-0.40458015267175573,0.007633587786259542,-1.4580152671755726
2.5500545501708984,-0.90869140625,0.078369140625,-0.145263671875,-0.5267175572519084,-0.16030534351145037,-1.5801526717557253
2.5600545406341553,-0.908447265625,0.077880859375,-0.1396484375,-0.26717557251908397,-0.48854961832061067,-1.534351145038168
2.570054054260254,-0.915283203125,0.076416015625,-0.14111328125,-0.48854961832061067,-0.5267175572519084,-1.3358778625954197
2.580009937286377,-0.90966796875,0.08154296875,-0.137939453125,-0.3893129770992366,-0.11450381679389313,-1.4961832061068703
2.590054512023926,-0.914306640625,0.079833984375,-0.1494140625,-0.3435114503816794,0.11450381679389313,-1.4274809160305344
2.6000566482543945,-0.90869140625,0.080322265625,-0.13916015625,-0.32061068702290074,0.40458015267175573,-1.4122137404580153
2.6100540161132812,-0.91015625,0.077392578125,-0.139892578125,-0.3282442748091603,0.3053435114503817,-1.450381679389313
2.620054006576538,-0.916015625,0.07470703125,-0.144775390625,-0.3816793893129771,0.061068702290076333,-1.4580152671755726
2.6300547122955322,-0.909423828125,0.076416015625,-0.15087890625,-0.5343511450381679,-0.4961832061068702,-1.4427480916030535
2.6400537490844727,-0.910400390625,0.0654296875,-0.145751953125,-0.4961832061068702,-0.4732824427480916,-1.6259541984732824
2.650054454803467,-0.908935546875,0.09228515625,-0.14453125,-0.6030534351145038,-0.37404580152671757,-1.2595419847328244
2.6600546836853027,-0.91455078125,0.080810546875,-0.1357421875,-0.5267175572519084,-0.0916030534351145,-1.5114503816793894
2.6700549125671387,-0.915283203125,0.082763671875,-0.143310546875,-0.26717557251908397,0.2366412213740458,-1.4885496183206106
2.680053949356079,-0.913330078125,0.07958984375,-0.14013671875,-0.5038167938931297,0.22900763358778625,-1.3282442748091603
2.690054416656494,-0.9150390625,0.0771484375,-0.139892578125,-0.4580152671755725,1.916030534351145,-1.3511450381679388
2.700054168701172,-0.912841796875,0.080810546875,-0.137939453125,-0.1984732824427481,-0.17557251908396945,-1.4809160305343512
2.7100541591644287,-0.911376953125,0.082275390625,-0.12890625,-0.3816793893129771,-0.07633587786259542,-1.3511450381679388
2.7200546264648438,-0.909912109375,0.075439453125,-0.139404296875,-0.3969465648854962,-0.1450381679389313,-1.3206106870229009
2.730053663253784,-0.909423828125,0.07373046875,-0.138916015625,-0.5038167938931297,-0.04580152671755725,-1.3587786259541985
2.7400546073913574,-0.9169921875,0.077392578125,-0.139404296875,-0.2900763358778626,0.16793893129770993,-1.3206106870229009
2.7500085830688477,-0.916259765625,0.072265625,-0.145263671875,-0.2366412213740458,0.030534351145038167,-1.4045801526717556
2.760054349899292,-0.90673828125,0.07861328125,-0.141845703125,-0.48091603053435117,-0.05343511450381679,-1.618320610687023
2.7700552940368652,-0.911865234375,0.063720703125,-0.125732421875,-0.4580152671755725,-0.08396946564885496,-1.4274809160305344
2.7800538539886475,-0.910888671875,0.06640625,-0.154541015625,-0.25190839694656486,-0.11450381679389313,-1.4198473282442747
2.7900540828704834,-0.9111328125,0.077392578125,-0.137451171875,-0.37404580152671757,-0.648854961832061,-1.5038167938931297
2.8000543117523193,-0.91162109375,0.082275390625,-0.14501953125,-0.5343511450381679,-0.2366412213740458,-1.4961832061068703
2.8100545406341553,-0.918212890625,0.083984375,-0.130615234375,-0.35877862595419846,0.1450381679389313,-1.2900763358778626
2.820054531097412,-0.916748046875,0.0771484375,-0.140625,-0.20610687022900764,0.12213740458015267,-1.465648854961832
2.830054521560669,-0.906005859375,0.081298828125,-0.140625,-0.48091603053435117,0.03816793893129771,-1.3893129770992367
2.8400540351867676,-0.917724609375,0.074951171875,-0.128173828125,-0.3511450381679389,0.12213740458015267,-1.2366412213740459
2.8500537872314453,-0.90771484375,0.064208984375,-0.117919921875,-0.35877862595419846,-0.11450381679389313,-1.5648854961832062
2.8600542545318604,-0.905517578125,0.081787109375,-0.125244140625,-0.183206106870229,1.8778625954198473,-1.5877862595419847
2.870053768157959,-0.911865234375,0.079833984375,-0.1435546875,-0.2366412213740458,-0.06870229007633588,-1.4885496183206106
2.880053997039795,-0.9072265625,0.077880859375,-0.139892578125,-0.3282442748091603,-0.09923664122137404,-1.3740458015267176
2.89005446434021,-0.914306640625,0.0751953125,-0.13427734375,-0.366412213740458,-0.16793893129770993,-1.3435114503816794
2.9000115394592285,-0.915771484375,0.080322265625,-0.142578125,-0.48091603053435117,-0.04580152671755725,-1.3969465648854962
2.910054922103882,-0.91455078125,0.07861328125,-0.12548828125,-0.549618320610687,-0.0916030534351145,-1.381679389312977
2.9200549125671387,-0.90771484375,0.076416015625,-0.145263671875,-0.6259541984732825,-0.061068702290076333,-1.4885496183206106
2.930053949356079,-0.915283203125,0.078857421875,-0.140380859375,-0.3435114503816794,-0.09923664122137404,-1.2900763358778626
2.9400548934936523,-0.910888671875,0.08203125,-0.139404296875,-0.3893129770992366,-0.2366412213740458,-1.2900763358778626
2.950054168701172,-0.909912109375,0.076904296875,-0.14404296875,-0.4961832061068702,-0.11450381679389313,-1.4961832061068703
2.960054874420166,-0.911865234375,0.079833984375,-0.14013671875,-0.40458015267175573,0.007633587786259542,-1.4122137404580153
2.9700541496276855,-0.9130859375,0.06494140625,-0.142822265625,-0.5954198473282443,0.31297709923664124,-1.3587786259541985
2.9800541400909424,-0.913330078125,0.078369140625,-0.135009765625,-0.648854961832061,0.1450381679389313,-1.2671755725190839
2.9900543689727783,-0.905029296875,0.06396484375,-0.147216796875,-0.48854961832061067,-0.10687022900763359,-1.2213740458015268
3.000054359436035,-0.91162109375,0.079345703125,-0.13037109375,-0.5343511450381679,-0.24427480916030533,-1.3358778625954197
3.010054588317871,-0.912841796875,0.075927734375,-0.13525390625,-0.40458015267175573,1.9312977099236641,-1.3969465648854962
3.020054817199707,-0.90478515625,0.080810546875,-0.140380859375,-0.5267175572519084,-0.09923664122137404,-1.3740458015267176
3.030055284500122,-0.910400390625,0.074951171875,-0.136962890625,-0.4351145038167939,0.07633587786259542,-1.4885496183206106
3.0400545597076416,-0.913818359375,0.063720703125,-0.135498046875,-0.32061068702290074,-0.04580152671755725,-1.5190839694656488
3.0500540733337402,-0.910400390625,0.08154296875,-0.12841796875,-0.22137404580152673,-0.183206106870229,-1.3587786259541985
3.0600545406341553,-0.91162109375,0.065185546875,-0.1279296875,-0.3969465648854962,-0.2824427480916031,-1.6412213740458015
3.070054292678833,-0.9140625,0.07568359375,-0.15185546875,-0.5114503816793893,1.9389312977099236,-1.3740458015267176
3.0800538063049316,-0.913330078125,0.077880859375,-0.1484375,-0.2366412213740458,-0.12213740458015267,-1.3053435114503817
3.090054750442505,-0.907470703125,0.085205078125,-0.13818359375,-0.46564885496183206,-0.04580152671755725,-1.5267175572519085
3.1000545024871826,-0.89892578125,0.07373046875,-0.143310546875,-0.3511450381679389,0.015267175572519083,-1.381679389312977
3.1100547313690186,-0.915771484375,0.08349609375,-0.142822265625,-0.5954198473282443,-0.03816793893129771,-1.251908396946565
3.1200544834136963,-0.89599609375,0.07275390625,-0.135498046875,-0.5648854961832062,0.11450381679389313,-1.5267175572519085
3.130054235458374,-0.911865234375,0.092041015625,-0.140625,-0.33587786259541985,-0.19083969465648856,-1.4427480916030535
3.1400539875030518,-0.913330078125,0.08203125,-0.150146484375,-0.4198473282442748,-0.12213740458015267,-1.1908396946564885
3.150054454803467,-0.910888671875,0.0771484375,-0.14208984375,-0.3511450381679389,0.07633587786259542,-1.4427480916030535
3.1600537300109863,-0.9130859375,0.07861328125,-0.130126953125,-0.6183206106870229,1.9389312977099236,-1.4732824427480915
3.1700541973114014,-0.91455078125,0.080810546875,-0.137939453125,-0.2900763358778626,0.07633587786259542,-1.5877862595419847
3.1800546646118164,-0.9130859375,0.0859375,-0.145751953125,-0.3511450381679389,-0.183206106870229,-1.633587786259542
3.1900551319122314,-0.912109375,0.07763671875,-0.154541015625,-0.3435114503816794,-0.10687022900763359,-1.4198473282442747
3.2000083923339844,-0.9150390625,0.092041015625,-0.13623046875,-0.5725190839694656,-0.24427480916030533,-1.381679389312977
3.2100541591644287,-0.90625,0.083740234375,-0.127197265625,-0.5190839694656488,-0.06870229007633588,-1.4351145038167938
3.220054864883423,-0.9091796875,0.08251953125,-0.149658203125,-0.32061068702290074,-0.0916030534351145,-1.4045801526717556
3.2300548553466797,-0.913330078125,0.07763671875,-0.13720703125,-0.31297709923664124,-0.015267175572519083,-1.2366412213740459
3.2400548458099365,-0.918701171875,0.084716796875,-0.13720703125,-0.33587786259541985,-0.183206106870229,-1.4427480916030535
3.250054359436035,-0.91259765625,0.09326171875,-0.138671875,-0.2824427480916031,-0.13740458015267176,-1.4961832061068703
3.260054588317871,-0.90673828125,0.082275390625,-0.146484375,-0.11450381679389313,-0.08396946564885496,-1.213740458015267
3.2700536251068115,-0.90283203125,0.0634765625,-0.146728515625,-0.3816793893129771,-0.13740458015267176,-1.4732824427480915
3.280054807662964,-0.9150390625,0.07763671875,-0.13671875,-0.35877862595419846,-0.08396946564885496,-1.381679389312977
3.290053606033325,-0.913818359375,0.07763671875,-0.13818359375,-0.33587786259541985,0.05343511450381679,-1.5190839694656488
3.3000543117523193,-0.909912109375,0.082763671875,-0.145751953125,-0.29770992366412213,-0.19083969465648856,-1.2061068702290076
3.310053586959839,-0.8955078125,0.078857421875,-0.141845703125,-0.5877862595419847,-0.16030534351145037,-1.5725190839694656
3.320054769515991,-0.912109375,0.093017578125,-0.138916015625,-0.42748091603053434,-0.16030534351145037,-1.4045801526717556
3.330054521560669,-0.919189453125,0.08544921875,-0.1337890625,-0.5267175572519084,-0.030534351145038167,-1.3969465648854962
3.3400542736053467,-0.913330078125,0.08154296875,-0.1455078125,-0.29770992366412213,0.2366412213740458,-1.3587786259541985
3.350008726119995,-0.914794921875,0.077880859375,-0.129150390625,-0.5267175572519084,0.03816793893129771,-1.4274809160305344
3.3600542545318604,-0.910400390625,0.082275390625,-0.14013671875,-0.4198473282442748,-1.8854961832061068,-1.534351145038168
3.3700549602508545,-0.90771484375,0.084716796875,-0.13134765625,-0.32061068702290074,-1.8931297709923665,-1.5419847328244274
3.380054473876953,-0.908447265625,0.07958984375,-0.134521484375,-0.42748091603053434,-0.35877862595419846,-1.3587786259541985
3.390054941177368,-0.8916015625,0.075439453125,-0.15234375,-0.5648854961832062,-0.16793893129770993,-1.5877862595419847
3.4000542163848877,-0.91552734375,0.0908203125,-0.154052734375,-0.5648854961832062,-0.17557251908396945,-1.465648854961832
3.4100542068481445,-0.916748046875,0.07763671875,-0.14208984375,-0.3969465648854962,-0.1297709923664122,-1.2748091603053435
3.4200546741485596,-0.90966796875,0.07373046875,-0.142333984375,-0.3511450381679389,-0.15267175572519084,-1.3740458015267176
3.430053949356079,-0.90673828125,0.08154296875,-0.140380859375,-0.20610687022900764,-0.13740458015267176,-1.3740458015267176
3.440053701400757,-0.91455078125,0.077880859375,-0.14111328125,-0.2366412213740458,-0.25190839694656486,-1.366412213740458
3.450054168701172,-0.916259765625,0.08251953125,-0.136962890625,-0.5419847328244275,-1.9541984732824427,-1.4427480916030535
3.460054636001587,-0.913330078125,0.077880859375,-0.146484375,-0.732824427480916,0.08396946564885496,-1.4961832061068703
3.4700541496276855,-0.91015625,0.077880859375,-0.142578125,-0.45038167938931295,0.08396946564885496,-1.3969465648854962
3.4800541400909424,-0.907470703125,0.08056640625,-0.125244140625,-0.44274809160305345,0.183206106870229,-1.4045801526717556
3.49005389213562,-0.916259765625,0.079833984375,-0.146240234375,-0.3282442748091603,-0.15267175572519084,-1.3740458015267176
3.5000083446502686,-0.91015625,0.078857421875,-0.133544921875,-0.6106870229007634,-0.16793893129770993,-1.4045801526717556
3.510053873062134,-0.892822265625,0.079833984375,-0.131591796875,-0.31297709923664124,-0.35877862595419846,-1.6564885496183206
3.5200555324554443,-0.912109375,0.073486328125,-0.13671875,-0.3893129770992366,-0.022900763358778626,-1.3435114503816794
3.5300543308258057,-0.895263671875,0.080810546875,-0.138671875,-0.3893129770992366,0.3969465648854962,-1.3511450381679388
3.5400543212890625,-0.915771484375,0.081298828125,-0.142333984375,-0.2900763358778626,0.24427480916030533,-1.5038167938931297
3.5500545501708984,-0.912353515625,0.08154296875,-0.138671875,-0.5801526717557252,-0.2824427480916031,-1.5267175572519085
3.560054063796997,-0.913818359375,0.08251953125,-0.14013671875,-0.6335877862595419,-0.6793893129770993,-1.4427480916030535
3.570054292678833,-0.91357421875,0.076171875,-0.147705078125,-0.45038167938931295,-0.3053435114503817,-1.4274809160305344
3.5800538063049316,-0.915771484375,0.086669921875,-0.135009765625,-0.3282442748091603,-1.916030534351145,-1.4351145038167938
3.5900540351867676,-0.908447265625,0.08203125,-0.138427734375,-0.2748091603053435,0.12213740458015267,-1.5419847328244274
3.6000559329986572,-0.916259765625,0.080810546875,-0.13330078125,-0.3053435114503817,0.04580152671755725,-1.366412213740458
3.610055685043335,-0.9111328125,0.080322265625,-0.126220703125,-0.40458015267175573,0.06870229007633588,-1.3435114503816794
3.62005615234375,-0.914306640625,0.087646484375,-0.129150390625,-0.4961832061068702,-0.3053435114503817,-1.5801526717557253
3.6300408840179443,-0.892822265625,0.099609375,-0.134521484375,-0.030534351145038167,-0.12213740458015267,-1.2213740458015268
3.640056848526001,-0.90576171875,0.084716796875,-0.14404296875,-0.2824427480916031,-0.2824427480916031,-1.4809160305343512
3.6500566005706787,-0.907470703125,0.080322265625,-0.143310546875,-0.5343511450381679,-0.3282442748091603,-1.5419847328244274
3.6600563526153564,-0.912109375,0.07763671875,-0.131103515625,-0.5267175572519084,-0.183206106870229,-1.3893129770992367
3.6700563430786133,-0.911865234375,0.073974609375,-0.133056640625,-0.3511450381679389,0.07633587786259542,-1.3511450381679388
3.6800568103790283,-0.90576171875,0.080322265625,-0.12548828125,-0.35877862595419846,0.549618320610687,-1.381679389312977
3.690056324005127,-0.90966796875,0.077392578125,-0.144775390625,-0.46564885496183206,0.5190839694656488,-1.4580152671755726
3.7000558376312256,-0.914306640625,0.077392578125,-0.15185546875,-0.7175572519083969,-0.26717557251908397,-1.4351145038167938
3.710057258605957,-0.90771484375,0.08154296875,-0.144287109375,-0.5572519083969466,-1.1526717557251909,-1.3435114503816794
3.720050573348999,-0.910400390625,0.092529296875,-0.1376953125,-0.29770992366412213,-0.816793893129771,-1.4274809160305344
3.73005747795105,-0.9091796875,0.07470703125,-0.1474609375,-0.2366412213740458,0.32061068702290074,-1.2442748091603053
3.7400569915771484,-0.906005859375,0.063720703125,-0.152587890625,-0.26717557251908397,1.251908396946565,-1.3358778625954197
3.7500569820404053,-0.904541015625,0.078369140625,-0.128173828125,-0.48091603053435117,0.7175572519083969,-1.2290076335877862
3.7600560188293457,-0.91455078125,0.0810546875,-0.156494140625,-0.5038167938931297,-0.33587786259541985,-1.3206106870229009
3.7700564861297607,-0.91015625,0.07568359375,-0.13720703125,-0.3435114503816794,-1.1221374045801527,-1.4961832061068703
3.7800567150115967,-0.909423828125,0.07470703125,-0.136474609375,-0.4580152671755725,-0.7709923664122137,-1.3358778625954197
3.7900519371032715,-0.910400390625,0.06298828125,-0.130859375,-0.3053435114503817,0.3282442748091603,-1.4961832061068703
3.8000566959381104,-0.9130859375,0.076171875,-0.1484375,-0.3435114503816794,0.5648854961832062,-1.5648854961832062
3.8100578784942627,-0.914794921875,0.0810546875,-0.13671875,-0.5038167938931297,0.44274809160305345,-1.3969465648854962
3.820056438446045,-0.912353515625,0.075439453125,-0.125244140625,-0.3511450381679389,0.007633587786259542,-1.3129770992366412
3.8300561904907227,-0.9091796875,0.08544921875,-0.146484375,-0.37404580152671757,-0.061068702290076333,-1.465648854961832
3.8400564193725586,-0.91064453125,0.08642578125,-0.142333984375,-0.366412213740458,-0.16793893129770993,-1.3358778625954197
3.8500564098358154,-0.90966796875,0.0751953125,-0.138916015625,-0.45038167938931295,-0.366412213740458,-1.3893129770992367
3.860055923461914,-0.907958984375,0.07763671875,-0.13525390625,-0.7022900763358778,-0.42748091603053434,-1.5572519083969465
3.870055675506592,-0.9111328125,0.063720703125,-0.13623046875,-0.3816793893129771,-0.16793893129770993,-1.465648854961832
3.8800573348999023,-0.910888671875,0.063232421875,-0.131591796875,-0.13740458015267176,0.2900763358778626,-1.4809160305343512
3.8900558948516846,-0.90478515625,0.08203125,-0.13916015625,-0.40458015267175573,0.40458015267175573,-1.5877862595419847
3.900056838989258,-0.906982421875,0.07861328125,-0.14453125,-0.5190839694656488,0.1984732824427481,-1.450381679389313
3.910059928894043,-0.91162109375,0.073486328125,-0.145263671875,-0.5572519083969466,-0.2595419847328244,-1.5877862595419847
3.920058488845825,-0.9189453125,0.08056640625,-0.138916015625,-0.4351145038167939,-0.5648854961832062,-1.5648854961832062
3.9300589561462402,-0.912841796875,0.079345703125,-0.1435546875,-0.5267175572519084,-0.8015267175572519,-1.3206106870229009
3.9400594234466553,-0.912109375,0.0810546875,-0.13916015625,-0.2824427480916031,-0.11450381679389313,-1.381679389312977
3.950058937072754,-0.913330078125,0.0927734375,-0.12890625,-0.24427480916030533,0.42748091603053434,-1.3129770992366412
3.9600584506988525,-0.91015625,0.081787109375,-0.14501953125,-0.5343511450381679,0.4961832061068702,-1.3740458015267176
3.970059394836426,-0.91455078125,0.0732421875,-0.14697265625,-0.37404580152671757,0.022900763358778626,-1.381679389312977
3.9800591468811035,-0.91015625,0.080322265625,-0.14404296875,-0.3969465648854962,-0.40458015267175573,-1.3282442748091603
3.9900591373443604,-0.916015625,0.077880859375,-0.146484375,-0.32061068702290074,-0.4732824427480916,-1.183206106870229
4.000059604644775,-0.91455078125,0.079833984375,-0.13720703125,-0.15267175572519084,-0.42748091603053434,-1.4274809160305344
4.010059356689453,-0.92724609375,0.08447265625,-0.133544921875,-0.4732824427480916,-1.9541984732824427,-1.5114503816793894
4.020059108734131,-0.912841796875,0.08056640625,-0.142578125,-0.3053435114503817,0.22900763358778625,-1.4045801526717556
4.030063629150391,-0.916259765625,0.08349609375,-0.13427734375,-0.3511450381679389,0.2748091603053435,-1.4427480916030535
4.040059328079224,-0.909912109375,0.08349609375,-0.135986328125,-0.37404580152671757,0.21374045801526717,-1.4809160305343512
4.0500593185424805,-0.9140625,0.076416015625,-0.14501953125,-0.37404580152671757,0.08396946564885496,-1.3511450381679388
4.060058355331421,-0.916259765625,0.077880859375,-0.145263671875,-0.2900763358778626,-0.07633587786259542,-1.4122137404580153
4.070058822631836,-0.90771484375,0.080810546875,-0.144287109375,-0.3893129770992366,-0.37404580152671757,-1.618320610687023
4.080058336257935,-0.915771484375,0.076171875,-0.156005859375,-0.3969465648854962,-0.48091603053435117,-1.4427480916030535
4.090059280395508,-0.9150390625,0.091064453125,-0.14013671875,-0.26717557251908397,-0.2824427480916031,-1.4580152671755726
4.100058555603027,-0.91796875,0.07373046875,-0.138671875,-0.19083969465648856,-1.9236641221374047,-1.4427480916030535
4.110058307647705,-0.909912109375,0.080322265625,-0.145263671875,-0.3969465648854962,0.366412213740458,-1.5038167938931297
4.120058059692383,-0.9111328125,0.07861328125,-0.138671875,-0.4580152671755725,0.26717557251908397,-1.3129770992366412
4.1300578117370605,-0.913818359375,0.0791015625,-0.142333984375,-0.3893129770992366,0.1297709923664122,-1.534351145038168
4.140057325363159,-0.91455078125,0.07763671875,-0.138427734375,-0.22900763358778625,-0.32061068702290074,-1.3282442748091603
4.150058269500732,-0.91455078125,0.07958984375,-0.15087890625,-0.4351145038167939,-0.5877862595419847,-1.3587786259541985
4.160058498382568,-0.915283203125,0.082275390625,-0.135009765625,-0.46564885496183206,-0.2595419847328244,-1.465648854961832
4.170058727264404,-0.912109375,0.0830078125,-0.143798828125,-0.21374045801526717,0.12213740458015267,-1.2442748091603053
4.180058479309082,-0.9150390625,0.078369140625,-0.1376953125,-0.24427480916030533,0.3816793893129771,-1.4122137404580153
4.190058469772339,-0.91015625,0.08349609375,-0.133056640625,-0.5190839694656488,0.3969465648854962,-1.5801526717557253
4.200058460235596,-0.9111328125,0.076904296875,-0.147216796875,-0.31297709923664124,0.06870229007633588,-1.2748091603053435
4.210061550140381,-0.907470703125,0.068115234375,-0.1416015625,-0.4351145038167939,-0.31297709923664124,-1.4809160305343512
4.220059394836426,-0.91259765625,0.078369140625,-0.147216796875,-0.2748091603053435,-0.5038167938931297,-1.3740458015267176
4.230057954788208,-0.908203125,0.093505859375,-0.13525390625,-0.5954198473282443,-0.4122137404580153,-1.3969465648854962
4.240058660507202,-0.912353515625,0.0810546875,-0.146240234375,-0.4961832061068702,-0.09923664122137404,-1.4351145038167938
4.250058889389038,-0.90869140625,0.078369140625,-0.13427734375,-0.3969465648854962,0.2595419847328244,-1.4122137404580153
4.260058641433716,-0.909423828125,0.0830078125,-0.138671875,-0.32061068702290074,0.42748091603053434,-1.3358778625954197
4.27005934715271,-0.9091796875,0.07373046875,-0.14501953125,-0.44274809160305345,0.4198473282442748,-1.4198473282442747
4.28005838394165,-0.916015625,0.08154296875,-0.125244140625,-0.48091603053435117,0.061068702290076333,-1.4274809160305344
4.290058612823486,-0.908203125,0.081298828125,-0.147705078125,-0.4198473282442748,-0.1984732824427481,-1.4809160305343512
4.300066947937012,-0.912109375,0.08349609375,-0.14306640625,-0.1450381679389313,-0.2900763358778626,-1.2442748091603053
4.310058832168579,-0.910400390625,0.0791015625,-0.141357421875,-0.3282442748091603,-0.1297709923664122,-1.3969465648854962
4.320058822631836,-0.914794921875,0.081787109375,-0.141357421875,-0.16793893129770993,0.2824427480916031,-1.251908396946565
4.330058574676514,-0.9140625,0.07861328125,-0.142822265625,-0.42748091603053434,0.15267175572519084,-1.3740458015267176
4.340059041976929,-0.91455078125,0.0791015625,-0.143798828125,-0.37404580152671757,1.9312977099236641,-1.3435114503816794
4.3500587940216064,-0.911376953125,0.07763671875,-0.15380859375,-0.2366412213740458,1.9389312977099236,-1.3206106870229009
4.360057592391968,-0.9091796875,0.085205078125,-0.1533203125,-0.2595419847328244,-0.3282442748091603,-1.4351145038167938
4.37005877494812,-0.90771484375,0.07763671875,-0.1376953125,-0.366412213740458,-0.12213740458015267,-1.4885496183206106
4.38005805015564,-0.91064453125,0.0830078125,-0.135009765625,-0.3969465648854962,0.16793893129770993,-1.5877862595419847
4.390058517456055,-0.912353515625,0.074951171875,-0.1416015625,-0.5267175572519084,0.15267175572519084,-1.4198473282442747
4.4000585079193115,-0.9111328125,0.077880859375,-0.14453125,-0.48854961832061067,-0.16030534351145037,-1.5572519083969465
4.410059213638306,-0.916015625,0.063720703125,-0.13427734375,-0.40458015267175573,-0.6412213740458015,-1.5954198473282444
4.420058727264404,-0.910888671875,0.0927734375,-0.126953125,-0.48091603053435117,-0.4961832061068702,-1.5725190839694656
4.43005895614624,-0.91015625,0.07861328125,-0.137939453125,-0.42748091603053434,1.9465648854961832,-1.3435114503816794
4.440058708190918,-0.91015625,0.075439453125,-0.134033203125,-0.22900763358778625,0.3816793893129771,-1.3358778625954197
4.450058698654175,-0.910400390625,0.076416015625,-0.14208984375,-0.31297709923664124,0.5572519083969466,-1.2061068702290076
4.460058689117432,-0.91552734375,0.078369140625,-0.14697265625,-0.4732824427480916,0.0,-1.3969465648854962
4.47005820274353,-0.915283203125,0.078857421875,-0.153076171875,-0.46564885496183206,-0.48091603053435117,-1.4732824427480915
4.480058431625366,-0.91162109375,0.080810546875,-0.140380859375,-0.3053435114503817,-0.5877862595419847,-1.5114503816793894
4.490058898925781,-0.913818359375,0.07421875,-0.13232421875,-0.3969465648854962,-0.21374045801526717,-1.4427480916030535
4.50006103515625,-0.9111328125,0.0625,-0.152587890625,-0.4351145038167939,0.12213740458015267,-1.3282442748091603
4.510058403015137,-0.913330078125,0.080322265625,-0.152099609375,-0.3969465648854962,0.19083969465648856,-1.2442748091603053
4.5200583934783936,-0.918212890625,0.072021484375,-0.137939453125,-0.3969465648854962,0.015267175572519083,-1.251908396946565
4.530058145523071,-0.9150390625,0.076904296875,-0.14013671875,-0.25190839694656486,1.9236641221374047,-1.4122137404580153
4.540058612823486,-0.908447265625,0.085693359375,-0.134765625,-0.5114503816793893,0.16030534351145037,-1.5648854961832062
4.550059080123901,-0.91015625,0.077880859375,-0.138671875,-0.42748091603053434,-1.9389312977099236,-1.4122137404580153
4.560058832168579,-0.91015625,0.092041015625,-0.156005859375,-0.17557251908396945,1.8473282442748091,-1.5267175572519085
4.570059299468994,-0.908447265625,0.091064453125,-0.130615234375,-0.40458015267175573,-0.1297709923664122,-1.4198473282442747
4.580058813095093,-0.913818359375,0.076171875,-0.137939453125,-0.5038167938931297,-0.061068702290076333,-1.5190839694656488
4.590060234069824,-0.91455078125,0.074951171875,-0.13671875,-0.4732824427480916,0.2366412213740458,-1.3587786259541985
4.600058078765869,-0.90576171875,0.0703125,-0.137451171875,-0.4122137404580153,0.15267175572519084,-1.4198473282442747
4.610058784484863,-0.909912109375,0.08203125,-0.14501953125,-0.5419847328244275,-0.20610687022900764,-1.4122137404580153
4.620059251785278,-0.90966796875,0.09326171875,-0.142578125,-0.4580152671755725,-0.7557251908396947,-1.4580152671755726
4.630059003829956,-0.916015625,0.07958984375,-0.147216796875,-0.3435114503816794,-0.4351145038167939,-1.465648854961832
4.640058517456055,-0.916259765625,0.08984375,-0.1357421875,-0.29770992366412213,-0.183206106870229,-1.2595419847328244
4.650059223175049,-0.917724609375,0.081787109375,-0.147216796875,-0.5038167938931297,0.5190839694656488,-1.2671755725190839
4.6600587368011475,-0.912841796875,0.072509765625,-0.14111328125,-0.5419847328244275,0.45038167938931295,-1.3129770992366412
4.670058488845825,-0.907958984375,0.071533203125,-0.141357421875,-0.4351145038167939,-1.9312977099236641,-1.3435114503816794
4.680058240890503,-0.909912109375,0.081787109375,-0.14013671875,-0.09923664122137404,-0.7633587786259542,-1.5038167938931297
4.6900599002838135,-0.912841796875,0.07861328125,-0.13916015625,-0.4580152671755725,-0.6870229007633588,-1.5877862595419847
4.700059413909912,-0.91162109375,0.07958984375,-0.12841796875,-0.29770992366412213,-0.19083969465648856,-1.2900763358778626
4.7100584506988525,-0.910400390625,0.06298828125,-0.15576171875,-0.37404580152671757,0.183206106870229,-1.213740458015267
4.720058441162109,-0.909423828125,0.080810546875,-0.139404296875,-0.4732824427480916,0.5114503816793893,-1.5572519083969465
4.730058431625366,-0.914306640625,0.081298828125,-0.14794921875,-0.3893129770992366,-0.16030534351145037,-1.3358778625954197
4.740058183670044,-0.915283203125,0.0751953125,-0.143798828125,-0.45038167938931295,-0.7557251908396947,-1.4961832061068703
4.750058650970459,-0.912841796875,0.077880859375,-0.139404296875,-0.19083969465648856,-0.8244274809160306,-1.4580152671755726
4.760058403015137,-0.91015625,0.070556640625,-0.13671875,-0.3282442748091603,-0.40458015267175573,-1.2671755725190839
4.770058631896973,-0.89306640625,0.093017578125,-0.14990234375,-0.5343511450381679,-0.015267175572519083,-1.3282442748091603
4.78005838394165,-0.9130859375,0.082275390625,-0.14501953125,-0.46564885496183206,0.3282442748091603,-1.2213740458015268
4.790058374404907,-0.91357421875,0.079345703125,-0.1455078125,-0.3969465648854962,-0.15267175572519084,-1.5801526717557253
4.800058841705322,-0.91748046875,0.076171875,-0.140625,-0.4351145038167939,-0.4122137404580153,-1.5038167938931297
4.8100597858428955,-0.9111328125,0.07470703125,-0.149169921875,-0.5267175572519084,-0.48854961832061067,-1.6412213740458015
4.820058584213257,-0.912353515625,0.080322265625,-0.14306640625,-0.46564885496183206,-0.549618320610687,-1.5038167938931297
4.830058813095093,-0.912353515625,0.0849609375,-0.141357421875,-0.4580152671755725,-0.03816793893129771,-1.3129770992366412
4.840058326721191,-0.91259765625,0.078369140625,-0.14404296875,-0.4732824427480916,0.37404580152671757,-1.3282442748091603
4.850059270858765,-0.91357421875,0.078125,-0.14404296875,-0.3816793893129771,0.09923664122137404,-1.251908396946565
4.860058069229126,-0.912841796875,0.078369140625,-0.1435546875,-0.48854961832061067,0.0,-1.2748091603053435
4.870059013366699,-0.91259765625,0.080322265625,-0.142333984375,-0.5419847328244275,-0.5190839694656488,-1.4198473282442747
4.880058765411377,-0.912109375,0.08154296875,-0.142333984375,-0.5343511450381679,-0.35877862595419846,-1.297709923664122
4.8900580406188965,-0.909423828125,0.076904296875,-0.134765625,-0.33587786259541985,-0.2595419847328244,-1.3358778625954197
4.900058269500732,-0.910888671875,0.080078125,-0.142333984375,-0.21374045801526717,-1.9389312977099236,-1.5114503816793894
4.910058498382568,-0.9091796875,0.080322265625,-0.149658203125,-0.22137404580152673,-0.022900763358778626,-1.5190839694656488
4.920058727264404,-0.911865234375,0.063720703125,-0.128173828125,-0.4732824427480916,-0.0916030534351145,-1.3282442748091603
4.93005895614624,-0.912841796875,0.072998046875,-0.15380859375,-0.5343511450381679,-0.022900763358778626,-1.16793893129771
4.940059423446655,-0.91015625,0.085205078125,-0.138427734375,-0.4122137404580153,-0.015267175572519083,-1.5725190839694656
4.950058698654175,-0.9150390625,0.0751953125,-0.145263671875,-0.5190839694656488,-0.25190839694656486,-1.3435114503816794
4.960058212280273,-0.91162109375,0.079345703125,-0.132568359375,-0.31297709923664124,1.8854961832061068,-1.465648854961832
4.970058917999268,-0.920166015625,0.081298828125,-0.146240234375,-0.29770992366412213,-0.19083969465648856,-1.282442748091603
4.980058670043945,-0.92041015625,0.08349609375,-0.147705078125,-0.25190839694656486,-0.20610687022900764,-1.4274809160305344
4.990058660507202,-0.914794921875,0.068603515625,-0.13134765625,-0.2595419847328244,-0.3511450381679389,-1.297709923664122
5.000059604644775,-0.92431640625,0.0927734375,-0.148193359375,-0.3282442748091603,-0.183206106870229,-1.549618320610687
5.010060548782349,-0.91064453125,0.078369140625,-0.134765625,-0.3435114503816794,-0.15267175572519084,-1.4427480916030535
5.0200581550598145,-0.917724609375,0.07861328125,-0.140869140625,-0.25190839694656486,-0.0916030534351145,-1.3893129770992367
5.030062198638916,-0.908447265625,0.076904296875,-0.137939453125,-0.42748091603053434,0.4198473282442748,-1.3206106870229009
5.040059804916382,-0.897705078125,0.065673828125,-0.14697265625,-0.44274809160305345,1.7709923664122138,-1.4274809160305344
5.050059080123901,-0.90576171875,0.06298828125,-0.1513671875,-0.6106870229007634,2.595419847328244,-1.4045801526717556
5.060058832168579,-0.91796875,0.063720703125,-0.15576171875,-0.5419847328244275,-1.5801526717557253,-1.465648854961832
5.070059299468994,-0.91357421875,0.083984375,-0.1328125,-0.4198473282442748,-4.885496183206107,-1.8015267175572518
5.080058574676514,-0.91748046875,0.079833984375,-0.131103515625,-0.0916030534351145,-3.6030534351145036,-1.5114503816793894
5.0900585651397705,-0.904541015625,0.0830078125,-0.120361328125,-0.22900763358778625,0.3435114503816794,-1.2748091603053435
5.100058555603027,-0.9091796875,0.07666015625,-0.1416015625,-0.33587786259541985,5.9541984732824424,-1.083969465648855
5.110058307647705,-0.916748046875,0.07275390625,-0.156005859375,-0.4198473282442748,5.67175572519084,-1.4427480916030535
5.120058298110962,-0.9345703125,0.070556640625,-0.16552734375,-0.5267175572519084,-0.20610687022900764,-1.6793893129770991
5.130058765411377,-0.9140625,0.08447265625,-0.137939453125,-0.22137404580152673,-5.717557251908397,-1.5038167938931297
5.140058994293213,-0.9111328125,0.088134765625,-0.125,-0.6106870229007634,-2.931297709923664,-1.6259541984732824
5.150058746337891,-0.91162109375,0.08203125,-0.12841796875,-0.5877862595419847,1.3893129770992367,-1.3435114503816794
5.16005802154541,-0.911376953125,0.080810546875,-0.13720703125,-0.5572519083969466,3.7404580152671754,-1.183206106870229
5.170058488845825,-0.921875,0.068359375,-0.152099609375,-0.3435114503816794,1.7938931297709924,-1.2900763358778626
5.180058240890503,-0.912841796875,0.076171875,-0.14013671875,-0.32061068702290074,-1.1374045801526718,-1.5267175572519085
5.190058469772339,-0.91748046875,0.09033203125,-0.148193359375,-0.3969465648854962,-2.66412213740458,-1.6412213740458015
5.20005989074707,-0.90771484375,0.093505859375,-0.137451171875,-0.5190839694656488,-1.2442748091603053,-1.4809160305343512
5.21005916595459,-0.912109375,0.079345703125,-0.135498046875,-0.5343511450381679,0.44274809160305345,-1.4580152671755726
5.220058917999268,-0.9111328125,0.081298828125,-0.14599609375,-0.37404580152671757,0.7480916030534351,-1.4198473282442747
5.230059623718262,-0.914306640625,0.08056640625,-0.13818359375,-0.16793893129770993,0.1984732824427481,-1.2748091603053435
5.24005913734436,-0.913330078125,0.082763671875,-0.144287109375,-0.11450381679389313,0.13740458015267176,-1.4351145038167938
5.250058889389038,-0.9111328125,0.081298828125,-0.144287109375,-0.366412213740458,0.35877862595419846,-1.4122137404580153
5.260058641433716,-0.91162109375,0.075927734375,-0.128173828125,-0.46564885496183206,-0.10687022900763359,-1.3053435114503817
5.2700583934783936,-0.91455078125,0.06982421875,-0.12744140625,-0.366412213740458,-1.0763358778625953,-1.5801526717557253
5.2800586223602295,-0.9169921875,0.0732421875,-0.13134765625,-0.5801526717557252,-1.6488549618320612,-1.450381679389313
5.2900590896606445,-0.90966796875,0.075439453125,-0.1357421875,-0.40458015267175573,-0.9083969465648855,-1.4427480916030535
5.30005955696106,-0.91162109375,0.078369140625,-0.13818359375,-0.3282442748091603,1.183206106870229,-1.366412213740458
5.31005859375,-0.908935546875,0.09326171875,-0.138916015625,-0.44274809160305345,2.312977099236641,-1.2213740458015268
5.320058345794678,-0.909912109375,0.08154296875,-0.146240234375,-0.31297709923664124,1.0,-1.4274809160305344
5.330057859420776,-0.908203125,0.078369140625,-0.149169921875,-0.5343511450381679,-1.1450381679389312,-1.5190839694656488
5.340058088302612,-0.917724609375,0.08056640625,-0.154541015625,-0.5648854961832062,-2.6946564885496183,-1.3969465648854962
5.3500587940216064,-0.918701171875,0.076904296875,-0.127685546875,-0.4732824427480916,-1.8702290076335877,-1.3358778625954197
5.360058307647705,-0.91845703125,0.076171875,-0.131103515625,-0.37404580152671757,0.5190839694656488,-1.2671755725190839
5.370059013366699,-0.915283203125,0.07763671875,-0.1298828125,-0.40458015267175573,1.9618320610687023,-1.2290076335877862
5.380058526992798,-0.911865234375,0.079345703125,-0.14501953125,-0.46564885496183206,1.3358778625954197,-1.381679389312977
5.390058755874634,-0.912109375,0.067138671875,-0.146240234375,-0.3893129770992366,-0.4961832061068702,-1.3206106870229009
5.400058746337891,-0.913330078125,0.077392578125,-0.136962890625,-0.48854961832061067,-1.5877862595419847,-1.5954198473282444
5.410058498382568,-0.91455078125,0.07666015625,-0.139892578125,-0.5038167938931297,-1.0,-1.5038167938931297
5.420058965682983,-0.911376953125,0.072265625,-0.134521484375,-0.5954198473282443,0.3282442748091603,-1.3358778625954197
5.430058240890503,-0.91162109375,0.0751953125,-0.1396484375,-0.3893129770992366,1.0,-1.3893129770992367
5.44005823135376,-0.909912109375,0.07861328125,-0.13720703125,-0.3816793893129771,0.5725190839694656,-1.381679389312977
5.450058221817017,-0.912353515625,0.078857421875,-0.146240234375,-0.5725190839694656,-0.5648854961832062,-1.3435114503816794
5.460059404373169,-0.9130859375,0.079833984375,-0.15478515625,-0.3511450381679389,-1.3282442748091603,-1.5801526717557253
5.470059394836426,-0.912841796875,0.073974609375,-0.140869140625,-0.3053435114503817,-0.7404580152671756,-1.5267175572519085
5.480058193206787,-0.91650390625,0.072265625,-0.140380859375,-0.26717557251908397,0.15267175572519084,-1.450381679389313
5.490058898925781,-0.9130859375,0.07763671875,-0.139404296875,-0.26717557251908397,0.5954198473282443,-1.2900763358778626
5.50005841255188,-0.905517578125,0.075439453125,-0.143798828125,-0.5038167938931297,0.183206106870229,-1.465648854961832
5.510059356689453,-0.91357421875,0.08251953125,-0.13623046875,-0.5801526717557252,-0.5648854961832062,-1.4122137404580153
5.5200581550598145,-0.893798828125,0.07958984375,-0.134033203125,-0.5572519083969466,-0.8473282442748091,-1.5190839694656488
5.5300586223602295,-0.911865234375,0.06396484375,-0.13037109375,-0.6335877862595419,-0.5419847328244275,-1.2900763358778626
5.540058612823486,-0.91259765625,0.08935546875,-0.136474609375,-0.3969465648854962,0.2366412213740458,-1.4961832061068703
5.550058603286743,-0.908935546875,0.078369140625,-0.12744140625,-0.24427480916030533,0.35877862595419846,-1.3053435114503817
5.560058355331421,-0.912841796875,0.080810546875,-0.14501953125,-0.5572519083969466,0.05343511450381679,-1.5038167938931297
5.570058584213257,-0.912841796875,0.0771484375,-0.140625,-0.1297709923664122,-0.5725190839694656,-1.549618320610687
5.580058574676514,-0.915283203125,0.079833984375,-0.133544921875,-0.549618320610687,-0.8244274809160306,-1.5954198473282444
5.590058088302612,-0.9091796875,0.093017578125,-0.1416015625,-0.44274809160305345,0.007633587786259542,-1.4122137404580153
5.6000590324401855,-0.916748046875,0.08154296875,-0.129638671875,-0.5038167938931297,0.2366412213740458,-1.297709923664122
5.610059022903442,-0.910888671875,0.09326171875,-0.129150390625,-0.31297709923664124,0.5419847328244275,-1.3511450381679388
5.620059490203857,-0.910400390625,0.079345703125,-0.12890625,-0.16793893129770993,-0.31297709923664124,-1.4809160305343512
5.630058288574219,-0.91552734375,0.076416015625,-0.134765625,-0.48091603053435117,-0.7557251908396947,-1.5648854961832062
5.640058994293213,-0.91552734375,0.080078125,-0.14453125,-0.6564885496183206,-0.7557251908396947,-1.4580152671755726
5.6500585079193115,-0.9111328125,0.081298828125,-0.139892578125,-0.32061068702290074,-0.48854961832061067,-1.3435114503816794
5.6600587368011475,-0.91357421875,0.092041015625,-0.135986328125,-0.31297709923664124,-0.1297709923664122,-1.5954198473282444
5.670058488845825,-0.91259765625,0.076416015625,-0.125244140625,-0.33587786259541985,0.1984732824427481,-1.3053435114503817
5.680058240890503,-0.911865234375,0.091796875,-0.14306640625,-0.48091603053435117,0.20610687022900764,-1.3587786259541985
5.690058469772339,-0.913818359375,0.081787109375,-0.1357421875,-0.48854961832061067,-0.061068702290076333,-1.3740458015267176
5.700058460235596,-0.91357421875,0.077392578125,-0.14501953125,-0.40458015267175573,-0.08396946564885496,-1.3587786259541985
5.7100584506988525,-0.9150390625,0.072998046875,-0.1435546875,-0.3969465648854962,-0.22900763358778625,-1.5114503816793894
5.7200586795806885,-0.908935546875,0.06494140625,-0.133056640625,-0.3511450381679389,-0.183206106870229,-1.4122137404580153
5.7300591468811035,-0.914306640625,0.068115234375,-0.125244140625,-0.4732824427480916,-0.04580152671755725,-1.4274809160305344
5.740058660507202,-0.90771484375,0.0771484375,-0.155029296875,-0.42748091603053434,-0.40458015267175573,-1.366412213740458
5.750058889389038,-0.9111328125,0.077880859375,-0.136962890625,-0.21374045801526717,-0.09923664122137404,-1.6030534351145038
5.760058641433716,-0.906005859375,0.08056640625,-0.135009765625,-0.3282442748091603,0.061068702290076333,-1.381679389312977
5.7700583934783936,-0.911865234375,0.080810546875,-0.13671875,-0.46564885496183206,0.16793893129770993,-1.5877862595419847
5.7800586223602295,-0.91259765625,0.0751953125,-0.13427734375,-0.3816793893129771,0.13740458015267176,-1.4122137404580153
5.790058851242065,-0.920654296875,0.078125,-0.14208984375,-0.5419847328244275,-0.15267175572519084,-1.534351145038168
5.800058603286743,-0.913818359375,0.075927734375,-0.132568359375,-0.37404580152671757,-0.1450381679389313,-1.366412213740458
5.810059547424316,-0.915771484375,0.08251953125,-0.130126953125,-0.5725190839694656,0.10687022900763359,-1.4961832061068703
5.820058584213257,-0.915771484375,0.0849609375,-0.14013671875,-0.24427480916030533,0.10687022900763359,-1.251908396946565
5.8300604820251465,-0.910888671875,0.080322265625,-0.140869140625,-0.20610687022900764,-0.16030534351145037,-1.465648854961832
5.840057849884033,-0.9169921875,0.08447265625,-0.13525390625,-0.32061068702290074,-0.3435114503816794,-1.4122137404580153
5.8500587940216064,-0.91162109375,0.076171875,-0.13818359375,-0.2748091603053435,-0.25190839694656486,-1.4885496183206106
5.860057592391968,-0.91015625,0.0712890625,-0.14111328125,-0.40458015267175573,-0.022900763358778626,-1.4580152671755726
5.870058298110962,-0.911865234375,0.08984375,-0.14404296875,-0.25190839694656486,0.4198473282442748,-1.381679389312977
5.880058765411377,-0.907958984375,0.080322265625,-0.1318359375,-0.37404580152671757,0.6717557251908397,-1.5038167938931297
5.890058517456055,-0.913330078125,0.085693359375,-0.130859375,-0.6183206106870229,-0.16793893129770993,-1.4961832061068703
5.900058269500732,-0.911865234375,0.07861328125,-0.1416015625,-0.4351145038167939,-0.3893129770992366,-1.450381679389313
5.910058975219727,-0.913818359375,0.0771484375,-0.134521484375,-0.3893129770992366,-0.4961832061068702,-1.4427480916030535
5.920058727264404,-0.919677734375,0.075439453125,-0.138427734375,-0.2824427480916031,-0.10687022900763359,-1.4351145038167938
5.93005895614624,-0.91455078125,0.065673828125,-0.141357421875,-0.4961832061068702,0.3053435114503817,-1.4351145038167938
5.940059185028076,-0.9140625,0.06787109375,-0.126953125,-0.33587786259541985,0.24427480916030533,-1.297709923664122
5.950058937072754,-0.911865234375,0.08056640625,-0.154052734375,-0.3816793893129771,0.183206106870229,-1.4351145038167938
5.960058689117432,-0.907470703125,0.07568359375,-0.1259765625,-0.3893129770992366,-0.1297709923664122,-1.4427480916030535
5.970059156417847,-0.916259765625,0.0830078125,-0.149169921875,-0.4961832061068702,-0.16030534351145037,-1.4885496183206106
5.980058908462524,-0.906982421875,0.075927734375,-0.14697265625,-0.6412213740458015,-0.0916030534351145,-1.297709923664122
5.990058898925781,-0.919189453125,0.072509765625,-0.1416015625,-0.26717557251908397,-0.015267175572519083,-1.4809160305343512
6.000059127807617,-0.9189453125,0.07861328125,-0.125244140625,-0.4580152671755725,-0.11450381679389313,-1.5267175572519085
6.010059595108032,-0.90966796875,0.076904296875,-0.141357421875,-0.48854961832061067,0.0916030534351145,-1.5267175572519085
6.020058870315552,-0.9111328125,0.06298828125,-0.140625,-0.3969465648854962,0.07633587786259542,-1.4732824427480915
6.0300612449646,-0.91357421875,0.077880859375,-0.152587890625,-0.4732824427480916,0.06870229007633588,-1.4351145038167938
6.0400590896606445,-0.91064453125,0.078125,-0.146484375,-0.40458015267175573,0.32061068702290074,-1.3435114503816794
6.050058841705322,-0.911376953125,0.07763671875,-0.147216796875,-0.3893129770992366,0.03816793893129771,-1.2748091603053435
6.060058116912842,-0.909423828125,0.0810546875,-0.13623046875,-0.48091603053435117,-0.2900763358778626,-1.4122137404580153
6.070058345794678,-0.910888671875,0.078369140625,-0.135009765625,-0.31297709923664124,-0.24427480916030533,-1.6106870229007633
6.0800580978393555,-0.91845703125,0.092041015625,-0.128173828125,-0.4122137404580153,-0.44274809160305345,-1.2671755725190839
6.090058088302612,-0.908935546875,0.0654296875,-0.127685546875,-0.40458015267175573,-0.21374045801526717,-1.549618320610687
6.100059270858765,-0.90625,0.083984375,-0.1318359375,-0.5877862595419847,0.08396946564885496,-1.297709923664122
6.110058546066284,-0.91796875,0.07958984375,-0.1435546875,-0.3282442748091603,0.3511450381679389,-1.5954198473282444
6.120059013366699,-0.915283203125,0.07470703125,-0.13525390625,-0.31297709923664124,-1.9465648854961832,-1.5190839694656488
6.130059003829956,-0.91552734375,0.076171875,-0.137451171875,-0.35877862595419846,-0.25190839694656486,-1.5725190839694656
6.140057325363159,-0.907958984375,0.0830078125,-0.15234375,-0.40458015267175573,-0.04580152671755725,-1.4732824427480915
6.1500585079193115,-0.920166015625,0.07958984375,-0.14453125,-0.25190839694656486,-0.19083969465648856,-1.3893129770992367
6.16005802154541,-0.909423828125,0.0791015625,-0.154052734375,-0.37404580152671757,-0.1297709923664122,-1.4732824427480915
6.170058965682983,-0.913330078125,0.080810546875,-0.1552734375,-0.46564885496183206,-1.900763358778626,-1.4198473282442747
6.180058240890503,-0.917236328125,0.080078125,-0.144287109375,-0.29770992366412213,-0.2900763358778626,-1.381679389312977
6.190057992935181,-0.90673828125,0.0751953125,-0.135009765625,-0.5267175572519084,-0.24427480916030533,-1.465648854961832
6.2000579833984375,-0.9130859375,0.07666015625,-0.14794921875,-0.37404580152671757,-0.06870229007633588,-1.4274809160305344
6.210058212280273,-0.914794921875,0.08056640625,-0.141357421875,-0.3969465648854962,-0.0916030534351145,-1.3282442748091603
6.2200586795806885,-0.91357421875,0.093505859375,-0.1396484375,-0.3893129770992366,-0.061068702290076333,-1.3969465648854962
6.230058908462524,-0.906005859375,0.086181640625,-0.130615234375,-0.35877862595419846,0.015267175572519083,-1.4045801526717556
6.240058183670044,-0.910400390625,0.074951171875,-0.147705078125,-0.31297709923664124,-0.21374045801526717,-1.748091603053435
6.250059127807617,-0.915771484375,0.076416015625,-0.132568359375,-0.2595419847328244,-0.29770992366412213,-1.4732824427480915
6.260058403015137,-0.909423828125,0.0732421875,-0.1337890625,-0.3893129770992366,-0.21374045801526717,-1.3893129770992367
6.270058631896973,-0.916015625,0.075439453125,-0.141357421875,-0.1984732824427481,0.022900763358778626,-1.5190839694656488
6.280058860778809,-0.908203125,0.07861328125,-0.127685546875,-0.4580152671755725,-0.11450381679389313,-1.1908396946564885
6.2900590896606445,-0.911376953125,0.074951171875,-0.12548828125,-0.5190839694656488,-0.0916030534351145,-1.4427480916030535
6.300058364868164,-0.906982421875,0.084228515625,-0.126953125,-0.648854961832061,0.09923664122137404,-1.5114503816793894
6.310058355331421,-0.913818359375,0.085693359375,-0.139404296875,-0.3053435114503817,0.3282442748091603,-1.3587786259541985
6.320058584213257,-0.911865234375,0.070556640625,-0.138427734375,-0.46564885496183206,1.9312977099236641,-1.4122137404580153
6.330058813095093,-0.917724609375,0.077392578125,-0.14453125,-0.3893129770992366,-0.22900763358778625,-1.5190839694656488
6.340058326721191,-0.912353515625,0.07568359375,-0.1455078125,-0.4961832061068702,-0.42748091603053434,-1.3893129770992367
6.3500587940216064,-0.91796875,0.08154296875,-0.154296875,-0.35877862595419846,-0.33587786259541985,-1.5038167938931297
6.360058069229126,-0.911865234375,0.093505859375,-0.1357421875,-0.5648854961832062,-0.2900763358778626,-1.2595419847328244
6.370058298110962,-0.916015625,0.080078125,-0.139892578125,-0.42748091603053434,0.015267175572519083,-1.4274809160305344
6.380059003829956,-0.907470703125,0.0791015625,-0.138916015625,-0.11450381679389313,0.2900763358778626,-1.282442748091603
6.390058279037476,-0.914306640625,0.08447265625,-0.142822265625,-0.3893129770992366,0.19083969465648856,-1.4351145038167938
6.400057792663574,-0.912109375,0.082763671875,-0.143798828125,-0.2366412213740458,-0.2748091603053435,-1.3969465648854962
6.410058975219727,-0.90869140625,0.085693359375,-0.135009765625,-0.5038167938931297,-0.37404580152671757,-1.450381679389313
6.420058727264404,-0.913818359375,0.076171875,-0.152587890625,-0.48091603053435117,-0.48091603053435117,-1.4961832061068703
6.430058717727661,-0.91455078125,0.080078125,-0.13916015625,-0.3282442748091603,-0.3511450381679389,-1.3511450381679388
6.440058469772339,-0.911865234375,0.079833984375,-0.135009765625,-0.2900763358778626,0.007633587786259542,-1.251908396946565
6.450059652328491,-0.9130859375,0.08056640625,-0.139404296875,-0.35877862595419846,0.35877862595419846,-1.3358778625954197
6.460058689117432,-0.9140625,0.07666015625,-0.1328125,-0.24427480916030533,0.183206106870229,-1.5038167938931297
6.470058441162109,-0.91455078125,0.07861328125,-0.14453125,-0.6030534351145038,-0.25190839694656486,-1.450381679389313
6.480058670043945,-0.92138671875,0.075927734375,-0.1318359375,-0.3969465648854962,-0.31297709923664124,-1.5267175572519085
6.490058183670044,-0.915771484375,0.090087890625,-0.13427734375,-0.5114503816793893,-0.2366412213740458,-1.3129770992366412
6.500058650970459,-0.911376953125,0.081298828125,-0.1318359375,-0.4351145038167939,-0.1450381679389313,-1.3435114503816794
6.510066270828247,-0.911376953125,0.077880859375,-0.13427734375,-0.4198473282442748,-0.015267175572519083,-1.381679389312977
6.52005934715271,-0.91552734375,0.08056640625,-0.14306640625,-0.3511450381679389,0.2824427480916031,-1.450381679389313
6.530058860778809,-0.9111328125,0.076904296875,-0.13818359375,-0.3511450381679389,0.20610687022900764,-1.3206106870229009
6.540058374404907,-0.908935546875,0.076416015625,-0.138671875,-0.42748091603053434,-0.2595419847328244,-1.4580152671755726
6.550058841705322,-0.91552734375,0.0869140625,-0.14697265625,-0.3816793893129771,-0.6564885496183206,-1.4351145038167938
6.56005859375,-0.91455078125,0.065185546875,-0.12890625,-0.29770992366412213,-0.29770992366412213,-1.381679389312977
6.570058584213257,-0.914306640625,0.0927734375,-0.1376953125,-0.16030534351145037,0.21374045801526717,-1.4351145038167938
6.58005952835083,-0.91162109375,0.0791015625,-0.135009765625,-0.6870229007633588,0.183206106870229,-1.3740458015267176
6.590059041976929,-0.91162109375,0.080322265625,-0.146728515625,-0.5343511450381679,0.16793893129770993,-1.4274809160305344
6.600058078765869,-0.91015625,0.077392578125,-0.145751953125,-0.6030534351145038,-0.33587786259541985,-1.5267175572519085
6.610058784484863,-0.9091796875,0.08837890625,-0.13818359375,-0.3435114503816794,-0.5038167938931297,-1.5190839694656488
6.620059013366699,-0.9130859375,0.0869140625,-0.132568359375,-0.44274809160305345,-0.183206106870229,-1.251908396946565
6.630058765411377,-0.91259765625,0.076416015625,-0.1484375,-0.42748091603053434,-1.900763358778626,-1.5267175572519085
6.640060663223267,-0.906982421875,0.079345703125,-0.127197265625,-0.46564885496183206,0.31297709923664124,-1.251908396946565
6.650059223175049,-0.9130859375,0.078125,-0.14892578125,-0.6106870229007634,0.22137404580152673,-1.2290076335877862
6.660058975219727,-0.910888671875,0.07666015625,-0.1396484375,-0.42748091603053434,-0.25190839694656486,-1.5725190839694656
6.670058488845825,-0.91259765625,0.080322265625,-0.13623046875,-0.5801526717557252,-0.3511450381679389,-1.3587786259541985
6.680058479309082,-0.9140625,0.0732421875,-0.13916015625,-0.40458015267175573,-0.2366412213740458,-1.2442748091603053
6.690058708190918,-0.914794921875,0.0927734375,-0.133056640625,-0.44274809160305345,-0.015267175572519083,-1.2671755725190839
6.700058937072754,-0.91259765625,0.092041015625,-0.135009765625,-0.48091603053435117,-1.9541984732824427,-1.297709923664122
6.710059642791748,-0.912841796875,0.0791015625,-0.12841796875,-0.3893129770992366,-1.9389312977099236,-1.5038167938931297
6.720058441162109,-0.91259765625,0.08056640625,-0.135986328125,-0.32061068702290074,0.03816793893129771,-1.366412213740458
6.730058193206787,-0.911376953125,0.07958984375,-0.135498046875,-0.4122137404580153,0.015267175572519083,-1.6641221374045803
6.7400593757629395,-0.910888671875,0.0703125,-0.142822265625,-0.366412213740458,-0.35877862595419846,-1.3969465648854962
6.750058889389038,-0.910888671875,0.09228515625,-0.14111328125,-0.6259541984732825,-0.35877862595419846,-1.465648854961832
6.760058641433716,-0.91552734375,0.078857421875,-0.1376953125,-0.5343511450381679,-0.3282442748091603,-1.2442748091603053
6.77005934715271,-0.907470703125,0.078369140625,-0.13427734375,-0.2824427480916031,-0.11450381679389313,-1.3740458015267176
6.780058860778809,-0.91015625,0.071533203125,-0.125732421875,-0.29770992366412213,0.3053435114503817,-1.2748091603053435
6.7900590896606445,-0.91162109375,0.077880859375,-0.13623046875,-0.4351145038167939,0.24427480916030533,-1.3511450381679388
6.800058603286743,-0.91064453125,0.080078125,-0.136474609375,-0.2824427480916031,-0.04580152671755725,-1.4885496183206106
6.810059070587158,-0.909912109375,0.08447265625,-0.137939453125,-0.40458015267175573,-0.2900763358778626,-1.4732824427480915
6.820059537887573,-0.91455078125,0.077392578125,-0.1396484375,-0.3511450381679389,-0.3435114503816794,-1.3282442748091603
6.830059289932251,-0.920654296875,0.072265625,-0.140869140625,-0.32061068702290074,-0.15267175572519084,-1.450381679389313
6.840058326721191,-0.9111328125,0.08544921875,-0.139892578125,-0.3511450381679389,-0.08396946564885496,-1.3435114503816794
6.8500590324401855,-0.9111328125,0.072509765625,-0.142578125,-0.5954198473282443,0.10687022900763359,-1.251908396946565
6.860059022903442,-0.912841796875,0.08251953125,-0.14306640625,-0.45038167938931295,0.015267175572519083,-1.450381679389313
6.870058536529541,-0.916015625,0.08154296875,-0.141845703125,-0.5725190839694656,-0.35877862595419846,-1.3893129770992367
6.880059003829956,-0.91650390625,0.07763671875,-0.135986328125,-0.25190839694656486,-0.42748091603053434,-1.3282442748091603
6.890058755874634,-0.913818359375,0.063720703125,-0.14208984375,-0.44274809160305345,-1.9465648854961832,-1.5801526717557253
6.900059700012207,-0.91650390625,0.0712890625,-0.13916015625,-0.46564885496183206,0.061068702290076333,-1.381679389312977
6.91006064414978,-0.91015625,0.0791015625,-0.138427734375,-0.32061068702290074,-0.22900763358778625,-1.3893129770992367
6.920058250427246,-0.915283203125,0.0732421875,-0.141845703125,-0.46564885496183206,-0.29770992366412213,-1.4961832061068703
6.930059909820557,-0.911865234375,0.083740234375,-0.13623046875,-0.5572519083969466,-0.40458015267175573,-1.4351145038167938
6.940058708190918,-0.90478515625,0.08203125,-0.136962890625,-0.6412213740458015,-0.42748091603053434,-1.3511450381679388
6.950058221817017,-0.918701171875,0.07763671875,-0.136962890625,-0.4961832061068702,0.2824427480916031,-1.1984732824427482
6.960058689117432,-0.911376953125,0.091064453125,-0.13720703125,-0.5190839694656488,0.11450381679389313,-1.16793893129771
6.970058917999268,-0.90771484375,0.075439453125,-0.1279296875,-0.366412213740458,-0.061068702290076333,-1.3435114503816794
6.980058431625366,-0.9169921875,0.0810546875,-0.12548828125,-0.5572519083969466,-0.1297709923664122,-1.5419847328244274
6.990058183670044,-0.9130859375,0.07763671875,-0.143798828125,-0.3435114503816794,-0.1297709923664122,-1.3358778625954197
7.000059366226196,-0.91015625,0.0771484375,-0.134033203125,-0.46564885496183206,0.030534351145038167,-1.3893129770992367
7.010059356689453,-0.9111328125,0.081787109375,-0.137939453125,-0.5725190839694656,-0.16030534351145037,-1.3053435114503817
7.020058631896973,-0.913818359375,0.081298828125,-0.146240234375,-0.4732824427480916,-0.07633587786259542,-1.3206106870229009
7.030062437057495,-0.9150390625,0.0625,-0.133056640625,-0.4122137404580153,-0.07633587786259542,-1.4961832061068703
7.040058612823486,-0.913330078125,0.093017578125,-0.12744140625,-0.5572519083969466,-0.2900763358778626,-1.3969465648854962
7.050058603286743,-0.91162109375,0.064208984375,-0.15234375,-0.7175572519083969,0.0,-1.4351145038167938
7.060059547424316,-0.913818359375,0.077880859375,-0.146484375,-0.3969465648854962,-0.04580152671755725,-1.2748091603053435
7.070059061050415,-0.914306640625,0.075927734375,-0.13916015625,-0.4351145038167939,0.32061068702290074,-1.465648854961832
7.080058336257935,-0.910400390625,0.08056640625,-0.1376953125,-0.366412213740458,-1.8931297709923665,-1.3053435114503817
7.090060234069824,-0.91357421875,0.074462890625,-0.136474609375,-0.3511450381679389,-0.03816793893129771,-1.4351145038167938
7.100059270858765,-0.911865234375,0.08251953125,-0.126220703125,-0.29770992366412213,-0.2900763358778626,-1.4351145038167938
7.110058546066284,-0.91943359375,0.07666015625,-0.13916015625,-0.4122137404580153,0.07633587786259542,-1.4885496183206106
7.120057821273804,-0.91552734375,0.07763671875,-0.126220703125,-0.45038167938931295,-0.11450381679389313,-1.2366412213740459
7.130059003829956,-0.906494140625,0.083740234375,-0.142578125,-0.42748091603053434,0.1450381679389313,-1.3206106870229009
7.140058517456055,-0.9111328125,0.076904296875,-0.140380859375,-0.37404580152671757,-0.3435114503816794,-1.5954198473282444
7.15005898475647,-0.9072265625,0.084716796875,-0.142578125,-0.3511450381679389,-0.22900763358778625,-1.6259541984732824
7.160058498382568,-0.912109375,0.085693359375,-0.136474609375,-0.3435114503816794,-0.183206106870229,-1.3511450381679388
7.170058250427246,-0.916748046875,0.0634765625,-0.136474609375,-0.33587786259541985,-0.16793893129770993,-1.3358778625954197
7.180058479309082,-0.913330078125,0.08203125,-0.130615234375,-0.5343511450381679,0.13740458015267176,-1.4351145038167938
7.19005823135376,-0.91552734375,0.0810546875,-0.14208984375,-0.5114503816793893,0.22900763358778625,-1.3129770992366412
7.200058460235596,-0.91162109375,0.074462890625,-0.145751953125,-0.4732824427480916,-0.1297709923664122,-1.366412213740458
7.2100584506988525,-0.910400390625,0.07763671875,-0.142822265625,-0.32061068702290074,-0.24427480916030533,-1.251908396946565
7.220059871673584,-0.9130859375,0.080810546875,-0.13916015625,-0.33587786259541985,-0.04580152671755725,-1.381679389312977
7.230058193206787,-0.89306640625,0.078125,-0.13427734375,-0.4580152671755725,-0.007633587786259542,-1.3587786259541985
7.240058660507202,-0.908935546875,0.09326171875,-0.154296875,-0.5267175572519084,-0.022900763358778626,-1.2290076335877862
7.250059604644775,-0.913330078125,0.0703125,-0.1337890625,-0.46564885496183206,0.1297709923664122,-1.4427480916030535
7.260058879852295,-0.914306640625,0.0751953125,-0.13916015625,-0.24427480916030533,-0.19083969465648856,-1.3969465648854962
7.27006196975708,-0.915283203125,0.08203125,-0.140869140625,-0.2824427480916031,-0.13740458015267176,-1.3969465648854962
7.280059814453125,-0.907958984375,0.078125,-0.143310546875,-0.366412213740458,-0.0916030534351145,-1.4274809160305344
7.2900590896606445,-0.915771484375,0.071533203125,-0.140869140625,-0.5038167938931297,-0.06870229007633588,-1.3740458015267176
7.300058841705322,-0.914794921875,0.08251953125,-0.14111328125,-0.33587786259541985,0.0,-1.3969465648854962
7.310059309005737,-0.912109375,0.06298828125,-0.139892578125,-0.5648854961832062,-0.3053435114503817,-1.3206106870229009
7.320058345794678,-0.913818359375,0.064208984375,-0.140380859375,-0.42748091603053434,-0.08396946564885496,-1.5190839694656488
7.330057859420776,-0.9091796875,0.07861328125,-0.1318359375,-0.5648854961832062,-0.015267175572519083,-1.3511450381679388
7.340059995651245,-0.906982421875,0.078857421875,-0.14306640625,-0.3511450381679389,-0.11450381679389313,-1.4122137404580153
7.3500587940216064,-0.9169921875,0.076171875,-0.1416015625,-0.25190839694656486,-0.1297709923664122,-1.3206106870229009
7.360058784484863,-0.912109375,0.07177734375,-0.1396484375,-0.46564885496183206,-0.25190839694656486,-1.3893129770992367
7.37005877494812,-0.910400390625,0.068603515625,-0.144287109375,-0.31297709923664124,0.19083969465648856,-1.3435114503816794
7.380059242248535,-0.916015625,0.092041015625,-0.15478515625,-0.09923664122137404,0.16030534351145037,-1.282442748091603
7.390058755874634,-0.91259765625,0.078369140625,-0.138916015625,-0.366412213740458,0.04580152671755725,-1.4961832061068703
7.400059700012207,-0.909423828125,0.07666015625,-0.142822265625,-0.48091603053435117,0.061068702290076333,-1.549618320610687
7.410059213638306,-0.9150390625,0.072998046875,-0.12890625,-0.35877862595419846,-0.16793893129770993,-1.4809160305343512
7.420059680938721,-0.91259765625,0.0791015625,-0.141357421875,-0.3816793893129771,-0.29770992366412213,-1.4427480916030535
7.430058479309082,-0.91357421875,0.076904296875,-0.140380859375,-0.4961832061068702,-0.2748091603053435,-1.4122137404580153
7.440059423446655,-0.91845703125,0.091552734375,-0.13623046875,-0.5419847328244275,1.8854961832061068,-1.2595419847328244
7.450061082839966,-0.91552734375,0.088623046875,-0.14404296875,-0.2900763358778626,1.9236641221374047,-1.4045801526717556
7.46005916595459,-0.91650390625,0.079345703125,-0.155517578125,-0.2748091603053435,0.022900763358778626,-1.5877862595419847
7.470059633255005,-0.86767578125,0.0732421875,-0.130859375,-1.9465648854961832,-0.33587786259541985,-1.5267175572519085
7.4800591468811035,-0.923583984375,0.0703125,-0.144287109375,-0.5648854961832062,-0.4961832061068702,-1.2366412213740459
7.490058660507202,-0.91552734375,0.08203125,-0.13720703125,-0.5572519083969466,-0.1297709923664122,-1.6870229007633588
7.500058889389038,-0.921142578125,0.072509765625,-0.140625,-0.7251908396946565,-0.12213740458015267,-1.6564885496183206
7.510058641433716,-1.00244140625,0.134765625,-0.16357421875,-0.7022900763358778,0.6183206106870229,-1.83206106870229
7.520057678222656,-0.94091796875,0.04833984375,-0.11962890625,-0.44274809160305345,0.20610687022900764,-1.2671755725190839
7.530059337615967,-0.893310546875,0.071044921875,-0.132080078125,-0.3511450381679389,0.030534351145038167,-1.282442748091603
7.540058374404907,-0.91015625,0.081298828125,-0.130859375,-0.32061068702290074,-0.3282442748091603,-1.549618320610687
7.5500593185424805,-0.907470703125,0.08203125,-0.144775390625,-0.48091603053435117,-0.4198473282442748,-1.4198473282442747
7.560057878494263,-0.918701171875,0.079833984375,-0.13916015625,-0.4198473282442748,-0.5648854961832062,-1.4580152671755726
7.570059299468994,-0.9111328125,0.07421875,-0.130615234375,-0.48854961832061067,-0.2366412213740458,-1.3740458015267176
7.580058574676514,-0.915283203125,0.07763671875,-0.1318359375,-0.1297709923664122,0.5725190839694656,-1.7328244274809161
7.590059280395508,-0.920654296875,0.087890625,-0.128173828125,-0.6564885496183206,0.40458015267175573,-1.4045801526717556
7.600058317184448,-0.91796875,0.08984375,-0.131591796875,-0.3511450381679389,0.15267175572519084,-1.366412213740458
7.6100592613220215,-0.90576171875,0.072509765625,-0.142822265625,-0.4580152671755725,0.03816793893129771,-1.3435114503816794
7.620059013366699,-0.911865234375,0.089111328125,-0.142333984375,-0.4122137404580153,-0.3969465648854962,-1.3893129770992367
7.630058765411377,-0.912841796875,0.069580078125,-0.1416015625,-0.4351145038167939,-0.5648854961832062,-1.5190839694656488
7.640058517456055,-0.90625,0.079345703125,-0.138671875,-0.35877862595419846,-0.3969465648854962,-1.4274809160305344
7.650059223175049,-0.897216796875,0.063720703125,-0.13427734375,-0.183206106870229,-0.08396946564885496,-1.3969465648854962
7.660059452056885,-0.912353515625,0.064453125,-0.13623046875,-0.44274809160305345,0.29770992366412213,-1.2900763358778626
7.670058488845825,-0.913330078125,0.080322265625,-0.139892578125,-0.4122137404580153,0.5648854961832062,-1.3893129770992367
7.680058717727661,-0.908203125,0.07666015625,-0.145751953125,-0.366412213740458,0.22137404580152673,-1.4045801526717556
7.690059661865234,-0.91064453125,0.074951171875,-0.1416015625,-0.2366412213740458,-0.2824427480916031,-1.4427480916030535
7.700058698654175,-0.91796875,0.088134765625,-0.141357421875,-0.45038167938931295,-0.6106870229007634,-1.5038167938931297
7.710059404373169,-0.908447265625,0.076904296875,-0.13330078125,-0.48854961832061067,-0.5343511450381679,-1.4809160305343512
7.720058917999268,-0.917724609375,0.07763671875,-0.133056640625,-0.4732824427480916,-0.16030534351145037,-1.465648854961832
7.7300591468811035,-0.91015625,0.079833984375,-0.141357421875,-0.33587786259541985,0.48854961832061067,-1.4580152671755726
7.740058422088623,-0.912109375,0.080322265625,-0.14208984375,-0.44274809160305345,0.2595419847328244,-1.465648854961832
7.750058889389038,-0.912353515625,0.07958984375,-0.136962890625,-0.26717557251908397,-0.12213740458015267,-1.3435114503816794
7.7600579261779785,-0.9130859375,0.080322265625,-0.140380859375,-0.4580152671755725,-0.26717557251908397,-1.4351145038167938
7.770058870315552,-0.912353515625,0.08154296875,-0.1435546875,-0.366412213740458,-0.21374045801526717,-1.3206106870229009
7.78005838394165,-0.91357421875,0.075439453125,-0.14453125,-0.6564885496183206,-0.04580152671755725,-1.465648854961832
7.790058612823486,-0.91357421875,0.0908203125,-0.137451171875,-0.6335877862595419,-0.15267175572519084,-1.5114503816793894
7.800058126449585,-0.9140625,0.085205078125,-0.155029296875,-0.3511450381679389,0.061068702290076333,-1.450381679389313
7.810059309005737,-0.912109375,0.0810546875,-0.138671875,-0.42748091603053434,-0.061068702290076333,-1.5114503816793894
7.820058822631836,-0.913818359375,0.080078125,-0.14697265625,-0.3511450381679389,0.15267175572519084,-1.183206106870229
7.830058574676514,-0.915283203125,0.07470703125,-0.14013671875,-0.5114503816793893,-1.9312977099236641,-1.5190839694656488
7.840059041976929,-0.909912109375,0.078369140625,-0.13720703125,-0.40458015267175573,0.05343511450381679,-1.5954198473282444
7.850059509277344,-0.912109375,0.078125,-0.1435546875,-0.3053435114503817,-0.08396946564885496,-1.3511450381679388
7.8600592613220215,-0.913330078125,0.09033203125,-0.135009765625,-0.3816793893129771,-0.22900763358778625,-1.5801526717557253
7.870059251785278,-0.915771484375,0.077880859375,-0.148681640625,-0.3893129770992366,-0.22137404580152673,-1.6259541984732824
7.880060911178589,-0.9130859375,0.073486328125,-0.149169921875,-0.5114503816793893,0.24427480916030533,-1.5877862595419847
7.890059232711792,-0.907470703125,0.0791015625,-0.13525390625,-0.3511450381679389,0.015267175572519083,-1.3282442748091603
7.900057792663574,-0.909423828125,0.079345703125,-0.13623046875,-0.31297709923664124,-0.12213740458015267,-1.5114503816793894
7.910058498382568,-0.916015625,0.075439453125,-0.1416015625,-0.3511450381679389,-0.16030534351145037,-1.549618320610687
7.920058012008667,-0.914306640625,0.078369140625,-0.1376953125,-0.31297709923664124,-1.916030534351145,-1.3358778625954197
7.930058717727661,-0.9111328125,0.080322265625,-0.12744140625,-0.5267175572519084,0.11450381679389313,-1.4045801526717556
7.940058708190918,-0.912109375,0.083984375,-0.15478515625,-0.5648854961832062,1.9389312977099236,-1.4274809160305344
7.950058937072754,-0.908447265625,0.077880859375,-0.14306640625,-0.6259541984732825,-0.08396946564885496,-1.5190839694656488
7.960058927536011,-0.91259765625,0.08154296875,-0.142333984375,-0.33587786259541985,-0.015267175572519083,-1.4045801526717556
7.970057249069214,-0.910400390625,0.08447265625,-0.135986328125,-0.3893129770992366,-1.9465648854961832,-1.3893129770992367
7.980058670043945,-0.912841796875,0.0732421875,-0.14501953125,-0.4580152671755725,-0.1297709923664122,-1.4809160305343512
7.990058660507202,-0.912109375,0.065673828125,-0.13671875,-0.5419847328244275,0.022900763358778626,-1.3053435114503817
8.000059366226196,-0.906982421875,0.0771484375,-0.143310546875,-0.6183206106870229,0.1450381679389313,-1.534351145038168
8.010061025619507,-0.912109375,0.0859375,-0.13916015625,-0.32061068702290074,1.9389312977099236,-1.3740458015267176
8.020060300827026,-0.910400390625,0.090576171875,-0.138671875,-0.5419847328244275,-0.22137404580152673,-1.4961832061068703
8.030061960220337,-0.907958984375,0.07763671875,-0.13623046875,-0.3893129770992366,-0.3511450381679389,-1.1755725190839694
8.040060043334961,-0.911865234375,0.078125,-0.13623046875,-0.5114503816793893,-0.20610687022900764,-1.3511450381679388
8.050058841705322,-0.908935546875,0.08154296875,-0.136474609375,-0.48091603053435117,-1.9541984732824427,-1.3969465648854962
8.060058832168579,-0.912109375,0.0791015625,-0.14599609375,-0.3816793893129771,0.030534351145038167,-1.3358778625954197
8.070059299468994,-0.91552734375,0.093505859375,-0.14111328125,-0.366412213740458,0.1297709923664122,-1.5038167938931297
8.080058813095093,-0.910888671875,0.0634765625,-0.137451171875,-0.19083969465648856,0.11450381679389313,-1.4274809160305344
8.090059041976929,-0.908203125,0.08056640625,-0.13525390625,-0.5343511450381679,-0.21374045801526717,-1.3282442748091603
8.100058555603027,-0.91796875,0.077392578125,-0.143798828125,-0.3969465648854962,-0.17557251908396945,-1.3969465648854962
8.110059022903442,-0.915283203125,0.07666015625,-0.13232421875,-0.6412213740458015,-0.04580152671755725,-1.2061068702290076
8.1200590133667,-0.908203125,0.074462890625,-0.1337890625,-0.3435114503816794,-0.1450381679389313,-1.4427480916030535
8.130058765411377,-0.912841796875,0.091552734375,-0.12646484375,-0.6183206106870229,0.16030534351145037,-1.4045801526717556
8.140058279037476,-0.913818359375,0.0634765625,-0.139404296875,-0.549618320610687,0.21374045801526717,-1.4045801526717556
8.15005874633789,-0.91259765625,0.076416015625,-0.134033203125,-0.48091603053435117,-0.04580152671755725,-1.5267175572519085
8.16005825996399,-0.919189453125,0.078369140625,-0.13720703125,-0.3511450381679389,0.05343511450381679,-1.3740458015267176
8.170058012008667,-0.913330078125,0.077880859375,-0.13623046875,-0.37404580152671757,-0.2595419847328244,-1.5114503816793894
8.18005919456482,-0.910400390625,0.08056640625,-0.136962890625,-0.46564885496183206,-0.3969465648854962,-1.3358778625954197
8.19005823135376,-0.911376953125,0.066162109375,-0.1328125,-0.4198473282442748,-0.05343511450381679,-1.4198473282442747
8.200057983398438,-0.915283203125,0.080810546875,-0.1337890625,-0.3053435114503817,-1.9389312977099236,-1.2900763358778626
8.21005916595459,-0.906494140625,0.080078125,-0.149169921875,-0.648854961832061,-0.1297709923664122,-1.366412213740458
8.220057725906372,-0.915771484375,0.077880859375,-0.1337890625,-0.45038167938931295,0.04580152671755725,-1.450381679389313
8.230059146881104,-0.914306640625,0.08203125,-0.15087890625,-0.6335877862595419,-0.04580152671755725,-1.366412213740458
8.240058898925781,-0.9140625,0.078125,-0.142333984375,-0.48091603053435117,-1.9236641221374047,-1.3206106870229009
8.2500581741333,-0.9169921875,0.076171875,-0.136474609375,-0.3816793893129771,-0.1984732824427481,-1.3969465648854962
8.260058879852295,-0.913330078125,0.0625,-0.14599609375,-0.5801526717557252,-0.32061068702290074,-1.1221374045801527
8.27005934715271,-0.915283203125,0.081787109375,-0.139892578125,-0.33587786259541985,-0.04580152671755725,-1.2442748091603053
8.28005862236023,-0.910400390625,0.0927734375,-0.138427734375,-0.5190839694656488,-0.04580152671755725,-1.2290076335877862
8.290058612823486,-0.91455078125,0.077880859375,-0.133544921875,-0.5877862595419847,-0.16030534351145037,-1.3282442748091603
8.300057888031006,-0.911865234375,0.0771484375,-0.133056640625,-0.4580152671755725,-0.20610687022900764,-1.4809160305343512
8.31005859375,-0.913818359375,0.08251953125,-0.140380859375,-0.31297709923664124,-0.04580152671755725,-1.2671755725190839
8.320066690444946,-0.917236328125,0.082763671875,-0.142578125,-0.5038167938931297,1.9236641221374047,-1.2366412213740459
8.330058813095093,-0.91552734375,0.093505859375,-0.138427734375,-0.6259541984732825,0.07633587786259542,-1.3511450381679388
8.340059280395508,-0.91650390625,0.07470703125,-0.127685546875,-0.48091603053435117,-0.17557251908396945,-1.3053435114503817
8.350058555603027,-0.913818359375,0.0810546875,-0.154296875,-0.4198473282442748,-0.16030534351145037,-1.4732824427480915
8.360058784484863,-0.915283203125,0.077392578125,-0.154052734375,-0.33587786259541985,-0.1984732824427481,-1.3587786259541985
8.37005877494812,-0.90673828125,0.0771484375,-0.13720703125,-0.5725190839694656,-1.9465648854961832,-1.5114503816793894
8.380059003829956,-0.90869140625,0.07958984375,-0.13525390625,-0.3435114503816794,-0.09923664122137404,-1.465648854961832
8.390058755874634,-0.910888671875,0.08251953125,-0.14404296875,-0.3969465648854962,-0.11450381679389313,-1.5038167938931297
8.40005874633789,-0.913330078125,0.07861328125,-0.13623046875,-0.4580152671755725,-1.900763358778626,-1.3740458015267176
8.410058975219727,-0.908447265625,0.080078125,-0.138916015625,-0.42748091603053434,-1.916030534351145,-1.6259541984732824
8.420058250427246,-0.913330078125,0.082275390625,-0.132080078125,-0.4580152671755725,0.030534351145038167,-1.2366412213740459
8.430058240890503,-0.906982421875,0.082275390625,-0.14013671875,-0.7175572519083969,-0.06870229007633588,-1.3435114503816794
8.440058708190918,-0.912353515625,0.0849609375,-0.144287109375,-0.32061068702290074,-0.15267175572519084,-1.4274809160305344
8.450057744979858,-0.91455078125,0.07958984375,-0.142822265625,-0.3511450381679389,-1.9541984732824427,-1.4274809160305344
8.460058450698853,-0.915771484375,0.0771484375,-0.139892578125,-0.40458015267175573,-0.08396946564885496,-1.4198473282442747
8.470058917999268,-0.910888671875,0.076416015625,-0.13525390625,-0.3969465648854962,-0.1297709923664122,-1.4045801526717556
8.480058908462524,-0.9130859375,0.0908203125,-0.139892578125,-0.4961832061068702,-0.31297709923664124,-1.3511450381679388
8.490058660507202,-0.91357421875,0.083984375,-0.1396484375,-0.26717557251908397,-0.15267175572519084,-1.4198473282442747
8.500059127807617,-0.9150390625,0.08056640625,-0.126220703125,-0.35877862595419846,-1.9541984732824427,-1.3358778625954197
8.510058403015137,-0.915771484375,0.07861328125,-0.1455078125,-0.42748091603053434,-1.8778625954198473,-1.381679389312977
8.520058631896973,-0.911865234375,0.077392578125,-0.139404296875,-0.16030534351145037,-0.11450381679389313,-1.4198473282442747
8.530059099197388,-0.912841796875,0.079345703125,-0.144287109375,-0.2595419847328244,-0.061068702290076333,-1.366412213740458
8.540058374404907,-0.91552734375,0.093017578125,-0.146484375,-0.5648854961832062,-0.09923664122137404,-1.3969465648854962
8.550058841705322,-0.918701171875,0.08447265625,-0.12646484375,-0.3893129770992366,-0.21374045801526717,-1.4045801526717556
8.56005859375,-0.912109375,0.09326171875,-0.1376953125,-0.40458015267175573,-0.0916030534351145,-1.5419847328244274
8.570058345794678,-0.91259765625,0.081787109375,-0.14599609375,-0.5419847328244275,-0.17557251908396945,-1.549618320610687
8.580058813095093,-0.914794921875,0.077880859375,-0.142333984375,-0.4122137404580153,0.16793893129770993,-1.297709923664122
8.59005880355835,-0.91015625,0.07470703125,-0.14599609375,-0.061068702290076333,-0.1450381679389313,-1.4045801526717556
8.600059032440186,-0.916748046875,0.07666015625,-0.142822265625,-0.35877862595419846,-0.26717557251908397,-1.6564885496183206
8.610058784484863,-0.921875,0.07666015625,-0.138671875,-0.40458015267175573,-0.07633587786259542,-1.3358778625954197
8.620058059692383,-0.91162109375,0.079345703125,-0.125244140625,-0.4580152671755725,-0.061068702290076333,-1.3511450381679388
8.630058765411377,-0.91015625,0.078369140625,-0.1435546875,-0.5038167938931297,-0.04580152671755725,-1.4885496183206106
8.640058517456055,-0.913818359375,0.07958984375,-0.144775390625,-0.40458015267175573,1.916030534351145,-1.4885496183206106
8.65005874633789,-0.907958984375,0.07421875,-0.141357421875,-0.4122137404580153,-0.13740458015267176,-1.3587786259541985
8.660058736801147,-0.91552734375,0.083251953125,-0.140625,-0.4580152671755725,0.05343511450381679,-1.5190839694656488
8.670059204101562,-0.918212890625,0.072509765625,-0.129150390625,-0.4122137404580153,0.10687022900763359,-1.450381679389313
8.680058479309082,-0.915283203125,0.0732421875,-0.145263671875,-0.6106870229007634,-1.9541984732824427,-1.4045801526717556
8.690059900283813,-0.909423828125,0.067626953125,-0.140869140625,-0.25190839694656486,-0.07633587786259542,-1.2213740458015268
8.700059175491333,-0.91357421875,0.080810546875,-0.1259765625,-0.4351145038167939,0.06870229007633588,-1.6412213740458015
8.710059404373169,-0.91259765625,0.0849609375,-0.135009765625,-0.3969465648854962,-0.2595419847328244,-1.4351145038167938
8.72005820274353,-0.90966796875,0.081298828125,-0.13916015625,-0.5190839694656488,-0.3435114503816794,-1.3740458015267176
8.730058908462524,-0.91455078125,0.081298828125,-0.141357421875,-0.37404580152671757,-0.3893129770992366,-1.4427480916030535
8.740058660507202,-0.91259765625,0.06591796875,-0.140869140625,-0.5190839694656488,-0.04580152671755725,-1.4961832061068703
8.750059127807617,-0.91259765625,0.079345703125,-0.13037109375,-0.3511450381679389,0.015267175572519083,-1.4809160305343512
8.760058403015137,-0.911865234375,0.080810546875,-0.139404296875,-0.4198473282442748,0.06870229007633588,-1.534351145038168
8.77005910873413,-0.915771484375,0.078125,-0.12646484375,-0.4580152671755725,0.20610687022900764,-1.2595419847328244
8.780058860778809,-0.90869140625,0.075927734375,-0.141845703125,-0.48091603053435117,-0.22137404580152673,-1.4045801526717556
8.790058612823486,-0.918701171875,0.08056640625,-0.144775390625,-0.48854961832061067,-0.03816793893129771,-1.2900763358778626
8.800057888031006,-0.913818359375,0.07861328125,-0.135009765625,-0.4580152671755725,-0.08396946564885496,-1.3435114503816794
8.810059309005737,-0.921630859375,0.06787109375,-0.143798828125,-0.2748091603053435,-0.32061068702290074,-1.4274809160305344
8.820059537887573,-0.911376953125,0.07861328125,-0.13916015625,-0.29770992366412213,-1.9541984732824427,-1.4122137404580153
8.830059289932251,-0.9169921875,0.080322265625,-0.154296875,-0.3282442748091603,0.06870229007633588,-1.5190839694656488
8.840058326721191,-0.91064453125,0.075927734375,-0.146728515625,-0.25190839694656486,0.10687022900763359,-1.5419847328244274
8.850059509277344,-0.9150390625,0.076416015625,-0.13671875,-0.3282442748091603,-0.12213740458015267,-1.381679389312977
8.860057830810547,-0.912841796875,0.07861328125,-0.1396484375,-0.5267175572519084,-0.24427480916030533,-1.5267175572519085
8.8700590133667,-0.91064453125,0.077392578125,-0.138671875,-0.6717557251908397,-0.061068702290076333,-1.3435114503816794
8.880059242248535,-0.916015625,0.090576171875,-0.14111328125,-0.25190839694656486,-0.19083969465648856,-1.4198473282442747
8.890058755874634,-0.91015625,0.0830078125,-0.136474609375,-0.3969465648854962,-0.09923664122137404,-1.381679389312977
8.90005874633789,-0.913330078125,0.089111328125,-0.13232421875,-0.48091603053435117,-0.11450381679389313,-1.3893129770992367
8.910059213638306,-0.91552734375,0.07763671875,-0.138671875,-0.26717557251908397,0.13740458015267176,-1.3511450381679388
8.920058488845825,-0.913330078125,0.078125,-0.14306640625,-0.4122137404580153,-0.3282442748091603,-1.2900763358778626
8.930058002471924,-0.91162109375,0.0751953125,-0.136474609375,-0.31297709923664124,-0.33587786259541985,-1.4580152671755726
8.94005823135376,-0.912109375,0.076904296875,-0.142578125,-0.3435114503816794,-0.10687022900763359,-1.4580152671755726
8.950058221817017,-0.9072265625,0.062744140625,-0.138916015625,-0.4198473282442748,-0.12213740458015267,-1.3587786259541985
8.96005916595459,-0.91552734375,0.092041015625,-0.130859375,-0.5190839694656488,-1.916030534351145,-1.381679389312977
8.970059156417847,-0.913330078125,0.092529296875,-0.136474609375,-0.42748091603053434,-0.007633587786259542,-1.4732824427480915
8.980058908462524,-0.912353515625,0.08056640625,-0.146728515625,-0.37404580152671757,-0.2595419847328244,-1.4198473282442747
8.990058660507202,-0.91748046875,0.075439453125,-0.134521484375,-0.6870229007633588,-1.9465648854961832,-1.5038167938931297
9.000059604644775,-0.912353515625,0.0771484375,-0.14306640625,-0.4198473282442748,-0.32061068702290074,-1.3206106870229009
9.010059833526611,-0.912353515625,0.079833984375,-0.14208984375,-0.5419847328244275,-0.08396946564885496,-1.3511450381679388
9.020058870315552,-0.913818359375,0.074951171875,-0.13916015625,-0.5267175572519084,-0.06870229007633588,-1.5801526717557253
9.030062437057495,-0.9111328125,0.078125,-0.146240234375,-0.3816793893129771,-0.1450381679389313,-1.2442748091603053
9.04005765914917,-0.90966796875,0.0791015625,-0.12646484375,-0.3282442748091603,0.16030534351145037,-1.282442748091603
9.050059080123901,-0.914306640625,0.081298828125,-0.149169921875,-0.46564885496183206,-1.9541984732824427,-1.3053435114503817
9.060057878494263,-0.912109375,0.079345703125,-0.140380859375,-0.5190839694656488,-0.17557251908396945,-1.3511450381679388
9.070058822631836,-0.91064453125,0.076416015625,-0.140380859375,-0.3893129770992366,-0.24427480916030533,-1.4045801526717556
9.080058813095093,-0.912109375,0.077392578125,-0.149169921875,-0.4351145038167939,-0.20610687022900764,-1.366412213740458
9.090058326721191,-0.907958984375,0.062744140625,-0.145263671875,-0.46564885496183206,-0.16793893129770993,-1.549618320610687
9.100058555603027,-0.916748046875,0.077392578125,-0.148193359375,-0.48091603053435117,-0.16793893129770993,-1.3893129770992367
9.110060691833496,-0.9111328125,0.079833984375,-0.13525390625,-0.7786259541984732,-0.0916030534351145,-1.6717557251908397
9.12005877494812,-0.91552734375,0.078369140625,-0.1357421875,-0.4351145038167939,1.916030534351145,-1.4351145038167938
9.130058765411377,-0.9130859375,0.079345703125,-0.140625,-0.3511450381679389,-0.16793893129770993,-1.534351145038168
9.140058517456055,-0.91162109375,0.08154296875,-0.13671875,-0.42748091603053434,-0.07633587786259542,-1.4274809160305344
9.150058507919312,-0.91357421875,0.08740234375,-0.146484375,-0.5038167938931297,-0.2748091603053435,-1.3969465648854962
9.160058498382568,-0.919921875,0.083251953125,-0.12744140625,-0.33587786259541985,-0.09923664122137404,-1.3511450381679388
9.170058965682983,-0.91015625,0.086669921875,-0.13720703125,-0.366412213740458,0.022900763358778626,-1.3969465648854962
9.18005895614624,-0.910400390625,0.083251953125,-0.150634765625,-0.40458015267175573,0.11450381679389313,-1.3129770992366412
9.190058708190918,-0.90869140625,0.08251953125,-0.134765625,-0.5419847328244275,-0.32061068702290074,-1.3511450381679388
9.200058937072754,-0.9150390625,0.076171875,-0.13916015625,-0.42748091603053434,-0.03816793893129771,-1.5725190839694656
9.210058450698853,-0.91455078125,0.07666015625,-0.13720703125,-0.4961832061068702,1.8625954198473282,-1.5419847328244274
9.22005844116211,-0.913818359375,0.088134765625,-0.143798828125,-0.2748091603053435,-0.2595419847328244,-1.4961832061068703
9.230058908462524,-0.91455078125,0.07763671875,-0.155517578125,-0.16793893129770993,-0.05343511450381679,-1.549618320610687
9.240058898925781,-0.91552734375,0.081298828125,-0.1376953125,-0.3053435114503817,-0.1450381679389313,-1.213740458015267
9.250058889389038,-0.910888671875,0.076416015625,-0.15576171875,-0.3282442748091603,0.007633587786259542,-1.465648854961832
9.260059118270874,-0.914306640625,0.078857421875,-0.1396484375,-0.3893129770992366,0.1984732824427481,-1.3969465648854962
9.270058870315552,-0.914794921875,0.079833984375,-0.136474609375,-0.6946564885496184,0.11450381679389313,-1.450381679389313
9.28005838394165,-0.906982421875,0.076904296875,-0.14208984375,-0.46564885496183206,0.03816793893129771,-1.4122137404580153
9.290060997009277,-0.921875,0.071533203125,-0.142578125,-0.45038167938931295,-0.2366412213740458,-1.1908396946564885
9.300058841705322,-0.911376953125,0.081298828125,-0.1533203125,-0.45038167938931295,-0.08396946564885496,-1.4351145038167938
9.31005859375,-0.913330078125,0.09228515625,-0.1435546875,-0.40458015267175573,0.0916030534351145,-1.5648854961832062
9.320058584213257,-0.909912109375,0.07958984375,-0.125244140625,-0.4122137404580153,0.0,-1.4351145038167938
9.33005952835083,-0.91845703125,0.075927734375,-0.146728515625,-0.3816793893129771,-0.15267175572519084,-1.3893129770992367
9.340059280395508,-0.912353515625,0.07666015625,-0.139404296875,-0.4198473282442748,-0.08396946564885496,-1.4809160305343512
9.350059032440186,-0.91357421875,0.0791015625,-0.13916015625,-0.3969465648854962,-0.15267175572519084,-1.5038167938931297
9.360058784484863,-0.91845703125,0.081298828125,-0.13720703125,-0.6030534351145038,0.09923664122137404,-1.5267175572519085
9.3700590133667,-0.911376953125,0.06396484375,-0.129638671875,-0.1984732824427481,0.11450381679389313,-1.4274809160305344
9.38006067276001,-0.91455078125,0.080078125,-0.12890625,-0.4580152671755725,-0.21374045801526717,-1.3053435114503817
9.390058994293213,-0.916259765625,0.077392578125,-0.137451171875,-0.3435114503816794,-0.16793893129770993,-1.297709923664122
9.400059223175049,-0.91259765625,0.078857421875,-0.141357421875,-0.5038167938931297,-0.06870229007633588,-1.4580152671755726
9.410058975219727,-0.911376953125,0.0791015625,-0.139404296875,-0.4961832061068702,-1.9389312977099236,-1.4045801526717556
9.420058012008667,-0.90869140625,0.07958984375,-0.134521484375,-0.366412213740458,-1.9541984732824427,-1.4274809160305344
9.430059671401978,-0.91259765625,0.079345703125,-0.139404296875,-0.37404580152671757,0.022900763358778626,-1.3129770992366412
9.440058469772339,-0.911376953125,0.064208984375,-0.12744140625,-0.26717557251908397,-0.10687022900763359,-1.3129770992366412
9.450059413909912,-0.9130859375,0.09326171875,-0.1279296875,-0.46564885496183206,1.916030534351145,-1.4045801526717556
9.46005892753601,-0.91162109375,0.07568359375,-0.13427734375,-0.3816793893129771,0.030534351145038167,-1.297709923664122
9.470058917999268,-0.916259765625,0.080810546875,-0.1328125,-0.5267175572519084,-0.11450381679389313,-1.450381679389313
9.480058908462524,-0.91162109375,0.082763671875,-0.144775390625,-0.4198473282442748,0.26717557251908397,-1.4045801526717556
9.49005937576294,-0.91943359375,0.080322265625,-0.140869140625,-0.4351145038167939,0.07633587786259542,-1.2900763358778626
9.50005841255188,-0.91162109375,0.07421875,-0.14306640625,-0.25190839694656486,-0.16793893129770993,-1.4732824427480915
9.510057926177979,-0.908447265625,0.080810546875,-0.13916015625,-0.24427480916030533,0.05343511450381679,-1.4961832061068703
9.520058631896973,-0.91357421875,0.089599609375,-0.14404296875,-0.31297709923664124,-0.2748091603053435,-1.2748091603053435
9.530059099197388,-0.911865234375,0.0810546875,-0.138671875,-0.4732824427480916,-0.06870229007633588,-1.4274809160305344
9.540058374404907,-0.911376953125,0.077392578125,-0.14111328125,-0.31297709923664124,-0.03816793893129771,-1.4274809160305344
9.550058841705322,-0.9091796875,0.0830078125,-0.143798828125,-0.2824427480916031,-0.16793893129770993,-1.3969465648854962
9.560058355331421,-0.912353515625,0.079833984375,-0.14306640625,-0.5038167938931297,-0.06870229007633588,-1.4427480916030535
9.570058345794678,-0.906982421875,0.09130859375,-0.152587890625,-0.549618320610687,1.8778625954198473,-1.4045801526717556
9.580058813095093,-0.90869140625,0.080322265625,-0.15576171875,-0.31297709923664124,-0.007633587786259542,-1.6641221374045803
9.590059280395508,-0.909423828125,0.06982421875,-0.126953125,-0.26717557251908397,-0.11450381679389313,-1.465648854961832
9.60005807876587,-0.91455078125,0.074951171875,-0.15234375,-0.3969465648854962,-0.022900763358778626,-1.4274809160305344
9.610058546066284,-0.909423828125,0.07861328125,-0.1435546875,-0.3893129770992366,-0.3435114503816794,-1.3893129770992367
9.620058059692383,-0.90673828125,0.081787109375,-0.138916015625,-0.5343511450381679,-1.9312977099236641,-1.3969465648854962
9.630058526992798,-0.9130859375,0.0791015625,-0.13427734375,-0.32061068702290074,0.06870229007633588,-1.5038167938931297
9.640057802200317,-0.913330078125,0.066162109375,-0.12548828125,-0.4198473282442748,-0.10687022900763359,-1.450381679389313
9.650058269500732,-0.9130859375,0.07763671875,-0.14013671875,-0.40458015267175573,0.03816793893129771,-1.4732824427480915
9.660059213638306,-0.9140625,0.066650390625,-0.15576171875,-0.3969465648854962,-0.12213740458015267,-1.549618320610687
9.670058488845825,-0.91455078125,0.073486328125,-0.13427734375,-0.3511450381679389,-0.10687022900763359,-1.4274809160305344
9.680058717727661,-0.907470703125,0.0791015625,-0.14453125,-0.35877862595419846,-0.21374045801526717,-1.366412213740458
9.690058708190918,-0.91259765625,0.0771484375,-0.140625,-0.4198473282442748,-0.22900763358778625,-1.3587786259541985
9.700059175491333,-0.912353515625,0.079345703125,-0.1337890625,-0.21374045801526717,-0.22137404580152673,-1.4351145038167938
9.710059404373169,-0.912109375,0.08251953125,-0.153076171875,-0.4961832061068702,-0.015267175572519083,-1.5038167938931297
9.7200608253479,-0.910888671875,0.083740234375,-0.132080078125,-0.4961832061068702,-0.07633587786259542,-1.2900763358778626
9.730059146881104,-0.9140625,0.076171875,-0.14111328125,-0.2366412213740458,-0.17557251908396945,-1.213740458015267
9.740058422088623,-0.9150390625,0.081298828125,-0.14501953125,-0.32061068702290074,-1.9541984732824427,-1.381679389312977
9.750058650970459,-0.91552734375,0.07666015625,-0.139892578125,-0.4732824427480916,-0.022900763358778626,-1.465648854961832
9.760058403015137,-0.913330078125,0.08056640625,-0.1357421875,-0.5343511450381679,-0.1297709923664122,-1.4122137404580153
9.770058870315552,-0.910888671875,0.078369140625,-0.13134765625,-0.2824427480916031,0.08396946564885496,-1.4809160305343512
9.780057668685913,-0.9111328125,0.081787109375,-0.14794921875,-0.5954198473282443,-0.0916030534351145,-1.2900763358778626
