Time(s),AccX,AccY,AccZ,GyrX,GyrY,GyrZ
1.6689300537109375e-06,0.071533203125,-1.0048828125,0.08203125,-0.061068702290076333,0.022900763358778626,-1.4274809160305344
0.010061502456665039,0.072998046875,-0.997314453125,0.080810546875,-0.22900763358778625,-0.09923664122137404,-1.4732824427480915
0.020056724548339844,0.072998046875,-1.00927734375,0.0908203125,-0.33587786259541985,0.06870229007633588,-1.3969465648854962
0.03005695343017578,0.06201171875,-0.998046875,0.089599609375,-0.6717557251908397,-0.10687022900763359,-1.297709923664122
0.0400543212890625,0.077880859375,-1.0068359375,0.076416015625,-0.6412213740458015,-0.15267175572519084,-1.4122137404580153
0.05005478858947754,0.071533203125,-1.0,0.0849609375,-0.4961832061068702,-0.03816793893129771,-1.2900763358778626
0.06005501747131348,0.0693359375,-1.00390625,0.08349609375,-0.5419847328244275,0.1450381679389313,-1.381679389312977
0.07002663612365723,0.066650390625,-1.007568359375,0.08251953125,-0.3816793893129771,-0.05343511450381679,-1.5267175572519085
0.08005475997924805,0.07373046875,-1.008056640625,0.08349609375,-0.16793893129770993,-0.03816793893129771,-1.1908396946564885
0.09005498886108398,0.071044921875,-0.987548828125,0.083740234375,-0.19083969465648856,0.04580152671755725,-1.3206106870229009
0.10005450248718262,0.070068359375,-1.005859375,0.093017578125,-0.3282442748091603,-0.030534351145038167,-1.4351145038167938
0.11005401611328125,0.0693359375,-1.002197265625,0.07958984375,-0.4122137404580153,0.03816793893129771,-1.3206106870229009
0.12005448341369629,0.068115234375,-1.00537109375,0.0810546875,-0.7175572519083969,-0.13740458015267176,-1.3129770992366412
0.13005495071411133,0.06591796875,-0.999267578125,0.079833984375,-0.5801526717557252,-0.09923664122137404,-1.3511450381679388
0.14005422592163086,0.068115234375,-1.001953125,0.073486328125,-0.48091603053435117,0.19083969465648856,-1.2290076335877862
0.1500542163848877,0.067626953125,-1.0048828125,0.0771484375,-0.3053435114503817,-0.16030534351145037,-1.2671755725190839
0.16005349159240723,0.070068359375,-1.010498046875,0.08984375,-0.22137404580152673,-0.16030534351145037,-1.282442748091603
0.17005348205566406,0.072998046875,-1.009765625,0.0849609375,-0.24427480916030533,-0.03816793893129771,-1.282442748091603
0.1800537109375,0.072998046875,-0.997314453125,0.0859375,-0.37404580152671757,0.08396946564885496,-1.213740458015267
0.19005417823791504,0.068359375,-0.9970703125,0.08642578125,-0.5954198473282443,-0.1297709923664122,-1.3893129770992367
0.20005416870117188,0.074462890625,-1.006103515625,0.075439453125,-0.5801526717557252,1.900763358778626,-1.450381679389313
0.2100541591644287,0.069580078125,-1.001953125,0.074462890625,-0.5572519083969466,-0.13740458015267176,-1.2290076335877862
0.2200319766998291,0.07373046875,-0.997802734375,0.081298828125,-0.5038167938931297,-0.015267175572519083,-1.3893129770992367
0.23005437850952148,0.06689453125,-0.9912109375,0.0810546875,-0.40458015267175573,-0.17557251908396945,-1.450381679389313
0.24005532264709473,0.072021484375,-1.00732421875,0.080322265625,-0.19083969465648856,-0.007633587786259542,-1.4961832061068703
0.25005435943603516,0.072509765625,-0.999755859375,0.08349609375,-0.2595419847328244,0.15267175572519084,-1.2290076335877862
0.2600550651550293,0.07666015625,-1.00390625,0.063720703125,-0.48091603053435117,0.2366412213740458,-1.3282442748091603
0.2700541019439697,0.0751953125,-1.006591796875,0.082275390625,-0.48091603053435117,-0.16793893129770993,-1.4580152671755726
0.28005480766296387,0.069091796875,-0.99755859375,0.080810546875,-0.7099236641221374,-0.10687022900763359,-1.4427480916030535
0.2900543212890625,0.076171875,-1.00634765625,0.07763671875,-0.366412213740458,-0.1984732824427481,-1.381679389312977
0.30005431175231934,0.072265625,-1.001708984375,0.07763671875,-0.26717557251908397,-0.183206106870229,-1.4045801526717556
0.31005358695983887,0.0712890625,-1.002197265625,0.0849609375,-0.5114503816793893,-0.022900763358778626,-1.3893129770992367
0.3200540542602539,0.06982421875,-1.015625,0.082275390625,-0.3893129770992366,0.015267175572519083,-1.3740458015267176
0.33005380630493164,0.072021484375,-1.007568359375,0.078857421875,-0.3053435114503817,-0.05343511450381679,-1.450381679389313
0.3400547504425049,0.070068359375,-1.00341796875,0.083740234375,-0.3969465648854962,-0.05343511450381679,-1.1984732824427482
0.3500535488128662,0.0703125,-1.0048828125,0.073974609375,-0.3893129770992366,0.1984732824427481,-1.3358778625954197
0.36005449295043945,0.06787109375,-1.00390625,0.0830078125,-0.6793893129770993,0.1984732824427481,-1.4045801526717556
0.3700239658355713,0.07470703125,-1.0048828125,0.08544921875,-0.40458015267175573,-0.22137404580152673,-1.2061068702290076
0.3800544738769531,0.07177734375,-0.98486328125,0.0791015625,-0.5419847328244275,-0.24427480916030533,-1.2900763358778626
0.39005541801452637,0.0693359375,-1.01025390625,0.0634765625,-0.6030534351145038,1.8473282442748091,-1.3053435114503817
0.4000554084777832,0.06884765625,-1.001708984375,0.0830078125,-0.48091603053435117,-0.16030534351145037,-1.5267175572519085
0.41005444526672363,0.071533203125,-0.998291015625,0.080810546875,-0.3816793893129771,0.015267175572519083,-1.3358778625954197
0.42005443572998047,0.073974609375,-1.003173828125,0.08447265625,-0.3816793893129771,-0.061068702290076333,-1.4122137404580153
0.4300546646118164,0.069091796875,-1.00341796875,0.078857421875,-0.29770992366412213,0.10687022900763359,-1.4732824427480915
0.44005489349365234,0.072021484375,-0.99755859375,0.0771484375,-0.46564885496183206,-0.0916030534351145,-1.4045801526717556
0.4500546455383301,0.07470703125,-1.004150390625,0.07861328125,-0.4732824427480916,-0.33587786259541985,-1.2213740458015268
0.4600539207458496,0.0712890625,-1.01171875,0.079833984375,-0.3282442748091603,-0.15267175572519084,-1.213740458015267
0.47005462646484375,0.072265625,-0.989501953125,0.079345703125,-0.6564885496183206,-0.0916030534351145,-1.3282442748091603
0.4800543785095215,0.070068359375,-1.01171875,0.082763671875,0.1297709923664122,-0.12213740458015267,-1.3282442748091603
0.4900546073913574,0.0654296875,-0.998779296875,0.078125,-0.20610687022900764,1.9465648854961832,-1.5725190839694656
0.5000545978546143,0.069580078125,-1.005859375,0.078369140625,-0.6030534351145038,0.07633587786259542,-1.3206106870229009
0.5100541114807129,0.06689453125,-0.99658203125,0.085693359375,-1.015267175572519,0.09923664122137404,-1.3282442748091603
0.5200541019439697,0.073486328125,-1.0029296875,0.077880859375,-0.6564885496183206,-0.08396946564885496,-1.2900763358778626
0.5300548076629639,0.0703125,-1.015625,0.0791015625,-0.40458015267175573,-0.08396946564885496,-1.4732824427480915
0.5400302410125732,0.07421875,-1.0107421875,0.063232421875,0.10687022900763359,0.030534351145038167,-1.3587786259541985
0.5500543117523193,0.073974609375,-1.00244140625,0.070556640625,1.9312977099236641,-1.8778625954198473,-1.3053435114503817
0.5600559711456299,0.0732421875,-1.00390625,0.08837890625,-0.31297709923664124,0.03816793893129771,-1.297709923664122
0.570054292678833,0.06884765625,-0.99609375,0.080810546875,-0.8702290076335878,-0.19083969465648856,-1.3435114503816794
0.5800549983978271,0.072509765625,-1.003662109375,0.074951171875,-0.916030534351145,-1.9465648854961832,-1.3511450381679388
0.5900540351867676,0.0654296875,-0.99853515625,0.076416015625,-0.48091603053435117,-0.030534351145038167,-1.3740458015267176
0.6000542640686035,0.07080078125,-1.000244140625,0.073974609375,-0.20610687022900764,1.9312977099236641,-1.282442748091603
0.6100542545318604,0.065185546875,-1.001220703125,0.08935546875,0.11450381679389313,-0.10687022900763359,-1.4045801526717556
0.6200551986694336,0.076904296875,-1.0087890625,0.1064453125,-0.10687022900763359,-0.13740458015267176,-1.465648854961832
0.6300539970397949,0.07275390625,-1.006591796875,0.0927734375,-0.4198473282442748,-0.0916030534351145,-1.3587786259541985
0.6400547027587891,0.07275390625,-1.000732421875,0.081787109375,-0.7251908396946565,-0.16030534351145037,-1.3435114503816794
0.6500539779663086,0.072509765625,-1.00146484375,0.084228515625,-0.8091603053435115,0.15267175572519084,-1.465648854961832
0.6600551605224609,0.07763671875,-0.99951171875,0.071044921875,-0.8549618320610687,-0.11450381679389313,-1.4198473282442747
0.6700544357299805,0.066650390625,-1.0078125,0.077880859375,-0.31297709923664124,-0.31297709923664124,-1.2061068702290076
0.6800549030303955,0.0654296875,-1.00244140625,0.078369140625,-0.1297709923664122,0.05343511450381679,-1.465648854961832
0.6900544166564941,0.072509765625,-1.01416015625,0.081787109375,0.10687022900763359,-0.04580152671755725,-1.2671755725190839
0.7000548839569092,0.06884765625,-1.000732421875,0.0859375,-0.1297709923664122,1.9236641221374047,-1.4198473282442747
0.7100543975830078,0.07763671875,-1.000732421875,0.067138671875,-0.5419847328244275,0.12213740458015267,-1.381679389312977
0.7200546264648438,0.068603515625,-0.994140625,0.07958984375,-0.816793893129771,-0.015267175572519083,-1.366412213740458
0.7300539016723633,0.06982421875,-1.004638671875,0.075927734375,-0.7862595419847328,-0.17557251908396945,-1.3587786259541985
0.7400538921356201,0.071533203125,-1.005859375,0.071044921875,-0.25190839694656486,-0.061068702290076333,-1.5801526717557253
0.750054121017456,0.068359375,-1.00634765625,0.0810546875,-0.03816793893129771,-0.1450381679389313,-1.3282442748091603
0.7600548267364502,0.072998046875,-1.00390625,0.081298828125,0.1450381679389313,0.030534351145038167,-1.366412213740458
0.7700536251068115,0.068603515625,-1.003173828125,0.08203125,-0.061068702290076333,0.0,-1.4198473282442747
0.7800538539886475,0.063720703125,-1.015625,0.08642578125,-0.549618320610687,0.09923664122137404,-1.381679389312977
0.7900540828704834,0.068359375,-1.004638671875,0.08447265625,-0.7633587786259542,-0.07633587786259542,-1.3053435114503817
0.8000271320343018,0.075927734375,-1.000244140625,0.091552734375,-0.7633587786259542,-0.06870229007633588,-1.4274809160305344
0.8100543022155762,0.074462890625,-1.0,0.076171875,-0.5801526717557252,-0.030534351145038167,-1.4351145038167938
0.8200554847717285,0.07177734375,-1.00830078125,0.076416015625,-0.08396946564885496,-0.09923664122137404,-1.4198473282442747
0.8300538063049316,0.0712890625,-0.984619140625,0.0771484375,1.9083969465648856,1.916030534351145,-1.366412213740458
0.8400545120239258,0.0751953125,-1.01318359375,0.081298828125,-0.2595419847328244,-0.21374045801526717,-1.4045801526717556
0.8500540256500244,0.06298828125,-1.008544921875,0.0654296875,-0.42748091603053434,0.05343511450381679,-1.1908396946564885
0.8600547313690186,0.07763671875,-1.00244140625,0.083740234375,-0.732824427480916,-0.11450381679389313,-1.465648854961832
0.8700540065765381,0.070068359375,-1.006103515625,0.0849609375,-0.6335877862595419,-0.06870229007633588,-1.450381679389313
0.8800547122955322,0.063720703125,-1.0029296875,0.07861328125,-0.5877862595419847,0.1984732824427481,-1.3053435114503817
0.8900547027587891,0.06396484375,-1.001953125,0.08642578125,-0.3893129770992366,-0.06870229007633588,-1.366412213740458
0.9000551700592041,0.074462890625,-1.0029296875,0.077392578125,-0.20610687022900764,0.007633587786259542,-1.4351145038167938
0.9100544452667236,0.072265625,-1.001953125,0.07763671875,-0.030534351145038167,-0.16793893129770993,-1.3511450381679388
0.9200541973114014,0.07421875,-1.00927734375,0.0927734375,-0.35877862595419846,-0.1450381679389313,-1.2671755725190839
0.9300537109375,0.07080078125,-1.01513671875,0.0810546875,-0.7786259541984732,0.03816793893129771,-1.4122137404580153
0.9400548934936523,0.0625,-1.001708984375,0.064697265625,-0.5725190839694656,0.015267175572519083,-1.3893129770992367
0.9500539302825928,0.072509765625,-1.000732421875,0.075439453125,-0.5114503816793893,-0.007633587786259542,-1.4427480916030535
0.9600551128387451,0.070556640625,-1.00244140625,0.082275390625,-0.5725190839694656,-0.183206106870229,-1.5114503816793894
0.9700236320495605,0.07470703125,-1.01025390625,0.078369140625,-0.4961832061068702,-0.0916030534351145,-1.3129770992366412
0.9800543785095215,0.074462890625,-1.00634765625,0.072998046875,-0.0916030534351145,-0.06870229007633588,-1.282442748091603
0.9900553226470947,0.06787109375,-1.001953125,0.08447265625,-0.04580152671755725,0.05343511450381679,-1.366412213740458
1.0000550746917725,0.073486328125,-1.00390625,0.083984375,-0.24427480916030533,-0.22137404580152673,-1.4427480916030535
1.0100550651550293,0.067626953125,-1.00634765625,0.0810546875,-0.6335877862595419,-0.030534351145038167,-1.3358778625954197
1.020054578781128,0.072265625,-0.9990234375,0.08349609375,-0.6259541984732825,1.9389312977099236,-1.450381679389313
1.0300540924072266,0.067626953125,-1.004638671875,0.0771484375,-0.7175572519083969,-0.10687022900763359,-1.2442748091603053
1.0400538444519043,0.069091796875,-0.999267578125,0.08251953125,-0.44274809160305345,0.09923664122137404,-1.3969465648854962
1.0500571727752686,0.06396484375,-1.005126953125,0.076416015625,-0.15267175572519084,-0.09923664122137404,-1.4427480916030535
1.060058355331421,0.075927734375,-1.004638671875,0.08056640625,-1.8702290076335877,0.03816793893129771,-1.4122137404580153
1.0700547695159912,0.073974609375,-0.998291015625,0.07861328125,-0.366412213740458,-0.16030534351145037,-1.4122137404580153
1.0800557136535645,0.075927734375,-1.00244140625,0.087158203125,-0.6183206106870229,0.1297709923664122,-1.465648854961832
1.0900542736053467,0.071044921875,-1.002197265625,0.063232421875,-0.7557251908396947,-0.07633587786259542,-1.450381679389313
1.1000547409057617,0.066162109375,-1.001708984375,0.0888671875,-0.7480916030534351,-0.09923664122137404,-1.1450381679389312
1.1100544929504395,0.070068359375,-0.995849609375,0.074951171875,-0.3282442748091603,-0.15267175572519084,-1.3358778625954197
1.1200542449951172,0.06298828125,-1.00927734375,0.07763671875,-0.31297709923664124,-0.07633587786259542,-1.3053435114503817
1.130054235458374,0.066650390625,-1.007080078125,0.07861328125,-0.4580152671755725,0.07633587786259542,-1.3435114503816794
1.1400551795959473,0.073974609375,-1.002197265625,0.076171875,-0.42748091603053434,-0.17557251908396945,-1.3358778625954197
1.1500539779663086,0.0703125,-1.0068359375,0.081787109375,-0.7022900763358778,0.007633587786259542,-1.3587786259541985
1.160055160522461,0.07080078125,-1.00439453125,0.078369140625,-0.6870229007633588,-0.08396946564885496,-1.2442748091603053
1.1700539588928223,0.0791015625,-1.0029296875,0.093505859375,-0.5725190839694656,-0.09923664122137404,-1.5725190839694656
1.1800544261932373,0.070068359375,-1.002685546875,0.0791015625,-0.48854961832061067,-0.03816793893129771,-1.297709923664122
1.190054178237915,0.0712890625,-1.006591796875,0.079345703125,-0.3511450381679389,-0.03816793893129771,-1.3740458015267176
1.2000555992126465,0.071044921875,-1.00830078125,0.081787109375,-0.3893129770992366,-0.12213740458015267,-1.251908396946565
1.2100253105163574,0.075439453125,-1.015380859375,0.08251953125,-0.32061068702290074,0.030534351145038167,-1.3435114503816794
1.2200546264648438,0.075927734375,-1.008056640625,0.07861328125,-0.48854961832061067,-0.061068702290076333,-1.3435114503816794
1.2300548553466797,0.070068359375,-1.0068359375,0.065673828125,-0.366412213740458,-0.183206106870229,-1.381679389312977
1.2400546073913574,0.07861328125,-1.001708984375,0.091796875,-0.33587786259541985,-0.20610687022900764,-1.3969465648854962
1.2500545978546143,0.06396484375,-1.001708984375,0.088134765625,-0.12213740458015267,-0.17557251908396945,-1.2671755725190839
1.2600548267364502,0.06689453125,-1.0048828125,0.084228515625,-0.44274809160305345,-0.04580152671755725,-1.4351145038167938
1.2700541019439697,0.071044921875,-1.01123046875,0.081787109375,-0.5267175572519084,-0.11450381679389313,-1.5190839694656488
1.2800536155700684,0.070556640625,-0.999267578125,0.07666015625,-0.4580152671755725,-0.015267175572519083,-1.4045801526717556
1.2900538444519043,0.072998046875,-1.00341796875,0.078369140625,-0.6335877862595419,-0.24427480916030533,-1.2671755725190839
1.3000538349151611,0.070556640625,-0.998779296875,0.0625,-0.48091603053435117,1.9236641221374047,-1.3129770992366412
1.310053825378418,0.070068359375,-1.007568359375,0.0927734375,-0.5267175572519084,0.061068702290076333,-1.3893129770992367
1.3200547695159912,0.068115234375,-1.00244140625,0.082763671875,-0.0916030534351145,-0.1297709923664122,-1.213740458015267
1.3300540447235107,0.080322265625,-1.0078125,0.08544921875,-0.16793893129770993,-0.183206106870229,-1.4351145038167938
1.3400533199310303,0.07373046875,-1.00439453125,0.08447265625,-0.2366412213740458,-0.17557251908396945,-1.2442748091603053
1.3500545024871826,0.06640625,-1.009521484375,0.08154296875,-0.20610687022900764,-0.06870229007633588,-1.2595419847328244
1.3600530624389648,0.0693359375,-1.00244140625,0.093994140625,-0.3969465648854962,-1.916030534351145,-1.4580152671755726
1.370054006576538,0.075439453125,-0.98876953125,0.0849609375,-0.6183206106870229,-0.0916030534351145,-1.2671755725190839
1.3800554275512695,0.063720703125,-1.009765625,0.06298828125,-0.44274809160305345,-0.007633587786259542,-1.4122137404580153
1.3900549411773682,0.075439453125,-1.00927734375,0.082763671875,-0.5572519083969466,-0.09923664122137404,-1.3893129770992367
1.400055170059204,0.07177734375,-1.00439453125,0.082275390625,-0.3969465648854962,-0.04580152671755725,-1.282442748091603
1.4100546836853027,0.068603515625,-1.00244140625,0.078369140625,-0.1450381679389313,0.022900763358778626,-1.4122137404580153
1.4200546741485596,0.06640625,-1.002197265625,0.075439453125,-0.05343511450381679,-0.07633587786259542,-1.450381679389313
1.4300541877746582,0.075927734375,-0.998779296875,0.08203125,-0.29770992366412213,-0.061068702290076333,-1.2748091603053435
1.4400546550750732,0.071044921875,-1.00048828125,0.077880859375,-0.5038167938931297,-0.030534351145038167,-1.5190839694656488
1.4500534534454346,0.071044921875,-1.0087890625,0.063720703125,-0.5801526717557252,0.1984732824427481,-1.5419847328244274
1.4600543975830078,0.0693359375,-0.986572265625,0.076416015625,-0.9694656488549618,0.022900763358778626,-1.2442748091603053
1.4700539112091064,0.07080078125,-1.003662109375,0.09326171875,-0.4732824427480916,-1.8396946564885497,-1.465648854961832
1.4800543785095215,0.076171875,-1.005615234375,0.076904296875,-0.5114503816793893,-1.8854961832061068,-1.3511450381679388
1.490053653717041,0.07080078125,-1.0068359375,0.080810546875,-0.13740458015267176,-0.015267175572519083,-1.4274809160305344
1.5000543594360352,0.0703125,-0.998046875,0.08203125,-0.2595419847328244,-0.12213740458015267,-1.282442748091603
1.510054349899292,0.068359375,-1.008544921875,0.076904296875,-0.25190839694656486,-0.06870229007633588,-1.3282442748091603
1.5200550556182861,0.07080078125,-0.988525390625,0.076904296875,-0.37404580152671757,0.1450381679389313,-1.3587786259541985
1.5300323963165283,0.07373046875,-0.99853515625,0.087890625,-0.6717557251908397,0.1450381679389313,-1.3435114503816794
1.5400550365447998,0.073974609375,-1.005859375,0.079345703125,-0.7862595419847328,-0.29770992366412213,-1.3435114503816794
1.5500545501708984,0.072509765625,-1.010009765625,0.063720703125,-0.7633587786259542,-1.900763358778626,-1.3282442748091603
1.560054063796997,0.070068359375,-1.001220703125,0.07763671875,-0.3969465648854962,0.07633587786259542,-1.3893129770992367
1.570054292678833,0.0693359375,-0.998779296875,0.09228515625,-0.16793893129770993,-0.15267175572519084,-1.2748091603053435
1.5800540447235107,0.0732421875,-1.001220703125,0.08544921875,-1.9236641221374047,-0.11450381679389313,-1.4274809160305344
1.5900542736053467,0.072509765625,-1.002197265625,0.08544921875,-0.0916030534351145,-0.13740458015267176,-1.1755725190839694
1.6000545024871826,0.0673828125,-1.00439453125,0.08447265625,-0.19083969465648856,-1.9541984732824427,-1.4427480916030535
1.6100542545318604,0.071044921875,-1.000732421875,0.084716796875,-0.5954198473282443,0.07633587786259542,-1.4198473282442747
1.620054006576538,0.070068359375,-1.0048828125,0.081787109375,-0.9541984732824428,-0.16030534351145037,-1.251908396946565
1.630053997039795,0.069091796875,-1.007568359375,0.0791015625,-0.6870229007633588,-1.9541984732824427,-1.366412213740458
1.6400537490844727,0.068359375,-1.003173828125,0.0751953125,-0.3969465648854962,-0.16030534351145037,-1.4427480916030535
1.650054693222046,0.072021484375,-0.99853515625,0.0908203125,-0.19083969465648856,-0.12213740458015267,-1.3511450381679388
1.6600539684295654,0.067138671875,-1.0029296875,0.082763671875,-0.19083969465648856,-0.030534351145038167,-1.4580152671755726
1.6700546741485596,0.0693359375,-1.007080078125,0.079345703125,-0.33587786259541985,-0.16793893129770993,-1.3435114503816794
1.6800544261932373,0.0703125,-1.002685546875,0.08203125,-0.7862595419847328,-0.06870229007633588,-1.3969465648854962
1.6900546550750732,0.069091796875,-1.001708984375,0.080810546875,-0.5114503816793893,0.030534351145038167,-1.3587786259541985
1.7000560760498047,0.068359375,-1.000732421875,0.0771484375,-0.6106870229007634,-0.2748091603053435,-1.450381679389313
1.7100543975830078,0.07080078125,-0.997314453125,0.077880859375,-0.022900763358778626,0.0,-1.3511450381679388
1.7200546264648438,0.06884765625,-1.0068359375,0.08251953125,-0.3053435114503817,0.08396946564885496,-1.534351145038168
1.7300541400909424,0.073974609375,-1.006103515625,0.082763671875,-0.3969465648854962,0.03816793893129771,-1.2748091603053435
1.7400553226470947,0.07177734375,-1.0078125,0.076171875,-0.46564885496183206,-0.16793893129770993,-1.3893129770992367
1.750053882598877,0.073974609375,-1.001220703125,0.081298828125,-0.4351145038167939,-0.15267175572519084,-1.3511450381679388
1.760054349899292,0.07373046875,-1.006591796875,0.085205078125,-0.45038167938931295,1.9465648854961832,-1.3053435114503817
1.7700536251068115,0.072265625,-1.0068359375,0.076904296875,-0.6870229007633588,0.08396946564885496,-1.366412213740458
1.7800548076629639,0.0703125,-0.999267578125,0.084716796875,-0.5419847328244275,-0.030534351145038167,-1.3587786259541985
1.7900538444519043,0.066650390625,-1.008056640625,0.07470703125,-0.12213740458015267,0.04580152671755725,-1.2595419847328244
1.8000547885894775,0.072509765625,-0.99462890625,0.08349609375,-0.3816793893129771,0.10687022900763359,-1.282442748091603
1.810054063796997,0.072509765625,-1.007080078125,0.0888671875,-0.2595419847328244,-0.24427480916030533,-1.366412213740458
1.820054292678833,0.07080078125,-0.9912109375,0.08642578125,-0.6717557251908397,0.08396946564885496,-1.4732824427480915
1.8300237655639648,0.06494140625,-1.001708984375,0.08056640625,-0.5343511450381679,-0.2595419847328244,-1.251908396946565
1.8400545120239258,0.0712890625,-1.000732421875,0.076171875,-0.5877862595419847,-0.2366412213740458,-1.3358778625954197
1.8500545024871826,0.071533203125,-1.005859375,0.0927734375,-0.48091603053435117,0.17557251908396945,-1.3893129770992367
1.8600537776947021,0.0654296875,-1.000244140625,0.07666015625,-0.2595419847328244,-0.06870229007633588,-1.534351145038168
1.8700542449951172,0.067626953125,-1.006103515625,0.075927734375,0.0,-0.1450381679389313,-1.3358778625954197
1.8800547122955322,0.07275390625,-1.001220703125,0.081298828125,-0.2748091603053435,0.007633587786259542,-1.3129770992366412
1.890054702758789,0.0732421875,-1.001220703125,0.081298828125,-0.5343511450381679,-0.0916030534351145,-1.4198473282442747
1.9000539779663086,0.0712890625,-1.001220703125,0.08203125,-0.8778625954198473,-1.9465648854961832,-1.1297709923664123
1.9100537300109863,0.0712890625,-1.004150390625,0.081787109375,-0.7633587786259542,-0.11450381679389313,-1.2213740458015268
1.9200539588928223,0.07177734375,-1.003173828125,0.081298828125,-0.5038167938931297,-0.16030534351145037,-1.450381679389313
1.9300544261932373,0.064453125,-1.00244140625,0.086181640625,-0.46564885496183206,-1.9389312977099236,-1.3740458015267176
1.940053939819336,0.074951171875,-1.00048828125,0.085693359375,-0.1984732824427481,-0.030534351145038167,-1.4122137404580153
1.95005464553833,0.072509765625,-1.00341796875,0.076416015625,-1.9541984732824427,0.21374045801526717,-1.450381679389313
1.9600543975830078,0.0751953125,-1.00146484375,0.087646484375,-0.3282442748091603,-0.15267175572519084,-1.5419847328244274
1.9700539112091064,0.06982421875,-1.009521484375,0.081298828125,-0.2900763358778626,-0.05343511450381679,-1.4198473282442747
1.9800264835357666,0.071533203125,-1.00634765625,0.08203125,-0.5725190839694656,-0.13740458015267176,-1.2595419847328244
1.9900541305541992,0.069091796875,-1.003662109375,0.06689453125,-0.8549618320610687,-1.9389312977099236,-1.3206106870229009
2.000816583633423,0.0751953125,-1.007080078125,0.077880859375,-0.5954198473282443,1.9312977099236641,-1.3893129770992367
2.010056972503662,0.069580078125,-0.999755859375,0.080810546875,-0.40458015267175573,0.06870229007633588,-1.4045801526717556
2.0200228691101074,0.066162109375,-1.00927734375,0.081298828125,-0.04580152671755725,-0.05343511450381679,-1.3893129770992367
2.0300917625427246,0.07421875,-0.999267578125,0.086181640625,-0.17557251908396945,0.04580152671755725,-1.3893129770992367
2.0400657653808594,0.07373046875,-1.001953125,0.080322265625,-0.22900763358778625,1.916030534351145,-1.2900763358778626
2.0500595569610596,0.0673828125,-1.013916015625,0.082763671875,-0.5572519083969466,-0.13740458015267176,-1.450381679389313
2.0600638389587402,0.0693359375,-1.005859375,0.08203125,-0.5801526717557252,-0.0916030534351145,-1.4427480916030535
2.0700604915618896,0.076416015625,-1.0068359375,0.0830078125,-0.732824427480916,-0.022900763358778626,-1.3053435114503817
2.0800552368164062,0.06884765625,-1.000244140625,0.078125,-0.5954198473282443,0.183206106870229,-1.3282442748091603
2.090054750442505,0.075927734375,-1.00341796875,0.0732421875,-0.3816793893129771,0.007633587786259542,-1.465648854961832
2.1000537872314453,0.07177734375,-1.0087890625,0.082763671875,-0.32061068702290074,-0.06870229007633588,-1.5114503816793894
2.110053777694702,0.066162109375,-1.001708984375,0.079833984375,-0.2824427480916031,-0.09923664122137404,-1.5954198473282444
2.120054244995117,0.062744140625,-1.005615234375,0.082275390625,-0.25190839694656486,-0.04580152671755725,-1.297709923664122
2.130054473876953,0.0693359375,-1.014892578125,0.087890625,-0.3893129770992366,-0.10687022900763359,-1.3893129770992367
2.140054225921631,0.071044921875,-1.002197265625,0.0927734375,-0.4961832061068702,-0.04580152671755725,-1.2061068702290076
2.150054693222046,0.07373046875,-0.999755859375,0.0771484375,-0.7404580152671756,1.916030534351145,-1.3282442748091603
2.1600184440612793,0.073486328125,-1.001708984375,0.092041015625,-0.3969465648854962,-0.11450381679389313,-1.3511450381679388
2.1700546741485596,0.07177734375,-1.005859375,0.075439453125,-0.3435114503816794,-0.2748091603053435,-1.3587786259541985
2.180055856704712,0.071044921875,-1.00244140625,0.0712890625,-0.5648854961832062,0.15267175572519084,-1.366412213740458
2.1900546550750732,0.086181640625,-1.014404296875,0.082275390625,-0.5343511450381679,-0.183206106870229,-1.3969465648854962
2.200054407119751,0.0712890625,-0.987548828125,0.075439453125,-0.3969465648854962,0.061068702290076333,-1.4351145038167938
2.210054397583008,0.0693359375,-0.9873046875,0.090576171875,-0.3893129770992366,0.16030534351145037,-1.3053435114503817
2.2200541496276855,0.065185546875,-1.001953125,0.09033203125,-0.3969465648854962,-0.05343511450381679,-1.3435114503816794
2.2300539016723633,0.069580078125,-1.0087890625,0.08447265625,-0.48091603053435117,-0.030534351145038167,-1.3893129770992367
2.240054130554199,0.074951171875,-1.003173828125,0.083251953125,-0.5877862595419847,0.1297709923664122,-1.5419847328244274
2.250053882598877,0.069580078125,-1.0029296875,0.086669921875,-0.29770992366412213,0.16793893129770993,-1.3587786259541985
2.2600553035736084,0.074462890625,-1.007568359375,0.072021484375,-0.35877862595419846,-0.12213740458015267,-1.2442748091603053
2.2700541019439697,0.068603515625,-1.00439453125,0.083984375,-0.37404580152671757,-0.1297709923664122,-1.2366412213740459
2.2800540924072266,0.066162109375,-1.002197265625,0.085205078125,-0.5343511450381679,-0.03816793893129771,-1.297709923664122
2.290055274963379,0.0693359375,-1.007080078125,0.0927734375,-0.5572519083969466,0.007633587786259542,-1.465648854961832
2.3000550270080566,0.074951171875,-0.999755859375,0.075927734375,-0.3053435114503817,-0.11450381679389313,-1.3587786259541985
2.3100547790527344,0.07421875,-1.01123046875,0.077880859375,-0.3969465648854962,-0.12213740458015267,-1.297709923664122
2.3200552463531494,0.071044921875,-1.004150390625,0.088623046875,-0.26717557251908397,-0.030534351145038167,-1.3969465648854962
2.3300535678863525,0.069091796875,-1.00390625,0.09228515625,-0.48091603053435117,-0.11450381679389313,-1.4580152671755726
2.340054512023926,0.0712890625,-1.0068359375,0.08154296875,-0.7633587786259542,-1.916030534351145,-1.251908396946565
2.350053548812866,0.0751953125,-1.010498046875,0.088134765625,-0.4961832061068702,0.015267175572519083,-1.4122137404580153
2.3600540161132812,0.0703125,-1.001708984375,0.06689453125,-0.48854961832061067,-0.22900763358778625,-1.3893129770992367
2.370054006576538,0.069580078125,-1.00048828125,0.093505859375,-0.45038167938931295,0.09923664122137404,-1.213740458015267
2.380056858062744,0.069091796875,-1.002197265625,0.08154296875,-0.13740458015267176,-0.1984732824427481,-1.465648854961832
2.3900539875030518,0.0693359375,-1.005859375,0.07861328125,-0.32061068702290074,1.9465648854961832,-1.3358778625954197
2.4000556468963623,0.070068359375,-1.002197265625,0.076416015625,-0.3893129770992366,-0.11450381679389313,-1.2595419847328244
2.4100537300109863,0.066650390625,-1.007080078125,0.08935546875,-0.37404580152671757,1.900763358778626,-1.4045801526717556
2.4200544357299805,0.075439453125,-1.01025390625,0.085205078125,-0.6259541984732825,0.07633587786259542,-1.4122137404580153
2.4300544261932373,0.069091796875,-1.005859375,0.079833984375,-0.6030534351145038,0.022900763358778626,-1.5572519083969465
2.4400551319122314,0.076171875,-1.00244140625,0.07763671875,-0.6793893129770993,0.10687022900763359,-1.3129770992366412
2.4500551223754883,0.0712890625,-1.0068359375,0.086181640625,-0.366412213740458,-0.12213740458015267,-1.2671755725190839
2.460055112838745,0.074462890625,-1.00048828125,0.079833984375,-0.2595419847328244,-1.916030534351145,-1.4961832061068703
2.4700536727905273,0.068359375,-1.0029296875,0.084716796875,-0.19083969465648856,-1.9541984732824427,-1.2900763358778626
2.480055332183838,0.07275390625,-1.005126953125,0.07470703125,-0.21374045801526717,-0.183206106870229,-1.3435114503816794
2.49005389213562,0.070556640625,-1.003173828125,0.0791015625,-0.2748091603053435,-0.19083969465648856,-1.4351145038167938
2.50005841255188,0.07275390625,-0.99951171875,0.085693359375,-0.6412213740458015,1.9465648854961832,-1.2061068702290076
2.5100557804107666,0.07666015625,-1.00439453125,0.08349609375,-0.48091603053435117,-0.06870229007633588,-1.5954198473282444
2.520054817199707,0.072021484375,-0.99755859375,0.07861328125,-0.6259541984732825,-0.03816793893129771,-1.381679389312977
2.5300545692443848,0.06787109375,-1.004638671875,0.087158203125,-0.6259541984732825,-0.07633587786259542,-1.4351145038167938
2.5400550365448,0.071044921875,-1.005859375,0.079833984375,-0.5877862595419847,-0.05343511450381679,-1.3893129770992367
2.550053834915161,0.06982421875,-1.004638671875,0.07861328125,-0.4351145038167939,-1.9389312977099236,-1.282442748091603
2.560054063796997,0.07275390625,-0.986328125,0.093505859375,-0.4961832061068702,0.030534351145038167,-1.4427480916030535
2.570054292678833,0.062744140625,-1.0078125,0.0830078125,-0.3816793893129771,-1.900763358778626,-1.297709923664122
2.58005428314209,0.0673828125,-1.001708984375,0.082275390625,-0.3969465648854962,0.015267175572519083,-1.3129770992366412
2.5900540351867676,0.07177734375,-1.001953125,0.093017578125,-0.5038167938931297,-0.2366412213740458,-1.366412213740458
2.6000545024871826,0.07470703125,-1.001220703125,0.085693359375,-0.2748091603053435,-1.9541984732824427,-1.3435114503816794
2.6100542545318604,0.0703125,-1.008544921875,0.085693359375,-0.48854961832061067,1.8931297709923665,-1.4045801526717556
2.62005615234375,0.071533203125,-1.00146484375,0.07861328125,-0.24427480916030533,0.12213740458015267,-1.3435114503816794
2.6300549507141113,0.069091796875,-1.003173828125,0.087890625,-0.1297709923664122,-1.9389312977099236,-1.3893129770992367
2.640054941177368,0.0703125,-1.002197265625,0.082763671875,-0.4351145038167939,-0.10687022900763359,-1.3969465648854962
2.650054693222046,0.068603515625,-0.988525390625,0.077392578125,-0.6946564885496184,0.061068702290076333,-1.4274809160305344
2.6600544452667236,0.070068359375,-1.001220703125,0.06494140625,-0.5419847328244275,-0.22137404580152673,-1.4732824427480915
2.670053720474243,0.0771484375,-1.004150390625,0.072998046875,-0.5114503816793893,-1.9236641221374047,-1.381679389312977
2.6800544261932373,0.06494140625,-1.005126953125,0.07568359375,-0.2824427480916031,-0.15267175572519084,-1.4961832061068703
2.6900558471679688,0.071044921875,-1.004638671875,0.080078125,-0.2595419847328244,0.07633587786259542,-1.4274809160305344
2.700054883956909,0.0634765625,-1.001220703125,0.076904296875,-0.2366412213740458,-0.12213740458015267,-1.3358778625954197
2.710054636001587,0.06298828125,-1.003173828125,0.08251953125,-0.3969465648854962,-0.0916030534351145,-1.5267175572519085
2.7200539112091064,0.070068359375,-1.000732421875,0.08544921875,-0.6030534351145038,-0.16030534351145037,-1.5038167938931297
2.7300174236297607,0.0732421875,-1.015625,0.091064453125,-0.6183206106870229,-0.09923664122137404,-1.3587786259541985
2.7400546073913574,0.07568359375,-1.00390625,0.080078125,-0.4122137404580153,0.08396946564885496,-1.450381679389313
2.7500545978546143,0.06787109375,-1.000732421875,0.083251953125,-0.3053435114503817,-0.030534351145038167,-1.3053435114503817
2.760054111480713,0.072509765625,-1.00244140625,0.080322265625,-0.4198473282442748,-0.06870229007633588,-1.3969465648854962
2.770054578781128,0.075927734375,-1.006103515625,0.08251953125,-0.366412213740458,0.09923664122137404,-1.3969465648854962
2.7800533771514893,0.06494140625,-1.00341796875,0.084716796875,-0.40458015267175573,0.06870229007633588,-1.4351145038167938
2.7900547981262207,0.072265625,-1.00732421875,0.08154296875,-0.5954198473282443,-0.19083969465648856,-1.3053435114503817
2.800053834915161,0.07373046875,-1.00146484375,0.0771484375,-0.5038167938931297,0.08396946564885496,-1.3587786259541985
2.810053825378418,0.07373046875,-1.001953125,0.080322265625,-0.7251908396946565,-0.2595419847328244,-1.4580152671755726
2.8200268745422363,0.067138671875,-1.00244140625,0.08447265625,-0.6641221374045801,-0.061068702290076333,-1.4961832061068703
2.8300538063049316,0.073974609375,-1.00146484375,0.0869140625,-0.5725190839694656,-0.2366412213740458,-1.3511450381679388
2.840054750442505,0.069091796875,-1.00244140625,0.076904296875,-0.366412213740458,-0.0916030534351145,-1.4885496183206106
2.8500537872314453,0.072021484375,-1.008544921875,0.082275390625,-0.35877862595419846,0.11450381679389313,-1.5114503816793894
2.8600549697875977,0.0771484375,-1.001708984375,0.087158203125,-0.37404580152671757,0.03816793893129771,-1.4580152671755726
2.870053768157959,0.071044921875,-1.001953125,0.0849609375,-0.5038167938931297,0.061068702290076333,-1.2748091603053435
2.8800559043884277,0.064453125,-1.005126953125,0.083984375,-0.31297709923664124,-0.16030534351145037,-1.4198473282442747
2.8900537490844727,0.0703125,-0.988525390625,0.080322265625,-0.3816793893129771,-0.17557251908396945,-1.4961832061068703
2.900054693222046,0.072265625,-1.00927734375,0.07861328125,-0.7251908396946565,0.13740458015267176,-1.4045801526717556
2.910054922103882,0.06884765625,-0.99853515625,0.0751953125,-0.5343511450381679,-0.1297709923664122,-1.3511450381679388
2.9200549125671387,0.074462890625,-1.00390625,0.080810546875,-0.24427480916030533,0.10687022900763359,-1.3053435114503817
2.9300546646118164,0.072998046875,-1.0,0.0751953125,-0.20610687022900764,0.007633587786259542,-1.4351145038167938
2.940054416656494,0.086181640625,-1.0068359375,0.07861328125,-0.5725190839694656,-0.1450381679389313,-1.5648854961832062
2.9500560760498047,0.071044921875,-0.996337890625,0.077880859375,-0.40458015267175573,-0.24427480916030533,-1.2442748091603053
2.9600541591644287,0.06787109375,-1.00439453125,0.083251953125,-0.46564885496183206,-0.1297709923664122,-1.3206106870229009
2.970054864883423,0.073974609375,-1.00439453125,0.080322265625,-0.8931297709923665,0.1297709923664122,-1.3435114503816794
2.9800539016723633,0.0693359375,-0.998779296875,0.083740234375,-0.5343511450381679,-1.8549618320610688,-1.4351145038167938
2.9900543689727783,0.0771484375,-1.004638671875,0.08251953125,-0.42748091603053434,-0.10687022900763359,-1.465648854961832
3.000054359436035,0.070068359375,-1.0068359375,0.071533203125,-0.16793893129770993,0.061068702290076333,-1.5648854961832062
3.010056495666504,0.068359375,-1.000732421875,0.087158203125,-0.3053435114503817,1.9312977099236641,-1.282442748091603
3.0200536251068115,0.07080078125,-1.004150390625,0.083251953125,-0.2366412213740458,-0.04580152671755725,-1.3435114503816794
3.0300564765930176,0.07421875,-1.01513671875,0.0791015625,-0.42748091603053434,-0.08396946564885496,-1.4427480916030535
3.040055274963379,0.0712890625,-1.015380859375,0.09130859375,-0.6564885496183206,1.9083969465648856,-1.297709923664122
3.0500540733337402,0.066650390625,-1.007568359375,0.083740234375,-0.4351145038167939,0.022900763358778626,-1.3282442748091603
3.0600552558898926,0.068115234375,-1.004638671875,0.083984375,-0.4732824427480916,-0.2595419847328244,-1.297709923664122
3.070054292678833,0.07275390625,-1.0009765625,0.077392578125,-0.2748091603053435,0.030534351145038167,-1.4732824427480915
3.08005428314209,0.069580078125,-0.9990234375,0.069580078125,-0.32061068702290074,-0.1450381679389313,-1.297709923664122
3.090056896209717,0.065185546875,-0.989501953125,0.076904296875,-0.21374045801526717,-1.916030534351145,-1.4961832061068703
3.1000564098358154,0.067626953125,-1.00341796875,0.064208984375,-0.31297709923664124,0.015267175572519083,-1.366412213740458
3.110056161880493,0.070068359375,-1.00830078125,0.07568359375,-0.6335877862595419,0.04580152671755725,-1.3206106870229009
3.120056390762329,0.0712890625,-1.00390625,0.084716796875,-0.7480916030534351,-0.20610687022900764,-1.3129770992366412
3.130056381225586,0.07421875,-0.999267578125,0.075439453125,-0.44274809160305345,-0.12213740458015267,-1.381679389312977
3.1400277614593506,0.068359375,-1.0078125,0.091064453125,-0.2595419847328244,0.030534351145038167,-1.282442748091603
3.1500566005706787,0.071044921875,-0.99365234375,0.0869140625,-0.31297709923664124,-0.15267175572519084,-1.450381679389313
3.160057306289673,0.07177734375,-1.013427734375,0.084716796875,-0.2595419847328244,-0.25190839694656486,-1.5954198473282444
3.170056104660034,0.0703125,-0.993408203125,0.068359375,-0.24427480916030533,-0.15267175572519084,-1.2748091603053435
3.1800568103790283,0.07373046875,-0.9873046875,0.0908203125,-0.35877862595419846,-0.15267175572519084,-1.3358778625954197
3.190056324005127,0.0673828125,-1.001220703125,0.07666015625,-0.549618320610687,-0.183206106870229,-1.4122137404580153
3.200057029724121,0.06494140625,-1.004150390625,0.085693359375,-0.4580152671755725,1.9083969465648856,-1.4351145038167938
3.2100470066070557,0.069091796875,-1.000732421875,0.073486328125,-0.40458015267175573,-0.0916030534351145,-1.5114503816793894
3.2200562953948975,0.070068359375,-1.000732421875,0.079345703125,-0.22137404580152673,-0.06870229007633588,-1.2900763358778626
3.2300562858581543,0.0693359375,-1.005859375,0.08642578125,-0.3511450381679389,-0.07633587786259542,-1.3206106870229009
3.240055561065674,0.07568359375,-1.0029296875,0.08203125,-0.26717557251908397,-0.11450381679389313,-1.3206106870229009
3.250056266784668,0.072509765625,-1.01513671875,0.08544921875,-0.48091603053435117,-0.04580152671755725,-1.381679389312977
3.2600560188293457,0.07666015625,-0.98486328125,0.079345703125,-0.5725190839694656,-0.2595419847328244,-1.2366412213740459
3.2700557708740234,0.07080078125,-1.0029296875,0.065673828125,-0.44274809160305345,-0.16030534351145037,-1.4045801526717556
3.280056953430176,0.072021484375,-1.001708984375,0.071533203125,-0.3893129770992366,-0.06870229007633588,-1.297709923664122
3.2900569438934326,0.072509765625,-0.997802734375,0.076416015625,-0.366412213740458,-0.16030534351145037,-1.450381679389313
3.300055980682373,0.067626953125,-0.995361328125,0.07373046875,-0.37404580152671757,-1.9541984732824427,-1.3358778625954197
3.3100552558898926,0.069091796875,-1.00634765625,0.076171875,-0.2748091603053435,-0.0916030534351145,-1.4122137404580153
3.320019483566284,0.069091796875,-1.013671875,0.0869140625,-0.4198473282442748,-0.11450381679389313,-1.2900763358778626
3.3300559520721436,0.068359375,-1.004638671875,0.080078125,-0.6183206106870229,-0.08396946564885496,-1.3206106870229009
3.3400559425354004,0.0712890625,-1.00048828125,0.08203125,-0.8625954198473282,-0.030534351145038167,-1.2748091603053435
3.3500561714172363,0.07177734375,-1.001708984375,0.078857421875,-0.6259541984732825,0.07633587786259542,-1.2748091603053435
3.360056161880493,0.066650390625,-1.004150390625,0.06884765625,-0.6641221374045801,-0.1450381679389313,-1.4732824427480915
3.37005615234375,0.068359375,-1.0,0.076904296875,-0.2824427480916031,1.8778625954198473,-1.2671755725190839
3.380056142807007,0.072998046875,-1.000732421875,0.07958984375,-0.17557251908396945,0.16030534351145037,-1.3511450381679388
3.3900554180145264,0.0712890625,-1.00341796875,0.07568359375,-0.4580152671755725,0.022900763358778626,-1.4351145038167938
3.4000585079193115,0.073486328125,-1.00390625,0.08984375,-0.1450381679389313,-0.21374045801526717,-1.450381679389313
3.4100563526153564,0.069091796875,-1.001953125,0.083251953125,-0.6183206106870229,0.07633587786259542,-1.297709923664122
3.4200568199157715,0.069091796875,-1.003662109375,0.08349609375,-0.6259541984732825,1.900763358778626,-1.4122137404580153
3.430055856704712,0.0732421875,-1.008056640625,0.07861328125,-0.3282442748091603,-0.05343511450381679,-1.3511450381679388
3.4400570392608643,0.068115234375,-1.001220703125,0.080322265625,-0.24427480916030533,-0.022900763358778626,-1.366412213740458
3.4500553607940674,0.06689453125,-1.0048828125,0.085205078125,-0.29770992366412213,-0.2595419847328244,-1.4580152671755726
3.460057497024536,0.076171875,-1.00341796875,0.083740234375,-0.2366412213740458,-0.015267175572519083,-1.5038167938931297
3.470057249069214,0.069091796875,-1.01513671875,0.0869140625,-0.6793893129770993,-1.9541984732824427,-1.3282442748091603
3.4800562858581543,0.068603515625,-0.99853515625,0.0654296875,-0.7404580152671756,1.9389312977099236,-1.3358778625954197
3.490055799484253,0.0751953125,-1.009033203125,0.084716796875,-0.6793893129770993,-0.16793893129770993,-1.450381679389313
3.500056028366089,0.076171875,-1.008544921875,0.07373046875,-0.3053435114503817,-0.20610687022900764,-1.2442748091603053
3.5100557804107666,0.067138671875,-1.01220703125,0.077392578125,-0.3053435114503817,-0.061068702290076333,-1.16793893129771
3.5200564861297607,0.071533203125,-1.007568359375,0.086669921875,-0.29770992366412213,-0.015267175572519083,-1.4122137404580153
3.5300557613372803,0.068603515625,-1.0078125,0.079345703125,-0.2595419847328244,0.05343511450381679,-1.2900763358778626
3.5400567054748535,0.067626953125,-1.005126953125,0.08251953125,-0.4580152671755725,-0.15267175572519084,-1.4885496183206106
3.550056219100952,0.076171875,-0.988037109375,0.080078125,-0.6870229007633588,-0.20610687022900764,-1.4885496183206106
3.560056447982788,0.06787109375,-1.005615234375,0.084716796875,-0.6946564885496184,-0.07633587786259542,-1.4274809160305344
3.5700559616088867,0.074462890625,-0.99951171875,0.064453125,-0.7022900763358778,1.9389312977099236,-1.3053435114503817
3.5800561904907227,0.068603515625,-1.00146484375,0.075927734375,-0.35877862595419846,-1.900763358778626,-1.282442748091603
3.5900566577911377,0.067138671875,-1.006103515625,0.08154296875,-0.45038167938931295,0.007633587786259542,-1.3282442748091603
3.6000559329986572,0.075927734375,-1.004638671875,0.081298828125,-0.40458015267175573,-0.22900763358778625,-1.5267175572519085
3.610055685043335,0.07470703125,-1.003173828125,0.080078125,-0.16030534351145037,-0.12213740458015267,-1.381679389312977
3.620055913925171,0.0712890625,-1.00048828125,0.0908203125,-0.5725190839694656,-0.25190839694656486,-1.3511450381679388
3.630056619644165,0.06689453125,-0.992919921875,0.092529296875,-0.6335877862595419,-0.09923664122137404,-1.4274809160305344
3.6400561332702637,0.072998046875,-0.999755859375,0.082275390625,-0.5877862595419847,0.13740458015267176,-1.4045801526717556
3.6500563621520996,0.072509765625,-1.002197265625,0.09228515625,-0.3893129770992366,-0.10687022900763359,-1.4351145038167938
3.660057306289673,0.07275390625,-0.99951171875,0.0830078125,-0.37404580152671757,-0.1450381679389313,-1.4351145038167938
3.670055627822876,0.067626953125,-1.00244140625,0.076416015625,-0.48854961832061067,-0.24427480916030533,-1.3282442748091603
3.6800572872161865,0.06787109375,-1.002685546875,0.075927734375,-0.5954198473282443,-0.007633587786259542,-1.2595419847328244
3.6900558471679688,0.076904296875,-0.996337890625,0.07666015625,-0.21374045801526717,-0.03816793893129771,-1.3358778625954197
3.700056791305542,0.072509765625,-1.00341796875,0.080322265625,-0.35877862595419846,-0.007633587786259542,-1.549618320610687
3.710045337677002,0.070068359375,-1.00390625,0.068603515625,-0.6946564885496184,-0.183206106870229,-1.5190839694656488
3.7200562953948975,0.07568359375,-1.003662109375,0.0859375,-0.4351145038167939,-0.09923664122137404,-1.4580152671755726
3.730055570602417,0.06884765625,-1.0029296875,0.0849609375,-0.1984732824427481,-0.21374045801526717,-1.381679389312977
3.740056276321411,0.07421875,-1.007568359375,0.08056640625,-0.3053435114503817,-0.04580152671755725,-1.3435114503816794
3.750056743621826,0.07373046875,-1.001953125,0.08251953125,-0.4351145038167939,0.061068702290076333,-1.4274809160305344
3.7600555419921875,0.07373046875,-1.00390625,0.07861328125,-0.2748091603053435,-0.08396946564885496,-1.4580152671755726
3.7700564861297607,0.0712890625,-1.000244140625,0.087646484375,-0.3053435114503817,-0.007633587786259542,-1.366412213740458
3.7800567150115967,0.068115234375,-1.004150390625,0.078369140625,-0.5877862595419847,-0.03816793893129771,-1.282442748091603
3.7900569438934326,0.0693359375,-1.007568359375,0.0947265625,-0.5877862595419847,-0.030534351145038167,-1.450381679389313
3.800056219100952,0.073974609375,-1.00244140625,0.086669921875,-0.40458015267175573,-0.16030534351145037,-1.4122137404580153
3.810056209564209,0.07275390625,-1.00390625,0.08447265625,-0.3053435114503817,-0.1297709923664122,-1.2213740458015268
3.820056438446045,0.070068359375,-1.00146484375,0.080810546875,-0.3511450381679389,-0.12213740458015267,-1.3511450381679388
3.8300559520721436,0.06689453125,-1.00830078125,0.08203125,-0.40458015267175573,0.1984732824427481,-1.4198473282442747
3.8400561809539795,0.068115234375,-0.99853515625,0.08349609375,-0.7175572519083969,-0.183206106870229,-1.3053435114503817
3.8500559329986572,0.075439453125,-1.0048828125,0.076171875,-0.6564885496183206,-1.9389312977099236,-1.3358778625954197
3.860056161880493,0.069091796875,-1.00341796875,0.081298828125,-0.5190839694656488,0.04580152671755725,-1.183206106870229
3.870055913925171,0.076171875,-1.006103515625,0.069091796875,-0.44274809160305345,-0.10687022900763359,-1.4732824427480915
3.880056142807007,0.067138671875,-1.00244140625,0.080810546875,-0.35877862595419846,0.022900763358778626,-1.4732824427480915
3.8900561332702637,0.06787109375,-1.00341796875,0.07763671875,-0.3816793893129771,-0.17557251908396945,-1.4732824427480915
3.9000582695007324,0.07568359375,-1.00390625,0.080810546875,-0.45038167938931295,-1.8931297709923665,-1.549618320610687
3.910055637359619,0.069580078125,-1.00048828125,0.08251953125,-0.4351145038167939,-0.08396946564885496,-1.2366412213740459
3.9200568199157715,0.068359375,-1.008056640625,0.080322265625,-0.5725190839694656,0.061068702290076333,-1.1984732824427482
3.930055856704712,0.0703125,-1.005615234375,0.080810546875,-0.6412213740458015,0.05343511450381679,-1.3511450381679388
3.9400579929351807,0.071044921875,-1.003662109375,0.084228515625,-0.5190839694656488,-0.03816793893129771,-1.3129770992366412
3.9500551223754883,0.06787109375,-1.00439453125,0.070556640625,-0.3893129770992366,-0.2748091603053435,-1.4274809160305344
3.960057020187378,0.0712890625,-1.00048828125,0.08837890625,-0.4198473282442748,-0.11450381679389313,-1.2595419847328244
3.970052480697632,0.0703125,-0.9951171875,0.079833984375,-0.3511450381679389,-0.2748091603053435,-1.2595419847328244
3.9800567626953125,0.070068359375,-1.010498046875,0.082763671875,-0.48091603053435117,-0.10687022900763359,-1.3511450381679388
3.9900553226470947,0.066162109375,-0.986083984375,0.084228515625,-0.5190839694656488,1.8778625954198473,-1.5572519083969465
4.00005578994751,0.070556640625,-1.0029296875,0.06689453125,-0.5267175572519084,-0.11450381679389313,-1.4122137404580153
4.010056972503662,0.0693359375,-1.004638671875,0.076904296875,-0.3435114503816794,-0.08396946564885496,-1.251908396946565
4.0200419425964355,0.073486328125,-1.003173828125,0.087646484375,-0.35877862595419846,-0.13740458015267176,-1.381679389312977
4.030058145523071,0.076171875,-1.005859375,0.079345703125,-0.48854961832061067,0.1297709923664122,-1.3435114503816794
4.040055990219116,0.0751953125,-1.001953125,0.076416015625,-0.5877862595419847,-1.9541984732824427,-1.213740458015267
4.05005669593811,0.071533203125,-1.005615234375,0.078857421875,-0.4351145038167939,-0.061068702290076333,-1.3053435114503817
4.060056447982788,0.06689453125,-1.014404296875,0.07470703125,-0.4198473282442748,-0.25190839694656486,-1.213740458015267
4.070055723190308,0.07177734375,-1.00048828125,0.086181640625,-0.4732824427480916,-1.9465648854961832,-1.450381679389313
4.080056190490723,0.06298828125,-0.986083984375,0.0810546875,-0.4732824427480916,0.030534351145038167,-1.3282442748091603
4.0900561809539795,0.067626953125,-0.984619140625,0.092041015625,-0.35877862595419846,-0.20610687022900764,-1.5114503816793894
4.100056171417236,0.072265625,-1.000244140625,0.077392578125,-0.4198473282442748,-0.21374045801526717,-1.3358778625954197
4.110056161880493,0.076904296875,-1.00634765625,0.081298828125,-0.37404580152671757,-0.04580152671755725,-1.3206106870229009
4.120055913925171,0.06494140625,-0.999267578125,0.0771484375,-0.549618320610687,-0.24427480916030533,-1.4580152671755726
4.1300554275512695,0.06689453125,-1.00537109375,0.090087890625,-0.7633587786259542,0.061068702290076333,-1.3435114503816794
4.140053987503052,0.075439453125,-1.01513671875,0.06494140625,-0.26717557251908397,-0.08396946564885496,-1.4580152671755726
4.1500561237335205,0.067138671875,-1.00244140625,0.08203125,-0.33587786259541985,-0.04580152671755725,-1.2366412213740459
4.160056829452515,0.067626953125,-1.000244140625,0.08447265625,-0.37404580152671757,0.0916030534351145,-1.2213740458015268
4.170055627822876,0.072509765625,-1.004150390625,0.06787109375,-0.3053435114503817,0.06870229007633588,-1.297709923664122
4.180057048797607,0.068359375,-1.001708984375,0.085693359375,-0.6870229007633588,-0.09923664122137404,-1.3740458015267176
4.190056562423706,0.06982421875,-1.004150390625,0.08154296875,-0.6259541984732825,-0.0916030534351145,-1.3358778625954197
4.200057029724121,0.07275390625,-1.006103515625,0.087646484375,-0.48854961832061067,0.09923664122137404,-1.3511450381679388
4.2100584506988525,0.06982421875,-1.00146484375,0.0859375,-0.5114503816793893,-0.04580152671755725,-1.251908396946565
4.220056533813477,0.068359375,-1.00439453125,0.091552734375,-0.5648854961832062,0.0916030534351145,-1.4351145038167938
4.230056524276733,0.072021484375,-1.0029296875,0.080322265625,-0.3053435114503817,-0.03816793893129771,-1.465648854961832
4.24005651473999,0.072265625,-1.0048828125,0.09033203125,-0.4198473282442748,-0.22137404580152673,-1.4580152671755726
4.250056266784668,0.06787109375,-1.0029296875,0.079345703125,-0.26717557251908397,0.03816793893129771,-1.3893129770992367
4.260056257247925,0.064208984375,-1.005126953125,0.0810546875,-0.48854961832061067,-1.9389312977099236,-1.450381679389313
4.270055770874023,0.074462890625,-0.99951171875,0.08837890625,-0.6564885496183206,0.0916030534351145,-1.2900763358778626
4.280056476593018,0.0732421875,-1.004150390625,0.075439453125,-0.5038167938931297,0.06870229007633588,-1.1984732824427482
4.290056467056274,0.0712890625,-1.005615234375,0.069091796875,-0.5267175572519084,-0.16030534351145037,-1.4732824427480915
4.300056457519531,0.07568359375,-1.005615234375,0.070556640625,-0.45038167938931295,-0.03816793893129771,-1.3511450381679388
4.310056209564209,0.0693359375,-1.000244140625,0.085693359375,-0.2595419847328244,0.09923664122137404,-1.4351145038167938
4.320056915283203,0.07421875,-1.00146484375,0.084716796875,-0.2900763358778626,-0.16030534351145037,-1.4580152671755726
4.330057621002197,0.075439453125,-0.998291015625,0.08984375,-0.366412213740458,-0.06870229007633588,-1.4580152671755726
4.340056657791138,0.06689453125,-0.9970703125,0.08056640625,-0.7557251908396947,-0.06870229007633588,-1.5114503816793894
4.350056171417236,0.0673828125,-1.001220703125,0.084228515625,-0.4122137404580153,0.11450381679389313,-1.3282442748091603
4.360055208206177,0.0712890625,-1.013916015625,0.077392578125,-0.5648854961832062,-0.22137404580152673,-1.366412213740458
4.370056629180908,0.06494140625,-1.006103515625,0.07373046875,-0.4580152671755725,1.8778625954198473,-1.3053435114503817
4.380056858062744,0.07373046875,-1.005126953125,0.06298828125,-0.4961832061068702,-0.10687022900763359,-1.4198473282442747
4.390056133270264,0.0703125,-1.005859375,0.074951171875,-0.19083969465648856,-0.13740458015267176,-1.3893129770992367
4.400055170059204,0.0732421875,-1.00390625,0.077880859375,-0.21374045801526717,-1.9389312977099236,-1.3893129770992367
4.4100563526153564,0.0703125,-1.00244140625,0.072021484375,-0.29770992366412213,0.05343511450381679,-1.4580152671755726
4.420057058334351,0.070556640625,-1.001708984375,0.0869140625,-0.3893129770992366,1.9083969465648856,-1.3435114503816794
4.430057048797607,0.066162109375,-1.001953125,0.08203125,-0.5801526717557252,-1.8931297709923665,-1.3129770992366412
4.440057039260864,0.0732421875,-1.00341796875,0.091552734375,-0.7480916030534351,0.05343511450381679,-1.3587786259541985
4.450056076049805,0.067138671875,-1.001708984375,0.069091796875,-0.48854961832061067,-0.17557251908396945,-1.2900763358778626
4.46005654335022,0.06884765625,-0.989013671875,0.074951171875,-0.4351145038167939,-0.07633587786259542,-1.4198473282442747
4.4700586795806885,0.071044921875,-1.005126953125,0.08056640625,-0.2824427480916031,-0.2900763358778626,-1.4580152671755726
4.4800567626953125,0.07080078125,-1.00048828125,0.076904296875,-0.3816793893129771,-0.29770992366412213,-1.381679389312977
4.490056991577148,0.069091796875,-0.994873046875,0.080078125,-0.29770992366412213,-0.07633587786259542,-1.282442748091603
4.500056505203247,0.068359375,-0.997314453125,0.074462890625,-0.4580152671755725,1.916030534351145,-1.381679389312977
4.510055780410767,0.072509765625,-1.00146484375,0.08154296875,-0.549618320610687,-0.17557251908396945,-1.4351145038167938
4.520055532455444,0.0771484375,-1.00341796875,0.08349609375,-0.3816793893129771,0.17557251908396945,-1.3129770992366412
4.530057430267334,0.072998046875,-1.00732421875,0.085693359375,-0.6946564885496184,0.05343511450381679,-1.099236641221374
4.540060997009277,0.070068359375,-1.00244140625,0.09326171875,-0.48091603053435117,-1.9465648854961832,-1.282442748091603
4.550055980682373,0.072998046875,-1.004150390625,0.0869140625,-0.44274809160305345,-0.0916030534351145,-1.4274809160305344
4.560057163238525,0.06787109375,-1.00244140625,0.0830078125,-0.45038167938931295,0.07633587786259542,-1.4809160305343512
4.570055723190308,0.071533203125,-0.998779296875,0.076904296875,-0.3511450381679389,-0.07633587786259542,-1.4580152671755726
4.580056190490723,0.072265625,-1.0029296875,0.0859375,-0.32061068702290074,-0.16793893129770993,-1.465648854961832
4.590067625045776,0.068115234375,-1.015380859375,0.079345703125,-0.5267175572519084,-1.9541984732824427,-1.3282442748091603
4.600062131881714,0.066650390625,-1.00341796875,0.06591796875,-0.46564885496183206,0.030534351145038167,-1.3893129770992367
4.610058069229126,0.07177734375,-1.003173828125,0.066162109375,-0.42748091603053434,0.015267175572519083,-1.3129770992366412
4.620062589645386,0.07568359375,-1.0,0.089111328125,-0.2900763358778626,-1.9541984732824427,-1.3587786259541985
4.6300578117370605,0.074462890625,-1.00146484375,0.07666015625,-0.31297709923664124,0.015267175572519083,-1.5648854961832062
4.640059471130371,0.06640625,-1.00439453125,0.0771484375,-0.2748091603053435,-0.10687022900763359,-1.4274809160305344
4.6500585079193115,0.065673828125,-1.00341796875,0.078125,-0.32061068702290074,-0.22900763358778625,-1.3740458015267176
4.660059690475464,0.072509765625,-0.998779296875,0.073486328125,-0.5725190839694656,-1.9389312977099236,-1.2671755725190839
4.670058727264404,0.0712890625,-0.990478515625,0.075439453125,-0.37404580152671757,-0.10687022900763359,-1.3435114503816794
4.680058240890503,0.068115234375,-0.998046875,0.080322265625,-0.40458015267175573,-0.04580152671755725,-1.4351145038167938
4.690065860748291,0.07080078125,-0.996826171875,0.083984375,-0.32061068702290074,0.007633587786259542,-1.4198473282442747
4.700058460235596,0.06982421875,-0.996826171875,0.08056640625,-0.25190839694656486,-0.09923664122137404,-1.3587786259541985
4.710057735443115,0.078857421875,-1.005126953125,0.07763671875,-0.4580152671755725,-0.04580152671755725,-1.3893129770992367
4.720057964324951,0.0712890625,-1.0048828125,0.07763671875,-0.45038167938931295,-0.1450381679389313,-1.2290076335877862
4.730058670043945,0.070556640625,-0.985595703125,0.08544921875,-0.29770992366412213,-0.007633587786259542,-1.213740458015267
4.7400596141815186,0.07275390625,-1.00341796875,0.081298828125,-0.44274809160305345,0.09923664122137404,-1.5114503816793894
4.750058174133301,0.068115234375,-1.008544921875,0.091552734375,-0.4961832061068702,-0.06870229007633588,-1.1450381679389312
4.760058641433716,0.0693359375,-1.001708984375,0.079345703125,-0.45038167938931295,0.0,-1.2900763358778626
4.770059823989868,0.068359375,-0.999267578125,0.08056640625,-0.4961832061068702,-0.2595419847328244,-1.2290076335877862
4.78005838394165,0.075927734375,-1.001953125,0.073974609375,-0.37404580152671757,-1.9083969465648856,-1.3740458015267176
4.79006552696228,0.075927734375,-0.994873046875,0.079345703125,-0.16793893129770993,-0.17557251908396945,-1.4045801526717556
4.800060033798218,0.0703125,-0.999267578125,0.081298828125,-0.42748091603053434,1.9236641221374047,-1.1755725190839694
4.81005859375,0.068115234375,-0.998291015625,0.079345703125,-0.5877862595419847,0.06870229007633588,-1.366412213740458
4.820058107376099,0.07763671875,-1.012451171875,0.084228515625,-0.40458015267175573,-0.09923664122137404,-1.4732824427480915
4.83005952835083,0.073486328125,-1.005126953125,0.0791015625,-0.7022900763358778,-0.007633587786259542,-1.3206106870229009
4.840058326721191,0.067626953125,-1.001220703125,0.078857421875,-0.3435114503816794,0.03816793893129771,-1.3206106870229009
4.8500590324401855,0.070068359375,-1.00537109375,0.083740234375,-0.6564885496183206,-1.9541984732824427,-1.3969465648854962
4.860058546066284,0.076171875,-1.002197265625,0.079345703125,-0.3816793893129771,-0.05343511450381679,-1.2366412213740459
4.870058059692383,0.0673828125,-1.005126953125,0.0791015625,-0.2824427480916031,-0.20610687022900764,-1.2595419847328244
4.880059242248535,0.069580078125,-0.99072265625,0.090087890625,-0.19083969465648856,-0.0916030534351145,-1.3053435114503817
4.890065431594849,0.076904296875,-0.99951171875,0.085693359375,-0.45038167938931295,0.022900763358778626,-1.1984732824427482
4.900057792663574,0.0712890625,-0.984619140625,0.08154296875,-0.7099236641221374,-0.12213740458015267,-1.3282442748091603
4.910058498382568,0.068359375,-1.0048828125,0.068603515625,-0.7480916030534351,-0.1450381679389313,-1.2366412213740459
4.920058488845825,0.07080078125,-0.999755859375,0.080810546875,-0.5343511450381679,0.183206106870229,-1.4961832061068703
4.930058479309082,0.069091796875,-0.99853515625,0.082275390625,-0.5419847328244275,-0.12213740458015267,-1.4809160305343512
4.940058469772339,0.072265625,-1.0068359375,0.083251953125,-0.3282442748091603,-0.20610687022900764,-1.3053435114503817
4.950057744979858,0.070556640625,-1.002197265625,0.0849609375,-0.32061068702290074,0.022900763358778626,-1.3435114503816794
4.9600605964660645,0.090087890625,-1.013916015625,0.08447265625,-0.35877862595419846,0.0,-1.4351145038167938
4.970058441162109,0.071533203125,-1.001953125,0.091064453125,-0.4961832061068702,0.07633587786259542,-1.3893129770992367
4.98006010055542,0.072998046875,-1.006591796875,0.090087890625,-0.5954198473282443,-0.03816793893129771,-1.3206106870229009
4.990065574645996,0.07080078125,-1.00439453125,0.073974609375,-0.5648854961832062,-0.16793893129770993,-1.3282442748091603
5.000060081481934,0.06982421875,-1.004150390625,0.08642578125,-0.6335877862595419,0.03816793893129771,-1.4580152671755726
5.010133504867554,0.07177734375,-0.99951171875,0.0712890625,-0.29770992366412213,-0.11450381679389313,-1.366412213740458
5.02005934715271,0.07373046875,-1.00341796875,0.077392578125,-0.5114503816793893,0.0,-1.366412213740458
5.030059099197388,0.07275390625,-1.002685546875,0.07861328125,-0.35877862595419846,-0.030534351145038167,-1.297709923664122
5.040058612823486,0.07080078125,-0.989501953125,0.076171875,-0.31297709923664124,-0.17557251908396945,-1.183206106870229
5.050058603286743,0.069091796875,-1.013427734375,0.080810546875,-0.44274809160305345,-0.061068702290076333,-1.3587786259541985
5.06005859375,0.07470703125,-1.004638671875,0.06396484375,-0.5801526717557252,-1.9312977099236641,-1.4274809160305344
5.070058345794678,0.0634765625,-1.002197265625,0.07373046875,-0.7251908396946565,1.8244274809160306,-1.2442748091603053
5.080059289932251,0.0712890625,-1.001220703125,0.077392578125,-0.46564885496183206,-0.15267175572519084,-1.4427480916030535
5.090064287185669,0.064697265625,-1.00244140625,0.076171875,-0.1984732824427481,-0.0916030534351145,-1.4809160305343512
5.100059986114502,0.06689453125,-1.0029296875,0.0791015625,-0.15267175572519084,-0.09923664122137404,-1.2366412213740459
5.110059022903442,0.074951171875,-1.00732421875,0.0869140625,-0.1297709923664122,0.05343511450381679,-1.366412213740458
5.1201372146606445,0.0751953125,-1.00439453125,0.07958984375,-0.5725190839694656,-1.916030534351145,-1.5419847328244274
5.130059242248535,0.069091796875,-1.007080078125,0.078857421875,-0.5877862595419847,-0.015267175572519083,-1.4274809160305344
5.140057325363159,0.07421875,-0.998779296875,0.08056640625,-0.5648854961832062,-1.9389312977099236,-1.3740458015267176
5.1500585079193115,0.0732421875,-1.002197265625,0.084228515625,-0.3969465648854962,-0.06870229007633588,-1.450381679389313
5.160058975219727,0.068603515625,-1.006591796875,0.0859375,-0.46564885496183206,1.8625954198473282,-1.16793893129771
5.1700592041015625,0.068603515625,-1.0009765625,0.07958984375,-0.1450381679389313,-0.0916030534351145,-1.4351145038167938
5.18005895614624,0.07080078125,-1.012939453125,0.07568359375,-0.48854961832061067,1.916030534351145,-1.6564885496183206
5.190066576004028,0.070068359375,-0.98681640625,0.085693359375,-0.26717557251908397,0.15267175572519084,-1.2366412213740459
5.200059175491333,0.06982421875,-1.00341796875,0.07763671875,-0.6259541984732825,0.03816793893129771,-1.4351145038167938
5.210057735443115,0.072021484375,-1.001953125,0.082763671875,-0.6412213740458015,-0.030534351145038167,-1.3435114503816794
5.22005820274353,0.068359375,-1.008056640625,0.07421875,-0.3282442748091603,-0.19083969465648856,-1.4045801526717556
5.230059623718262,0.06494140625,-1.000732421875,0.0849609375,-0.12213740458015267,-0.183206106870229,-1.251908396946565
5.240057468414307,0.070556640625,-1.00830078125,0.087158203125,-0.2748091603053435,0.1297709923664122,-1.6030534351145038
5.250058650970459,0.070556640625,-1.00390625,0.073486328125,-0.33587786259541985,-0.05343511450381679,-1.4351145038167938
5.260058403015137,0.06787109375,-1.0068359375,0.082275390625,-0.3435114503816794,-0.06870229007633588,-1.3435114503816794
5.2700581550598145,0.06884765625,-1.013671875,0.0830078125,-0.7786259541984732,-0.16030534351145037,-1.1755725190839694
5.280061483383179,0.06787109375,-0.99462890625,0.091552734375,-0.6030534351145038,-0.030534351145038167,-1.3740458015267176
5.290064811706543,0.07177734375,-0.999755859375,0.089111328125,-0.26717557251908397,0.022900763358778626,-1.4122137404580153
5.300060510635376,0.07373046875,-0.99951171875,0.073486328125,-0.2824427480916031,-0.1984732824427481,-1.3206106870229009
5.310057878494263,0.069091796875,-1.004150390625,0.080810546875,-0.32061068702290074,-0.19083969465648856,-1.5114503816793894
5.3200602531433105,0.072021484375,-1.002197265625,0.08642578125,-0.48854961832061067,1.916030534351145,-1.5038167938931297
5.330059289932251,0.074462890625,-1.0029296875,0.088134765625,-0.6030534351145038,-0.2366412213740458,-1.4961832061068703
5.340057373046875,0.06689453125,-1.01123046875,0.080078125,-0.5954198473282443,0.08396946564885496,-1.297709923664122
5.350058078765869,0.07275390625,-1.0029296875,0.0634765625,-0.549618320610687,0.07633587786259542,-1.534351145038168
5.360058546066284,0.0673828125,-1.000244140625,0.09228515625,-0.5038167938931297,-0.183206106870229,-1.4274809160305344
5.370058059692383,0.074951171875,-1.008544921875,0.087646484375,-0.29770992366412213,-1.8778625954198473,-1.2595419847328244
5.380058765411377,0.068115234375,-1.0009765625,0.080810546875,-0.11450381679389313,-0.16793893129770993,-1.549618320610687
5.390064477920532,0.06982421875,-0.99951171875,0.0751953125,-0.37404580152671757,-0.0916030534351145,-1.3587786259541985
5.400058031082153,0.068359375,-0.99755859375,0.08056640625,-0.6717557251908397,-0.04580152671755725,-1.5267175572519085
5.410058498382568,0.070556640625,-1.00244140625,0.07861328125,-0.6564885496183206,-1.9312977099236641,-1.2748091603053435
5.420058012008667,0.07177734375,-1.003173828125,0.079345703125,-0.7938931297709924,-0.13740458015267176,-1.3893129770992367
5.430059909820557,0.070556640625,-0.9921875,0.082275390625,-0.3893129770992366,0.015267175572519083,-1.2900763358778626
5.440058469772339,0.068603515625,-1.006591796875,0.0791015625,-0.4580152671755725,-0.07633587786259542,-1.2366412213740459
5.45005989074707,0.06884765625,-1.006591796875,0.086669921875,-0.183206106870229,0.10687022900763359,-1.3282442748091603
5.460059642791748,0.077392578125,-1.005859375,0.083984375,-0.42748091603053434,-0.19083969465648856,-1.3206106870229009
5.470058441162109,0.0693359375,-1.004150390625,0.07666015625,-0.2748091603053435,0.09923664122137404,-1.5267175572519085
5.480060577392578,0.0654296875,-1.000244140625,0.081298828125,-0.6564885496183206,0.11450381679389313,-1.4351145038167938
5.490065097808838,0.0693359375,-0.99951171875,0.08837890625,-0.7099236641221374,-0.08396946564885496,-1.366412213740458
5.500059604644775,0.07666015625,-1.005615234375,0.078857421875,-0.4198473282442748,0.2748091603053435,-1.5419847328244274
5.510059595108032,0.07275390625,-0.999755859375,0.092529296875,-0.46564885496183206,-0.030534351145038167,-1.3206106870229009
5.520060300827026,0.0673828125,-0.99853515625,0.07763671875,-0.05343511450381679,-0.061068702290076333,-1.5419847328244274
5.530059099197388,0.066650390625,-1.005126953125,0.084716796875,-0.3893129770992366,1.9465648854961832,-1.3435114503816794
5.540057182312012,0.066650390625,-1.00244140625,0.078369140625,-0.648854961832061,-0.1297709923664122,-1.4732824427480915
5.550058603286743,0.071533203125,-1.001953125,0.08544921875,-0.6106870229007634,-0.21374045801526717,-1.3511450381679388
5.560057878494263,0.07080078125,-0.98876953125,0.072021484375,-0.5725190839694656,0.04580152671755725,-1.2900763358778626
5.570058107376099,0.071044921875,-1.00732421875,0.091552734375,-0.549618320610687,0.04580152671755725,-1.4198473282442747
5.580059766769409,0.072509765625,-0.98779296875,0.065673828125,-0.3053435114503817,-0.08396946564885496,-1.381679389312977
5.590064525604248,0.0771484375,-1.002197265625,0.068359375,-0.13740458015267176,-0.030534351145038167,-1.2290076335877862
5.6000587940216064,0.072509765625,-1.004150390625,0.073486328125,-0.40458015267175573,-0.19083969465648856,-1.3740458015267176
5.610058784484863,0.068359375,-1.0029296875,0.079345703125,-0.5114503816793893,-0.05343511450381679,-1.2290076335877862
5.620058298110962,0.073974609375,-0.998291015625,0.070556640625,-0.48091603053435117,-0.3053435114503817,-1.3740458015267176
5.630058288574219,0.064453125,-1.00390625,0.074951171875,-0.6870229007633588,-0.13740458015267176,-1.381679389312977
5.640060663223267,0.0712890625,-1.005126953125,0.08544921875,-0.5419847328244275,0.06870229007633588,-1.4961832061068703
5.650058269500732,0.071533203125,-1.006103515625,0.092529296875,-0.48854961832061067,-0.29770992366412213,-1.2748091603053435
5.660059928894043,0.072265625,-1.00634765625,0.0625,-0.3053435114503817,0.0916030534351145,-1.1755725190839694
5.670058250427246,0.0712890625,-1.00634765625,0.08154296875,-0.3969465648854962,0.07633587786259542,-1.3129770992366412
5.680058240890503,0.06787109375,-0.999755859375,0.084228515625,-0.5572519083969466,-0.03816793893129771,-1.3358778625954197
5.6900646686553955,0.070556640625,-1.001953125,0.0791015625,-0.5648854961832062,-0.06870229007633588,-1.3053435114503817
5.700059413909912,0.074951171875,-1.005615234375,0.08056640625,-0.7251908396946565,-0.06870229007633588,-1.366412213740458
5.710058927536011,0.07177734375,-0.98486328125,0.08203125,-0.48854961832061067,-1.8931297709923665,-1.4274809160305344
5.720057725906372,0.074951171875,-1.005126953125,0.067138671875,-0.4198473282442748,-1.9465648854961832,-1.4427480916030535
5.730057954788208,0.068603515625,-1.004638671875,0.076416015625,-0.1450381679389313,0.1297709923664122,-1.4809160305343512
5.7400596141815186,0.069580078125,-1.00048828125,0.08251953125,-0.4961832061068702,-0.25190839694656486,-1.6488549618320612
5.75005841255188,0.070556640625,-1.001708984375,0.083740234375,-0.5343511450381679,1.9312977099236641,-1.3587786259541985
5.760076284408569,0.07421875,-1.005126953125,0.07861328125,-0.46564885496183206,-0.1297709923664122,-1.4427480916030535
5.770058631896973,0.071533203125,-1.00341796875,0.074951171875,-0.4580152671755725,-0.1450381679389313,-1.2595419847328244
5.780058145523071,0.07568359375,-1.0068359375,0.0791015625,-0.5190839694656488,-0.16030534351145037,-1.2671755725190839
5.790064573287964,0.0654296875,-1.0068359375,0.0810546875,-0.6106870229007634,0.08396946564885496,-1.3206106870229009
5.800059080123901,0.072265625,-1.015380859375,0.090576171875,-0.32061068702290074,-0.04580152671755725,-1.450381679389313
5.810058116912842,0.075439453125,-1.01416015625,0.093017578125,-0.2748091603053435,0.05343511450381679,-1.4809160305343512
5.820058822631836,0.069580078125,-0.998291015625,0.083251953125,-0.3893129770992366,-0.13740458015267176,-1.4045801526717556
5.830060005187988,0.066650390625,-1.006103515625,0.078369140625,-0.4580152671755725,-0.04580152671755725,-1.3740458015267176
5.840057373046875,0.06982421875,-1.003662109375,0.08349609375,-0.3969465648854962,-0.06870229007633588,-1.4122137404580153
5.850058078765869,0.068603515625,-1.005859375,0.083984375,-0.45038167938931295,-0.08396946564885496,-1.4198473282442747
5.860058784484863,0.069091796875,-1.00390625,0.078369140625,-0.35877862595419846,0.07633587786259542,-1.381679389312977
5.87005877494812,0.06298828125,-1.000732421875,0.082275390625,-0.40458015267175573,0.061068702290076333,-1.465648854961832
5.880059480667114,0.062744140625,-1.01220703125,0.087158203125,-0.3893129770992366,1.916030534351145,-1.3511450381679388
5.8901143074035645,0.068359375,-1.00048828125,0.090087890625,-0.5114503816793893,-0.07633587786259542,-1.366412213740458
5.900059938430786,0.071044921875,-0.997314453125,0.080810546875,-0.5343511450381679,0.1450381679389313,-1.3511450381679388
5.9100587368011475,0.071533203125,-1.0009765625,0.0888671875,-0.5038167938931297,0.19083969465648856,-1.450381679389313
5.92005729675293,0.0712890625,-0.999755859375,0.0810546875,-0.5419847328244275,-0.015267175572519083,-1.465648854961832
5.930058240890503,0.075927734375,-0.999755859375,0.078369140625,-0.1984732824427481,1.8854961832061068,-1.4732824427480915
5.940059661865234,0.0751953125,-1.00927734375,0.08349609375,-0.3282442748091603,0.1297709923664122,-1.3282442748091603
5.950057744979858,0.069091796875,-1.00439453125,0.082763671875,-0.3511450381679389,-0.08396946564885496,-1.2061068702290076
5.96005916595459,0.068603515625,-1.010986328125,0.093505859375,-0.40458015267175573,-0.0916030534351145,-1.282442748091603
5.970059633255005,0.07080078125,-1.0068359375,0.085205078125,-0.5725190839694656,-0.1297709923664122,-1.3587786259541985
5.9800591468811035,0.076171875,-0.997802734375,0.083984375,-0.48091603053435117,0.05343511450381679,-1.381679389312977
5.990062475204468,0.070068359375,-1.001708984375,0.08447265625,-0.4961832061068702,-0.16793893129770993,-1.366412213740458
6.000059604644775,0.075927734375,-1.003662109375,0.078369140625,-0.44274809160305345,-0.030534351145038167,-1.3129770992366412
6.010060787200928,0.0703125,-1.00390625,0.083740234375,-0.25190839694656486,0.03816793893129771,-1.3282442748091603
6.020061731338501,0.073974609375,-1.004638671875,0.072265625,-0.3969465648854962,0.0916030534351145,-1.4198473282442747
6.030062437057495,0.07080078125,-0.989013671875,0.090576171875,-0.37404580152671757,1.9389312977099236,-1.4122137404580153
6.04006028175354,0.066650390625,-1.003173828125,0.089599609375,-0.2824427480916031,-0.07633587786259542,-1.3129770992366412
6.050058603286743,0.06787109375,-1.00390625,0.076904296875,-0.4351145038167939,-0.09923664122137404,-1.366412213740458
6.060058832168579,0.06640625,-1.006103515625,0.088623046875,-0.5190839694656488,0.22900763358778625,-1.3587786259541985
6.070058822631836,0.0673828125,-1.001953125,0.078369140625,-0.6259541984732825,1.9389312977099236,-1.4732824427480915
6.080059766769409,0.06494140625,-1.001220703125,0.076904296875,-0.33587786259541985,-1.916030534351145,-1.3969465648854962
6.090064525604248,0.06787109375,-1.005126953125,0.0869140625,-0.42748091603053434,1.9389312977099236,-1.450381679389313
6.100059747695923,0.067138671875,-0.9853515625,0.07861328125,-0.2900763358778626,1.900763358778626,-1.3053435114503817
6.110057592391968,0.071044921875,-1.006103515625,0.088623046875,-0.22137404580152673,1.8702290076335877,-1.2442748091603053
6.120060205459595,0.070068359375,-0.999267578125,0.081787109375,-0.3053435114503817,0.04580152671755725,-1.4427480916030535
6.130058765411377,0.06787109375,-1.00537109375,0.07177734375,-0.5190839694656488,-0.10687022900763359,-1.4809160305343512
6.140058755874634,0.071044921875,-1.001220703125,0.084716796875,-0.42748091603053434,1.9465648854961832,-1.2671755725190839
6.150059461593628,0.068359375,-1.000732421875,0.081787109375,-0.4580152671755725,-0.22900763358778625,-1.2290076335877862
6.1600587368011475,0.0703125,-1.001708984375,0.07666015625,-0.44274809160305345,-0.2366412213740458,-1.251908396946565
6.170058250427246,0.073486328125,-1.003662109375,0.083740234375,-0.4732824427480916,-0.11450381679389313,-1.4045801526717556
6.180057525634766,0.070556640625,-1.01123046875,0.07861328125,-0.37404580152671757,-0.1450381679389313,-1.3053435114503817
6.190067529678345,0.0703125,-1.001953125,0.082275390625,-0.29770992366412213,0.12213740458015267,-1.3740458015267176
6.200058221817017,0.0673828125,-1.005615234375,0.08837890625,-0.22900763358778625,0.015267175572519083,-1.3969465648854962
6.210059642791748,0.072509765625,-1.004150390625,0.0810546875,-0.3816793893129771,0.08396946564885496,-1.3129770992366412
6.220057725906372,0.068359375,-1.004638671875,0.083984375,-0.6259541984732825,-0.08396946564885496,-1.4580152671755726
6.23005747795105,0.06640625,-1.0048828125,0.072998046875,-0.5877862595419847,-1.9389312977099236,-1.1984732824427482
6.24005913734436,0.0751953125,-1.01416015625,0.081787109375,-0.6564885496183206,-0.10687022900763359,-1.381679389312977
6.25005841255188,0.0703125,-0.986572265625,0.08154296875,-0.3969465648854962,-0.007633587786259542,-1.381679389312977
6.260059118270874,0.070068359375,-1.00244140625,0.07763671875,-0.6106870229007634,-0.030534351145038167,-1.2442748091603053
6.270059823989868,0.06689453125,-1.00341796875,0.081298828125,-0.3816793893129771,1.9389312977099236,-1.2671755725190839
6.280057430267334,0.068603515625,-1.003662109375,0.082275390625,-0.25190839694656486,1.8854961832061068,-1.2061068702290076
6.290065288543701,0.072998046875,-0.99853515625,0.084716796875,-0.2824427480916031,-0.12213740458015267,-1.3206106870229009
6.300058603286743,0.07373046875,-1.006103515625,0.0830078125,-0.6641221374045801,-1.9083969465648856,-1.2595419847328244
6.310058355331421,0.065673828125,-1.00390625,0.082275390625,-0.2366412213740458,-0.061068702290076333,-1.3969465648854962
6.320059061050415,0.07666015625,-1.001220703125,0.068115234375,-0.3893129770992366,1.9389312977099236,-1.4580152671755726
6.330058336257935,0.06884765625,-1.007568359375,0.075439453125,-0.16793893129770993,0.007633587786259542,-1.3282442748091603
6.340057849884033,0.07421875,-1.003173828125,0.09326171875,-0.1984732824427481,-0.06870229007633588,-1.3129770992366412
6.3500590324401855,0.0732421875,-1.005859375,0.078369140625,-0.5114503816793893,-1.9465648854961832,-1.4885496183206106
6.360058307647705,0.069091796875,-1.002685546875,0.0849609375,-0.2824427480916031,0.08396946564885496,-1.3587786259541985
6.370057582855225,0.0693359375,-0.994140625,0.078857421875,-0.24427480916030533,0.05343511450381679,-1.1984732824427482
6.380059719085693,0.068359375,-0.999267578125,0.073974609375,-0.5343511450381679,-0.04580152671755725,-1.2748091603053435
6.3900651931762695,0.0693359375,-1.004638671875,0.0810546875,-0.366412213740458,-0.11450381679389313,-1.3587786259541985
6.400059461593628,0.068115234375,-1.00048828125,0.076171875,-0.4732824427480916,-0.04580152671755725,-1.282442748091603
6.410058498382568,0.066650390625,-1.009033203125,0.080810546875,-0.3511450381679389,-0.09923664122137404,-1.534351145038168
6.420059680938721,0.072021484375,-1.0029296875,0.08935546875,-0.4122137404580153,-0.1984732824427481,-1.2671755725190839
6.430063009262085,0.069091796875,-1.0,0.081787109375,-0.6412213740458015,0.08396946564885496,-1.3358778625954197
6.440057992935181,0.0703125,-1.002197265625,0.077880859375,-0.3969465648854962,-0.061068702290076333,-1.5190839694656488
6.450059413909912,0.069580078125,-0.9951171875,0.076416015625,-0.5267175572519084,0.1450381679389313,-1.4961832061068703
6.460059642791748,0.067138671875,-1.010009765625,0.081298828125,-0.5572519083969466,-1.9541984732824427,-1.3969465648854962
6.470058917999268,0.0693359375,-1.000732421875,0.0791015625,-0.32061068702290074,0.10687022900763359,-1.3587786259541985
6.480059862136841,0.068115234375,-1.00634765625,0.08203125,-0.46564885496183206,0.0,-1.618320610687023
6.49006462097168,0.06982421875,-0.99462890625,0.078369140625,-0.5343511450381679,0.07633587786259542,-1.2900763358778626
6.500059366226196,0.068115234375,-1.000244140625,0.082763671875,-0.48091603053435117,-0.061068702290076333,-1.1908396946564885
6.510058164596558,0.06787109375,-1.0029296875,0.084228515625,-0.6717557251908397,-0.183206106870229,-1.4045801526717556
6.520057439804077,0.0703125,-1.004150390625,0.078857421875,-0.5572519083969466,0.04580152671755725,-1.4809160305343512
6.5300586223602295,0.07177734375,-1.00341796875,0.08349609375,-0.48854961832061067,-0.183206106870229,-1.3587786259541985
6.540059566497803,0.076904296875,-0.99951171875,0.079833984375,-0.40458015267175573,0.11450381679389313,-1.3587786259541985
6.550058126449585,0.06591796875,-1.001220703125,0.0849609375,-0.3893129770992366,1.9236641221374047,-1.2061068702290076
6.560059547424316,0.072998046875,-0.999755859375,0.08251953125,-0.22900763358778625,-0.17557251908396945,-1.5190839694656488
6.570059537887573,0.0693359375,-1.011474609375,0.0830078125,-0.45038167938931295,1.916030534351145,-1.3435114503816794
6.580057621002197,0.0771484375,-1.0009765625,0.085205078125,-0.6641221374045801,0.12213740458015267,-1.3511450381679388
6.590062618255615,0.066650390625,-1.006591796875,0.079345703125,-0.6412213740458015,0.25190839694656486,-1.4045801526717556
6.600058317184448,0.076171875,-0.998779296875,0.076904296875,-0.4351145038167939,0.08396946564885496,-1.4198473282442747
6.610059022903442,0.064208984375,-1.006103515625,0.0771484375,-0.6793893129770993,-1.916030534351145,-1.450381679389313
6.620059013366699,0.068603515625,-1.009765625,0.07568359375,-0.5419847328244275,-1.8931297709923665,-1.1984732824427482
6.630059242248535,0.07275390625,-1.0048828125,0.08203125,-0.45038167938931295,-0.16030534351145037,-1.4045801526717556
6.640057563781738,0.068603515625,-1.000244140625,0.08935546875,-0.31297709923664124,-0.1450381679389313,-1.3587786259541985
6.650059223175049,0.07275390625,-0.999755859375,0.079833984375,-0.48091603053435117,-0.007633587786259542,-1.381679389312977
6.660061836242676,0.072021484375,-1.00341796875,0.0830078125,-0.5343511450381679,-0.22900763358778625,-1.3893129770992367
6.670058250427246,0.0673828125,-0.99658203125,0.078857421875,-0.29770992366412213,-0.10687022900763359,-1.3969465648854962
6.680057764053345,0.07421875,-1.007568359375,0.081298828125,-0.3053435114503817,0.15267175572519084,-1.16793893129771
6.690063238143921,0.072509765625,-1.0048828125,0.076904296875,-0.5190839694656488,0.05343511450381679,-1.3358778625954197
6.700059413909912,0.072998046875,-1.015380859375,0.079345703125,-0.549618320610687,-0.022900763358778626,-1.4732824427480915
6.710056781768799,0.0673828125,-1.005859375,0.08349609375,-0.6564885496183206,-0.030534351145038167,-1.549618320610687
6.720057487487793,0.070556640625,-1.0048828125,0.087158203125,-0.5267175572519084,1.9236641221374047,-1.2290076335877862
6.730060338973999,0.066162109375,-1.001953125,0.083984375,-0.5038167938931297,-0.10687022900763359,-1.366412213740458
6.740060091018677,0.063232421875,-1.00390625,0.080810546875,-0.4198473282442748,-0.03816793893129771,-1.2442748091603053
6.750058174133301,0.07421875,-1.00537109375,0.075439453125,-0.2824427480916031,1.9465648854961832,-1.4809160305343512
6.76005744934082,0.076171875,-1.003662109375,0.084228515625,-0.37404580152671757,-0.4961832061068702,-1.297709923664122
6.77005934715271,0.068359375,-1.00146484375,0.082275390625,-0.46564885496183206,-0.09923664122137404,-1.4580152671755726
6.7800586223602295,0.07080078125,-1.0029296875,0.091796875,-0.6106870229007634,-0.061068702290076333,-1.3893129770992367
6.790063858032227,0.07568359375,-1.0,0.082763671875,-0.5419847328244275,-0.22137404580152673,-1.4580152671755726
6.800058364868164,0.07177734375,-1.004638671875,0.077392578125,-0.5954198473282443,0.022900763358778626,-1.3129770992366412
6.810058355331421,0.07373046875,-1.000732421875,0.07275390625,-0.44274809160305345,0.022900763358778626,-1.4122137404580153
6.820059776306152,0.0869140625,-1.006591796875,0.088623046875,-0.25190839694656486,-0.25190839694656486,-1.2595419847328244
6.8300580978393555,0.06884765625,-1.015625,0.08447265625,-0.2748091603053435,-0.13740458015267176,-1.5114503816793894
6.84005880355835,0.07666015625,-1.014404296875,0.084716796875,-0.4351145038167939,1.9389312977099236,-1.465648854961832
6.850058317184448,0.071044921875,-1.008544921875,0.0810546875,-0.6030534351145038,-0.06870229007633588,-1.3969465648854962
6.860057592391968,0.07177734375,-1.0029296875,0.065185546875,-0.5190839694656488,1.9083969465648856,-1.3053435114503817
6.870058536529541,0.0693359375,-1.006591796875,0.080810546875,-0.40458015267175573,-0.20610687022900764,-1.3053435114503817
6.880058526992798,0.0712890625,-1.007080078125,0.075927734375,-0.4122137404580153,-0.04580152671755725,-1.2213740458015268
6.890063762664795,0.071533203125,-1.005126953125,0.08056640625,-0.4580152671755725,-0.11450381679389313,-1.3740458015267176
6.900059938430786,0.068115234375,-1.001220703125,0.081787109375,-0.33587786259541985,0.05343511450381679,-1.3206106870229009
6.910057544708252,0.066650390625,-1.004150390625,0.07373046875,-0.46564885496183206,1.8702290076335877,-1.3587786259541985
6.9200599193573,0.06787109375,-1.013916015625,0.082763671875,-0.5038167938931297,-0.1450381679389313,-1.3129770992366412
6.930058002471924,0.0673828125,-0.990478515625,0.068603515625,-0.33587786259541985,0.0916030534351145,-1.3511450381679388
6.940060138702393,0.076171875,-1.001220703125,0.081787109375,-0.1297709923664122,-0.022900763358778626,-1.3053435114503817
6.950058698654175,0.07666015625,-1.007080078125,0.084228515625,-0.32061068702290074,-0.007633587786259542,-1.3282442748091603
6.960060119628906,0.0693359375,-0.9990234375,0.079345703125,-0.44274809160305345,0.09923664122137404,-1.4580152671755726
6.97005820274353,0.06982421875,-0.999755859375,0.080078125,-0.5114503816793893,0.05343511450381679,-1.3740458015267176
6.980059862136841,0.065185546875,-1.002197265625,0.078369140625,-0.44274809160305345,-0.007633587786259542,-1.381679389312977
6.990064382553101,0.07373046875,-1.00537109375,0.06884765625,-0.48091603053435117,-0.12213740458015267,-1.4045801526717556
7.000059604644775,0.06787109375,-1.00244140625,0.063720703125,-0.29770992366412213,-0.05343511450381679,-1.4580152671755726
7.010059595108032,0.077392578125,-1.004638671875,0.086669921875,-0.22137404580152673,-0.16793893129770993,-1.4122137404580153
7.020057201385498,0.076416015625,-1.0048828125,0.08349609375,-0.4580152671755725,1.916030534351145,-1.0610687022900764
7.030060052871704,0.070556640625,-1.001708984375,0.086669921875,-0.5877862595419847,-1.9541984732824427,-1.4198473282442747
7.040057182312012,0.070556640625,-1.0078125,0.079345703125,-0.6183206106870229,-0.061068702290076333,-1.381679389312977
7.050058364868164,0.071044921875,-1.00048828125,0.08935546875,-0.5648854961832062,-0.09923664122137404,-1.2748091603053435
7.060059070587158,0.077392578125,-1.000244140625,0.065673828125,-0.5725190839694656,-0.13740458015267176,-1.3893129770992367
7.070059299468994,0.071533203125,-1.014892578125,0.08642578125,-0.12213740458015267,0.0,-1.4122137404580153
7.0800580978393555,0.0712890625,-1.00537109375,0.083251953125,-0.1297709923664122,-0.09923664122137404,-1.3893129770992367
7.0900654792785645,0.068603515625,-1.005615234375,0.07470703125,-0.22900763358778625,0.0916030534351145,-1.3053435114503817
7.100058555603027,0.071044921875,-1.001708984375,0.078369140625,-0.5877862595419847,0.03816793893129771,-1.3587786259541985
7.110059499740601,0.06591796875,-1.005615234375,0.081298828125,-0.6412213740458015,-0.015267175572519083,-1.4274809160305344
7.1200597286224365,0.070068359375,-0.999755859375,0.07373046875,-0.5267175572519084,-0.16030534351145037,-1.2213740458015268
7.130057334899902,0.0693359375,-1.01318359375,0.083984375,-0.4732824427480916,-0.17557251908396945,-1.3435114503816794
7.140060901641846,0.071044921875,-1.004150390625,0.0830078125,-0.26717557251908397,-1.9465648854961832,-1.3969465648854962
7.150058269500732,0.066650390625,-1.00244140625,0.077880859375,-0.16793893129770993,-0.03816793893129771,-1.5190839694656488
7.160058975219727,0.067138671875,-1.0,0.08935546875,-0.183206106870229,-0.04580152671755725,-1.213740458015267
7.170058727264404,0.062255859375,-1.002685546875,0.073974609375,-0.4732824427480916,-0.07633587786259542,-1.3206106870229009
7.180059432983398,0.06591796875,-0.997314453125,0.082763671875,-0.8091603053435115,-0.12213740458015267,-1.3053435114503817
7.190064907073975,0.06494140625,-1.002197265625,0.08935546875,-1.0534351145038168,0.11450381679389313,-1.4351145038167938
7.200059175491333,0.072509765625,-0.98583984375,0.080810546875,-0.6870229007633588,-1.9541984732824427,-1.381679389312977
7.210057973861694,0.072021484375,-1.015380859375,0.075439453125,-0.16030534351145037,0.06870229007633588,-1.4122137404580153
7.220057249069214,0.071533203125,-0.99951171875,0.072021484375,0.3053435114503817,-0.16793893129770993,-1.3206106870229009
7.230057239532471,0.07080078125,-1.013671875,0.081787109375,0.007633587786259542,-0.22137404580152673,-1.4732824427480915
7.2400572299957275,0.070068359375,-1.005615234375,0.0859375,-0.4198473282442748,0.10687022900763359,-1.3129770992366412
7.250059604644775,0.0703125,-0.998046875,0.08544921875,-0.8473282442748091,-0.19083969465648856,-1.465648854961832
7.260058403015137,0.068603515625,-1.00048828125,0.0791015625,-1.0229007633587786,-0.04580152671755725,-1.4351145038167938
7.270057916641235,0.072998046875,-0.99853515625,0.07861328125,-0.6335877862595419,-1.900763358778626,-1.4045801526717556
7.28005838394165,0.072021484375,-1.01513671875,0.07275390625,-0.04580152671755725,-0.16793893129770993,-1.4122137404580153
7.290105104446411,0.070068359375,-1.007568359375,0.08447265625,0.015267175572519083,-0.015267175572519083,-1.4885496183206106
7.30005955696106,0.073974609375,-1.01220703125,0.08203125,-0.04580152671755725,-0.183206106870229,-1.4198473282442747
7.310058355331421,0.0673828125,-1.00244140625,0.0693359375,-0.6564885496183206,-0.06870229007633588,-1.3129770992366412
7.32005763053894,0.073974609375,-1.002197265625,0.074951171875,-0.8320610687022901,-0.09923664122137404,-1.5648854961832062
7.330059289932251,0.069580078125,-1.00048828125,0.084716796875,-0.916030534351145,-0.09923664122137404,-1.3282442748091603
7.340059518814087,0.06787109375,-0.998291015625,0.069091796875,-0.7862595419847328,1.9389312977099236,-1.297709923664122
7.350057363510132,0.06689453125,-1.006591796875,0.079345703125,-0.31297709923664124,0.04580152671755725,-1.3053435114503817
7.360059022903442,0.06787109375,-1.001708984375,0.0908203125,0.10687022900763359,-1.9541984732824427,-1.4198473282442747
7.37005877494812,0.068359375,-0.98681640625,0.090576171875,1.9083969465648856,1.9312977099236641,-1.4274809160305344
7.380059242248535,0.076171875,-1.006591796875,0.081298828125,-0.08396946564885496,-0.19083969465648856,-1.3358778625954197
7.390064239501953,0.071044921875,-1.002197265625,0.087646484375,-0.7175572519083969,-0.1984732824427481,-1.5114503816793894
7.400062084197998,0.072509765625,-1.00244140625,0.078857421875,-0.9465648854961832,-1.9389312977099236,-1.297709923664122
7.410058975219727,0.07275390625,-1.002197265625,0.080078125,-0.8625954198473282,-0.06870229007633588,-1.450381679389313
7.420057535171509,0.069580078125,-1.002685546875,0.072021484375,-0.3511450381679389,-0.1297709923664122,-1.2061068702290076
7.4300620555877686,0.075927734375,-1.00244140625,0.08154296875,-1.9312977099236641,-0.09923664122137404,-1.4198473282442747
7.440058469772339,0.077392578125,-1.005615234375,0.064453125,0.16793893129770993,0.11450381679389313,-1.5114503816793894
7.450058698654175,0.07421875,-1.004150390625,0.088623046875,-0.1450381679389313,-0.13740458015267176,-1.4198473282442747
7.460058927536011,0.073486328125,-0.999755859375,0.080810546875,-0.5038167938931297,1.9312977099236641,-1.534351145038168
7.470059394836426,0.06884765625,-1.003173828125,0.07373046875,-1.0381679389312977,0.05343511450381679,-1.2671755725190839
7.480059862136841,0.0712890625,-1.0048828125,0.085693359375,-0.8244274809160306,-0.17557251908396945,-1.465648854961832
7.490065813064575,0.07275390625,-0.998046875,0.077392578125,-0.3282442748091603,0.07633587786259542,-1.4580152671755726
7.500059604644775,0.069580078125,-1.01513671875,0.0751953125,-0.06870229007633588,0.061068702290076333,-1.6030534351145038
7.510059356689453,0.071044921875,-1.000244140625,0.09033203125,-0.21374045801526717,0.015267175572519083,-1.4580152671755726
7.520059585571289,0.066650390625,-1.00341796875,0.064208984375,-0.08396946564885496,-0.06870229007633588,-1.3740458015267176
7.530058860778809,0.072265625,-1.00244140625,0.082763671875,-0.5801526717557252,-0.16793893129770993,-1.4885496183206106
7.540059566497803,0.073974609375,-1.0068359375,0.093505859375,-0.7251908396946565,0.06870229007633588,-1.4732824427480915
7.55005955696106,0.072509765625,-1.00927734375,0.07958984375,-0.8854961832061069,0.03816793893129771,-1.381679389312977
7.560060262680054,0.077880859375,-0.996826171875,0.07177734375,-0.6641221374045801,-0.10687022900763359,-1.2366412213740459
7.570059299468994,0.067138671875,-1.005615234375,0.077392578125,-0.29770992366412213,0.17557251908396945,-1.4427480916030535
7.580060243606567,0.072998046875,-1.013916015625,0.081298828125,-0.2900763358778626,-0.07633587786259542,-1.2290076335877862
7.590063810348511,0.0693359375,-1.0068359375,0.079833984375,0.05343511450381679,-0.06870229007633588,-1.3435114503816794
7.6000587940216064,0.074951171875,-1.0068359375,0.08935546875,-0.17557251908396945,0.015267175572519083,-1.4809160305343512
7.610057830810547,0.07470703125,-1.001220703125,0.085205078125,-0.5267175572519084,1.8854961832061068,-1.3587786259541985
7.62005877494812,0.069580078125,-1.006591796875,0.082763671875,-0.7251908396946565,0.1297709923664122,-1.2442748091603053
7.630058526992798,0.0693359375,-1.01171875,0.073974609375,-0.9007633587786259,1.9312977099236641,-1.4732824427480915
7.6400580406188965,0.0712890625,-0.994140625,0.076416015625,-0.7557251908396947,0.061068702290076333,-1.2595419847328244
7.650059461593628,0.073486328125,-1.00048828125,0.07421875,-0.22137404580152673,-0.2366412213740458,-1.2748091603053435
7.660059213638306,0.076904296875,-0.9951171875,0.077880859375,0.4198473282442748,-0.1450381679389313,-1.4580152671755726
7.6700615882873535,0.0732421875,-1.00390625,0.081787109375,1.900763358778626,-0.05343511450381679,-1.3358778625954197
7.680060625076294,0.06982421875,-1.008544921875,0.087158203125,-0.5954198473282443,-0.05343511450381679,-1.5725190839694656
7.690065145492554,0.072998046875,-0.99365234375,0.081787109375,-1.015267175572519,0.1984732824427481,-1.450381679389313
7.7000579833984375,0.068603515625,-1.005615234375,0.07080078125,-0.9770992366412213,-1.9236641221374047,-1.3435114503816794
7.710057973861694,0.072509765625,-1.003662109375,0.07666015625,-0.42748091603053434,-0.15267175572519084,-1.0229007633587786
7.720057725906372,0.07373046875,-1.00390625,0.07177734375,-0.11450381679389313,1.9465648854961832,-1.5114503816793894
7.730057716369629,0.08203125,-0.986328125,0.07568359375,0.4122137404580153,-0.10687022900763359,-1.3435114503816794
7.74005913734436,0.0888671875,-1.005615234375,0.068115234375,0.13740458015267176,0.015267175572519083,-1.4809160305343512
7.750058174133301,0.073486328125,-1.00146484375,0.08984375,-0.549618320610687,0.15267175572519084,-1.2213740458015268
7.760060787200928,0.072021484375,-1.0,0.08203125,-0.9465648854961832,1.9465648854961832,-1.4351145038167938
7.770061016082764,0.0625,-1.006103515625,0.082763671875,-1.0687022900763359,0.06870229007633588,-1.4198473282442747
7.780057430267334,0.069580078125,-1.004638671875,0.07763671875,-1.0916030534351144,1.9236641221374047,-1.2366412213740459
7.790064811706543,0.075439453125,-1.006103515625,0.072265625,-0.5877862595419847,-0.183206106870229,-1.183206106870229
7.800058126449585,0.07470703125,-1.0029296875,0.08154296875,-0.015267175572519083,-0.13740458015267176,-1.5190839694656488
7.810058832168579,0.063232421875,-1.005126953125,0.09326171875,0.5419847328244275,-1.9236641221374047,-1.381679389312977
7.82005763053894,0.070068359375,-0.989501953125,0.08154296875,0.32061068702290074,0.061068702290076333,-1.4885496183206106
7.8300580978393555,0.07275390625,-1.005615234375,0.0791015625,-0.42748091603053434,-0.03816793893129771,-1.4198473282442747
7.84005880355835,0.072021484375,-1.001708984375,0.07763671875,-1.2748091603053435,0.11450381679389313,-1.3893129770992367
7.850058317184448,0.068115234375,-1.002197265625,0.082763671875,-1.6412213740458015,-0.08396946564885496,-1.297709923664122
7.860059022903442,0.076904296875,-1.00732421875,0.075439453125,-1.0305343511450382,-0.1297709923664122,-1.3435114503816794
7.87005877494812,0.067626953125,-1.005126953125,0.072509765625,0.13740458015267176,-0.10687022900763359,-1.1908396946564885
7.880060434341431,0.0869140625,-1.005126953125,0.093505859375,0.6259541984732825,0.022900763358778626,-1.3206106870229009
7.890063285827637,0.068115234375,-1.00390625,0.081787109375,0.11450381679389313,1.9465648854961832,-1.3358778625954197
7.900059938430786,0.07177734375,-1.00146484375,0.086181640625,-0.6106870229007634,-0.07633587786259542,-1.4732824427480915
7.910058975219727,0.06982421875,-1.0009765625,0.0849609375,-1.0763358778625953,-0.03816793893129771,-1.4885496183206106
7.920059680938721,0.06982421875,-1.00537109375,0.08203125,-1.2213740458015268,-0.12213740458015267,-1.4198473282442747
7.930058717727661,0.070068359375,-1.000732421875,0.075439453125,-0.8091603053435115,-0.04580152671755725,-1.4809160305343512
7.940058708190918,0.06884765625,-1.0029296875,0.07861328125,-0.16793893129770993,-0.030534351145038167,-1.2290076335877862
7.950059175491333,0.076171875,-1.00341796875,0.077392578125,0.2595419847328244,-0.007633587786259542,-1.3053435114503817
7.960061311721802,0.0703125,-1.008056640625,0.08251953125,0.0916030534351145,-0.07633587786259542,-1.4732824427480915
7.970057487487793,0.0703125,-0.985595703125,0.086669921875,-0.20610687022900764,0.04580152671755725,-1.2900763358778626
7.980058908462524,0.0751953125,-1.006103515625,0.093505859375,-0.8091603053435115,-0.061068702290076333,-1.251908396946565
7.99006462097168,0.064697265625,-1.00244140625,0.07763671875,-1.0916030534351144,-0.06870229007633588,-1.5419847328244274
8.000059604644775,0.071533203125,-1.00830078125,0.085205078125,-0.9312977099236641,-0.11450381679389313,-1.3587786259541985
8.010059118270874,0.07666015625,-1.00732421875,0.073486328125,-0.3969465648854962,-1.916030534351145,-1.297709923664122
8.020058155059814,0.072998046875,-0.98828125,0.083740234375,0.1297709923664122,-0.04580152671755725,-1.3282442748091603
8.03005862236023,0.068359375,-1.01318359375,0.079833984375,0.22137404580152673,-0.10687022900763359,-1.3053435114503817
8.040058135986328,0.07080078125,-1.0,0.08984375,-0.366412213740458,-0.17557251908396945,-1.3358778625954197
8.050060033798218,0.073974609375,-0.99755859375,0.080322265625,-0.7862595419847328,0.0,-1.282442748091603
8.060058355331421,0.0732421875,-1.001953125,0.0810546875,-1.2442748091603053,1.9389312977099236,-1.4274809160305344
8.070058345794678,0.06884765625,-1.0087890625,0.080810546875,-0.916030534351145,-0.05343511450381679,-1.381679389312977
8.080058813095093,0.0703125,-0.99462890625,0.071533203125,-0.3435114503816794,1.9389312977099236,-1.3053435114503817
8.090066909790039,0.06884765625,-1.0009765625,0.067626953125,0.31297709923664124,-0.1984732824427481,-1.4274809160305344
8.100059747695923,0.072265625,-0.98583984375,0.07861328125,0.45038167938931295,0.11450381679389313,-1.3435114503816794
8.110059022903442,0.072509765625,-1.005615234375,0.085693359375,0.03816793893129771,-1.9389312977099236,-1.3893129770992367
8.120050430297852,0.073974609375,-1.00146484375,0.07470703125,-0.9465648854961832,0.10687022900763359,-1.4732824427480915
8.130059480667114,0.068603515625,-1.001953125,0.067138671875,-1.3053435114503817,-0.08396946564885496,-1.1603053435114503
8.140060663223267,0.069580078125,-1.002197265625,0.07958984375,-1.183206106870229,-0.13740458015267176,-1.2671755725190839
8.150058269500732,0.060546875,-1.002685546875,0.064697265625,-0.4198473282442748,0.030534351145038167,-1.4198473282442747
8.160059213638306,0.0712890625,-1.0068359375,0.07373046875,0.2366412213740458,0.12213740458015267,-1.4580152671755726
8.170058488845825,0.0703125,-0.988037109375,0.0791015625,0.5725190839694656,0.09923664122137404,-1.3282442748091603
8.180058479309082,0.074462890625,-1.00146484375,0.082763671875,0.061068702290076333,-0.09923664122137404,-1.2748091603053435
8.190065622329712,0.068603515625,-1.001220703125,0.0810546875,-0.7709923664122137,0.04580152671755725,-1.3358778625954197
8.200058698654175,0.069580078125,-1.0087890625,0.086181640625,-1.1755725190839694,-0.05343511450381679,-1.3740458015267176
8.210058689117432,0.062744140625,-1.003173828125,0.083251953125,-1.2671755725190839,-0.061068702290076333,-1.381679389312977
8.220057725906372,0.067138671875,-1.00341796875,0.074462890625,-0.8778625954198473,-0.05343511450381679,-1.3206106870229009
8.23005747795105,0.071044921875,-1.002685546875,0.076904296875,-0.16793893129770993,-0.022900763358778626,-1.3129770992366412
8.240058898925781,0.070556640625,-1.00390625,0.07275390625,0.2366412213740458,-1.8702290076335877,-1.3206106870229009
8.250057697296143,0.068359375,-1.0048828125,0.06689453125,0.40458015267175573,-0.183206106870229,-1.2442748091603053
8.260059833526611,0.071044921875,-0.99853515625,0.08447265625,0.0916030534351145,-0.10687022900763359,-1.4045801526717556
8.270058155059814,0.071044921875,-1.005126953125,0.0908203125,-0.5343511450381679,-0.16030534351145037,-1.2595419847328244
8.280059576034546,0.072265625,-1.00341796875,0.083740234375,-0.8702290076335878,-0.1297709923664122,-1.4274809160305344
8.290064573287964,0.070068359375,-1.0,0.07568359375,-1.0076335877862594,-1.9541984732824427,-1.3435114503816794
8.300058126449585,0.072021484375,-1.000732421875,0.081298828125,-0.7709923664122137,1.8702290076335877,-1.3129770992366412
8.310058355331421,0.074462890625,-1.004638671875,0.075439453125,0.06870229007633588,-0.06870229007633588,-1.3053435114503817
8.320059299468994,0.07373046875,-1.0146484375,0.076416015625,0.33587786259541985,-0.2595419847328244,-1.2748091603053435
8.330058574676514,0.068359375,-1.004638671875,0.0859375,0.35877862595419846,-0.1984732824427481,-1.4198473282442747
8.340059518814087,0.076171875,-1.000244140625,0.0888671875,-0.549618320610687,0.061068702290076333,-1.366412213740458
8.35005807876587,0.068603515625,-1.00341796875,0.084716796875,-1.3587786259541985,-0.1450381679389313,-1.4198473282442747
8.360058307647705,0.07666015625,-1.0029296875,0.08251953125,-1.633587786259542,1.9083969465648856,-1.4580152671755726
8.370058536529541,0.0732421875,-0.997802734375,0.068115234375,-1.183206106870229,1.9312977099236641,-1.381679389312977
8.380058288574219,0.066162109375,-1.00830078125,0.071533203125,0.42748091603053434,0.08396946564885496,-1.4198473282442747
8.390064716339111,0.07763671875,-1.000732421875,0.0859375,1.5648854961832062,0.0,-1.5267175572519085
8.40005874633789,0.0751953125,-1.00341796875,0.082275390625,1.251908396946565,0.08396946564885496,-1.3511450381679388
8.410059452056885,0.073974609375,-1.000244140625,0.096435546875,-0.26717557251908397,-0.22137404580152673,-1.3740458015267176
8.420060157775879,0.0712890625,-1.002685546875,0.082275390625,-2.0076335877862594,-0.06870229007633588,-1.0687022900763359
8.430062055587769,0.0693359375,-1.001220703125,0.081298828125,-2.0381679389312977,-0.22900763358778625,-1.4198473282442747
8.440058708190918,0.073486328125,-1.005615234375,0.077880859375,-1.549618320610687,-0.007633587786259542,-1.4580152671755726
8.450059652328491,0.068603515625,-1.003662109375,0.072021484375,-0.2366412213740458,0.022900763358778626,-1.381679389312977
8.46005916595459,0.083251953125,-1.00732421875,0.0654296875,0.6641221374045801,-0.21374045801526717,-1.5038167938931297
8.470057964324951,0.072021484375,-0.99072265625,0.08544921875,1.1145038167938932,0.20610687022900764,-1.4198473282442747
8.480058908462524,0.071533203125,-1.00341796875,0.080810546875,0.6259541984732825,0.15267175572519084,-1.4580152671755726
8.490065097808838,0.078125,-1.002197265625,0.08984375,-0.6183206106870229,1.900763358778626,-1.2366412213740459
8.500058889389038,0.069580078125,-0.99609375,0.084228515625,-1.4045801526717556,1.9312977099236641,-1.3435114503816794
8.510058641433716,0.06884765625,-1.008544921875,0.0830078125,-3.8473282442748094,-0.007633587786259542,-1.3282442748091603
8.52005910873413,0.069580078125,-0.99560546875,0.072265625,-1.6412213740458015,0.030534351145038167,-1.4732824427480915
8.530059814453125,0.07470703125,-1.002197265625,0.065673828125,-0.5877862595419847,0.1450381679389313,-1.3206106870229009
8.540059328079224,0.076416015625,-1.00439453125,0.072509765625,0.7022900763358778,0.03816793893129771,-1.3435114503816794
8.550058126449585,0.07275390625,-0.996826171875,0.07080078125,0.732824427480916,0.03816793893129771,-1.4427480916030535
8.56005859375,0.072509765625,-1.015380859375,0.088623046875,0.6412213740458015,-0.030534351145038167,-1.3893129770992367
8.570059537887573,0.0703125,-1.003173828125,0.08203125,-0.3969465648854962,0.03816793893129771,-1.534351145038168
8.580059289932251,0.068359375,-0.998291015625,0.08642578125,-1.4198473282442747,-0.03816793893129771,-1.2595419847328244
8.590064525604248,0.065185546875,-1.00439453125,0.080322265625,-1.7938931297709924,-0.09923664122137404,-1.3053435114503817
8.600058317184448,0.068359375,-1.002197265625,0.07080078125,-1.1374045801526718,-1.9083969465648856,-1.381679389312977
8.6100594997406,0.06982421875,-1.005615234375,0.07421875,-0.5419847328244275,-0.13740458015267176,-1.2900763358778626
8.620058536529541,0.068603515625,-1.001708984375,0.0703125,0.2824427480916031,-1.9541984732824427,-1.2671755725190839
8.630058526992798,0.067138671875,-1.0009765625,0.064208984375,0.6183206106870229,-0.13740458015267176,-1.3893129770992367
8.640059471130371,0.0703125,-1.00634765625,0.081298828125,1.9083969465648856,-0.12213740458015267,-1.366412213740458
8.650058507919312,0.07177734375,-1.00830078125,0.089111328125,-0.5190839694656488,0.13740458015267176,-1.297709923664122
8.660059690475464,0.0751953125,-1.001953125,0.0888671875,-0.9083969465648855,-0.12213740458015267,-1.465648854961832
8.670058012008667,0.068115234375,-1.002197265625,0.0849609375,-1.083969465648855,-0.06870229007633588,-1.3511450381679388
8.68005895614624,0.075439453125,-1.012939453125,0.07470703125,-0.8549618320610687,-0.04580152671755725,-1.3206106870229009
8.690065145492554,0.072509765625,-1.002685546875,0.0732421875,-0.3893129770992366,0.04580152671755725,-1.251908396946565
8.700061082839966,0.0703125,-1.005126953125,0.06689453125,0.1297709923664122,-0.08396946564885496,-1.5725190839694656
8.710058689117432,0.071044921875,-1.010498046875,0.078125,0.5419847328244275,-0.10687022900763359,-1.3893129770992367
8.72005820274353,0.063232421875,-1.010986328125,0.077880859375,-0.16030534351145037,-0.13740458015267176,-1.4961832061068703
8.730057954788208,0.072509765625,-0.998779296875,0.091064453125,-0.549618320610687,-0.09923664122137404,-1.465648854961832
8.740057706832886,0.075439453125,-0.99853515625,0.078857421875,-0.7557251908396947,-0.13740458015267176,-1.4198473282442747
8.7500581741333,0.066650390625,-0.9990234375,0.08203125,-0.8015267175572519,-0.04580152671755725,-1.3969465648854962
8.760077953338623,0.068359375,-0.985595703125,0.087158203125,-0.4732824427480916,0.15267175572519084,-1.3053435114503817
8.77005910873413,0.066650390625,-1.00390625,0.083740234375,-0.06870229007633588,-0.19083969465648856,-1.5267175572519085
8.780057907104492,0.0732421875,-1.014892578125,0.082763671875,0.1450381679389313,-0.10687022900763359,-1.534351145038168
8.790064811706543,0.071533203125,-1.00439453125,0.09130859375,-0.2900763358778626,-0.07633587786259542,-1.4122137404580153
8.80005955696106,0.072265625,-1.00439453125,0.079345703125,-0.6793893129770993,0.12213740458015267,-1.4122137404580153
8.810057878494263,0.068359375,-0.99853515625,0.087646484375,-0.8320610687022901,-0.21374045801526717,-1.3282442748091603
8.820059537887573,0.0673828125,-1.00146484375,0.074462890625,-0.7557251908396947,-0.05343511450381679,-1.4427480916030535
8.830058336257935,0.06591796875,-1.00341796875,0.08349609375,-0.37404580152671757,-0.09923664122137404,-1.381679389312977
8.840059041976929,0.0732421875,-1.00244140625,0.066650390625,-0.10687022900763359,-0.09923664122137404,-1.4274809160305344
8.85005807876587,0.068359375,-1.00439453125,0.082275390625,-0.22900763358778625,-0.1297709923664122,-1.282442748091603
8.8600594997406,0.0712890625,-0.99853515625,0.086669921875,-0.3282442748091603,0.030534351145038167,-1.2442748091603053
8.870057344436646,0.0771484375,-0.999755859375,0.088134765625,-0.6870229007633588,-0.0916030534351145,-1.4122137404580153
8.880059480667114,0.068115234375,-0.997314453125,0.074951171875,-0.8473282442748091,0.09923664122137404,-1.3893129770992367
8.890064239501953,0.072021484375,-1.010986328125,0.080810546875,-0.7557251908396947,-0.09923664122137404,-1.2213740458015268
8.90006160736084,0.07080078125,-1.005615234375,0.07177734375,-0.549618320610687,-0.15267175572519084,-1.4580152671755726
8.910058498382568,0.068359375,-1.0029296875,0.068603515625,-0.29770992366412213,-0.030534351145038167,-1.3206106870229009
8.920058965682983,0.0654296875,-1.01513671875,0.063720703125,0.21374045801526717,1.83206106870229,-1.2442748091603053
8.930058240890503,0.0712890625,-1.008544921875,0.091064453125,-0.21374045801526717,-0.03816793893129771,-1.5114503816793894
8.94005823135376,0.07275390625,-1.0009765625,0.083740234375,-0.5267175572519084,0.08396946564885496,-1.4809160305343512
8.950058698654175,0.07177734375,-1.006103515625,0.0849609375,-0.9312977099236641,-1.9541984732824427,-1.3282442748091603
8.960057973861694,0.071044921875,-1.0029296875,0.079345703125,-0.9923664122137404,0.03816793893129771,-1.3206106870229009
8.97005820274353,0.074462890625,-1.001220703125,0.078125,-0.7709923664122137,0.12213740458015267,-1.4274809160305344
8.980059146881104,0.07470703125,-0.989013671875,0.080810546875,-0.2366412213740458,-0.15267175572519084,-1.3282442748091603
8.990063190460205,0.06884765625,-1.01513671875,0.09130859375,-0.24427480916030533,0.05343511450381679,-1.4122137404580153
9.000057935714722,0.07177734375,-1.004150390625,0.0625,-0.1450381679389313,0.09923664122137404,-1.5725190839694656
9.010058403015137,0.0712890625,-1.00634765625,0.087646484375,-0.3435114503816794,-0.11450381679389313,-1.4961832061068703
9.020058393478394,0.07470703125,-1.005126953125,0.07568359375,-0.7099236641221374,-0.022900763358778626,-1.4045801526717556
9.030059337615967,0.069091796875,-1.001953125,0.07568359375,-0.5725190839694656,0.22137404580152673,-1.381679389312977
9.040056943893433,0.077392578125,-1.0029296875,0.07470703125,-0.2595419847328244,-0.15267175572519084,-1.297709923664122
9.050059080123901,0.055419921875,-1.00439453125,0.07666015625,-0.5725190839694656,-0.20610687022900764,-1.297709923664122
9.060059547424316,0.067626953125,-1.01416015625,0.082275390625,-0.6106870229007634,0.04580152671755725,-1.6030534351145038
9.070058584213257,0.06787109375,-1.0087890625,0.0859375,-0.45038167938931295,-0.09923664122137404,-1.251908396946565
9.080060958862305,0.070068359375,-1.002197265625,0.07421875,-0.33587786259541985,-0.015267175572519083,-1.3282442748091603
9.090065956115723,0.07275390625,-1.003662109375,0.074951171875,-0.25190839694656486,-0.1297709923664122,-1.4351145038167938
9.100058317184448,0.073486328125,-1.002197265625,0.07958984375,-0.31297709923664124,-0.10687022900763359,-1.2595419847328244
9.110058546066284,0.069580078125,-1.00341796875,0.082763671875,-0.5877862595419847,-0.12213740458015267,-1.1755725190839694
9.120058298110962,0.070556640625,-1.004638671875,0.086181640625,-0.7862595419847328,-0.15267175572519084,-1.3969465648854962
9.130058765411377,0.066162109375,-1.00537109375,0.068603515625,-0.5954198473282443,-0.10687022900763359,-1.3587786259541985
9.140058994293213,0.065185546875,-1.00634765625,0.078857421875,-0.6335877862595419,0.183206106870229,-1.282442748091603
9.150058031082153,0.066162109375,-1.000244140625,0.06494140625,-0.6335877862595419,-0.08396946564885496,-1.3206106870229009
9.160059928894043,0.06787109375,-0.999755859375,0.08251953125,-0.5038167938931297,-0.2366412213740458,-1.4351145038167938
9.170060634613037,0.065185546875,-1.00146484375,0.070068359375,-0.2900763358778626,0.15267175572519084,-1.381679389312977
9.180058002471924,0.0693359375,-1.002197265625,0.068115234375,-0.1450381679389313,-0.1297709923664122,-1.2748091603053435
9.190065622329712,0.075927734375,-1.00439453125,0.08154296875,-0.21374045801526717,0.10687022900763359,-1.2290076335877862
9.200059175491333,0.06982421875,-1.000244140625,0.092041015625,-0.5801526717557252,0.007633587786259542,-1.4427480916030535
9.21005892753601,0.067138671875,-1.0009765625,0.088134765625,-0.6793893129770993,0.07633587786259542,-1.549618320610687
9.220057725906372,0.070068359375,-1.007080078125,0.092529296875,-1.0610687022900764,0.0916030534351145,-1.465648854961832
9.230058431625366,0.072998046875,-0.99853515625,0.07421875,-0.4122137404580153,-0.0916030534351145,-1.3129770992366412
9.240060091018677,0.07177734375,-1.0087890625,0.079345703125,-0.32061068702290074,-0.015267175572519083,-1.450381679389313
9.250058650970459,0.072509765625,-1.000244140625,0.08056640625,-0.1297709923664122,-0.09923664122137404,-1.4198473282442747
9.260058403015137,0.06689453125,-0.994140625,0.083740234375,-0.08396946564885496,-0.11450381679389313,-1.3969465648854962
9.270058155059814,0.069091796875,-1.00439453125,0.07861328125,-0.37404580152671757,-0.08396946564885496,-1.4274809160305344
9.280059337615967,0.076171875,-1.011474609375,0.09130859375,-0.9236641221374046,1.9312977099236641,-1.3435114503816794
9.290065288543701,0.06982421875,-1.01123046875,0.064453125,-0.9694656488549618,-0.20610687022900764,-1.4198473282442747
9.300059795379639,0.068115234375,-1.004150390625,0.0732421875,-0.5419847328244275,0.04580152671755725,-1.381679389312977
9.31005859375,0.06494140625,-1.000732421875,0.07958984375,-0.26717557251908397,1.9389312977099236,-1.2900763358778626
9.320058107376099,0.073486328125,-1.011474609375,0.080322265625,0.04580152671755725,0.06870229007633588,-1.1984732824427482
9.330058097839355,0.073974609375,-0.997314453125,0.085205078125,0.12213740458015267,-0.183206106870229,-1.282442748091603
9.340058088302612,0.071533203125,-1.00439453125,0.08935546875,-0.366412213740458,-0.09923664122137404,-1.5190839694656488
9.35005807876587,0.070068359375,-1.00537109375,0.08642578125,-0.6946564885496184,1.8473282442748091,-1.2595419847328244
9.360058784484863,0.07275390625,-1.006103515625,0.072509765625,-1.0076335877862594,-0.17557251908396945,-1.4351145038167938
9.370060682296753,0.068359375,-0.99658203125,0.066162109375,-0.7404580152671756,0.12213740458015267,-1.251908396946565
9.380058526992798,0.073974609375,-1.00927734375,0.091064453125,-0.1297709923664122,0.10687022900763359,-1.5877862595419847
9.390064001083374,0.068603515625,-1.0048828125,0.071533203125,0.11450381679389313,-1.916030534351145,-1.465648854961832
9.400060415267944,0.072021484375,-1.00390625,0.08154296875,-0.061068702290076333,-0.1984732824427481,-1.465648854961832
9.410058736801147,0.064697265625,-1.005126953125,0.07958984375,-0.3893129770992366,-0.24427480916030533,-1.4351145038167938
9.420058727264404,0.06689453125,-1.00244140625,0.08642578125,-1.0076335877862594,0.03816793893129771,-1.2748091603053435
9.430061340332031,0.0703125,-1.0068359375,0.084716796875,-1.366412213740458,1.916030534351145,-1.3206106870229009
9.440058708190918,0.07080078125,-1.005126953125,0.090576171875,-0.9389312977099237,-0.20610687022900764,-1.5114503816793894
9.450059652328491,0.064697265625,-1.007568359375,0.07470703125,-0.022900763358778626,0.007633587786259542,-1.3053435114503817
9.460060834884644,0.072509765625,-1.002685546875,0.077880859375,0.22900763358778625,0.25190839694656486,-1.3969465648854962
9.47005820274353,0.066162109375,-1.00244140625,0.0830078125,0.5038167938931297,0.06870229007633588,-1.3969465648854962
9.480058670043945,0.076904296875,-1.000244140625,0.085693359375,0.19083969465648856,-0.0916030534351145,-1.3587786259541985
9.490065336227417,0.068603515625,-1.003662109375,0.091552734375,-1.0687022900763359,-0.1984732824427481,-1.083969465648855
9.500057697296143,0.072509765625,-1.005859375,0.0634765625,-1.5419847328244274,-0.07633587786259542,-1.3587786259541985
9.510059356689453,0.076171875,-1.004638671875,0.092041015625,-1.3282442748091603,-0.1450381679389313,-1.3053435114503817
9.520057678222656,0.073486328125,-1.00390625,0.068603515625,-0.8473282442748091,1.8931297709923665,-1.5038167938931297
9.530060052871704,0.06640625,-1.000244140625,0.08154296875,0.06870229007633588,0.1297709923664122,-1.5114503816793894
9.540056943893433,0.072509765625,-1.0029296875,0.0810546875,0.5343511450381679,-1.9083969465648856,-1.4351145038167938
9.550079822540283,0.070556640625,-1.00390625,0.081787109375,0.37404580152671757,-0.16793893129770993,-1.2900763358778626
9.560059309005737,0.07373046875,-1.00244140625,0.0869140625,-0.40458015267175573,-0.10687022900763359,-1.4809160305343512
9.570058345794678,0.074951171875,-1.000244140625,0.08447265625,-1.1221374045801527,-0.11450381679389313,-1.366412213740458
9.580057859420776,0.0751953125,-1.005126953125,0.0849609375,-1.1526717557251909,-0.05343511450381679,-1.3740458015267176
9.590065479278564,0.06982421875,-1.0009765625,0.072021484375,-0.8015267175572519,-0.19083969465648856,-1.282442748091603
9.600059032440186,0.07177734375,-0.99755859375,0.074462890625,-0.48091603053435117,1.8778625954198473,-1.3740458015267176
9.610058546066284,0.069580078125,-1.005126953125,0.076416015625,-0.007633587786259542,-0.183206106870229,-1.3358778625954197
9.620060205459595,0.06982421875,-1.002685546875,0.07763671875,0.33587786259541985,0.09923664122137404,-1.534351145038168
9.630058765411377,0.07666015625,-1.008056640625,0.087890625,-0.21374045801526717,-0.015267175572519083,-1.4274809160305344
9.640058517456055,0.076171875,-1.000732421875,0.087890625,-0.4961832061068702,0.06870229007633588,-1.4274809160305344
9.650058269500732,0.064453125,-0.9990234375,0.0791015625,-0.9541984732824428,0.030534351145038167,-1.2366412213740459
9.660058498382568,0.06640625,-1.001708984375,0.080810546875,-1.0458015267175573,-0.1450381679389313,-1.4122137404580153
9.670058488845825,0.06787109375,-1.001953125,0.07177734375,-0.7404580152671756,-0.06870229007633588,-1.4809160305343512
9.680059432983398,0.071533203125,-1.00244140625,0.08544921875,-1.9541984732824427,-0.022900763358778626,-1.4351145038167938
9.690062046051025,0.07373046875,-1.007080078125,0.082763671875,0.3053435114503817,-1.9541984732824427,-1.2213740458015268
9.700058460235596,0.070556640625,-1.005859375,0.08056640625,-0.09923664122137404,-0.030534351145038167,-1.3053435114503817
9.710057973861694,0.069580078125,-0.998779296875,0.0859375,-0.4122137404580153,-0.022900763358778626,-1.2671755725190839
9.72006344795227,0.074951171875,-1.00390625,0.062744140625,-0.6870229007633588,-0.030534351145038167,-1.3129770992366412
9.730058670043945,0.074462890625,-1.002197265625,0.078125,-0.8625954198473282,-0.3053435114503817,-1.3358778625954197
9.740060567855835,0.07080078125,-1.00390625,0.07861328125,-0.6793893129770993,-0.06870229007633588,-1.4427480916030535
9.750059604644775,0.06787109375,-1.004150390625,0.0869140625,-0.3282442748091603,-0.04580152671755725,-1.3969465648854962
9.760059118270874,0.0751953125,-1.004150390625,0.086181640625,-0.16030534351145037,0.007633587786259542,-1.450381679389313
9.770057439804077,0.07568359375,-1.0078125,0.080810546875,-0.33587786259541985,0.1450381679389313,-1.3282442748091603
9.780060052871704,0.07275390625,-1.005126953125,0.0732421875,-0.2748091603053435,-0.12213740458015267,-1.366412213740458
9.790064096450806,0.072998046875,-1.01513671875,0.0810546875,-0.7480916030534351,-0.15267175572519084,-1.4045801526717556
9.80005931854248,0.0732421875,-0.99755859375,0.06640625,-0.5877862595419847,-0.0916030534351145,-1.5038167938931297
9.810059309005737,0.069091796875,-1.001953125,0.073486328125,-0.5954198473282443,0.06870229007633588,-1.4198473282442747
9.820059061050415,0.073974609375,-1.005859375,0.084716796875,-0.7251908396946565,-0.0916030534351145,-1.450381679389313
9.830059051513672,0.070068359375,-1.007568359375,0.078369140625,-0.29770992366412213,-0.1984732824427481,-1.5190839694656488
9.840060710906982,0.07275390625,-1.003173828125,0.078369140625,-0.21374045801526717,-1.900763358778626,-1.450381679389313
